"procedure","block","trial","PMdemand","context","stim","role","word_type","correct_key","response","correct","reaction_time","pressedQ","pressedQ_blank","pressedQ_fix"
"LDTpractice",1,1,NA,"upper","hasking","","nw","h","g",0,0.499451875453815,1,NA,1
"LDTpractice",2,1,NA,"upper","revival","","w","g","g",1,0.691132333828136,1,NA,1
"LDTpractice",3,1,NA,"upper","grutch","","nw","h","h",1,0.701046166708693,1,NA,1
"LDTpractice",4,1,NA,"upper","crinklo","","nw","h","h",1,0.521582781570032,1,NA,1
"LDTpractice",5,1,NA,"upper","reputable","","w","g","g",1,0.497396935941651,1,NA,1
"LDTpractice",6,1,NA,"upper","umpire","","w","g","h",0,0.630654807668179,1,NA,1
"LDTpractice",7,1,NA,"upper","overshoot","","w","g","g",1,0.53910588263534,1,NA,1
"LDTpractice",8,1,NA,"upper","julled","","nw","h","g",0,0.746381632983685,1,NA,1
"LDTpractice",9,1,NA,"upper","lumbigo","","nw","h","h",1,0.612947632791474,1,NA,1
"LDTpractice",10,1,NA,"upper","alolition","","nw","h","g",0,0.539181035244837,1,NA,1
"LDTpractice",11,1,NA,"upper","picture","","w","g","g",1,0.443920175079256,1,NA,1
"LDTpractice",12,1,NA,"upper","sponsor","","w","g","g",1,0.592677991138771,1,NA,1
"LDTpractice",13,1,NA,"upper","busted","","w","g","g",1,0.478430378250778,1,NA,1
"LDTpractice",14,1,NA,"upper","turative","","nw","h","h",1,0.681752844713628,1,NA,1
"LDTpractice",1,2,NA,"lower","curlecs","","nw","h","h",1,0.573683292604983,1,NA,1
"LDTpractice",2,2,NA,"lower","summary","","w","g","g",1,0.556784916901961,1,NA,1
"LDTpractice",3,2,NA,"lower","trotch","","nw","h","h",1,0.492307426873595,1,NA,1
"LDTpractice",4,2,NA,"lower","raestro","","nw","h","g",0,0.526739166816697,1,NA,1
"LDTpractice",5,2,NA,"lower","hiring","","w","g","g",1,0.456002834951505,1,NA,1
"LDTpractice",6,2,NA,"lower","unscrew","","w","g","h",0,0.628359182039276,1,NA,1
"LDTpractice",7,2,NA,"lower","grimace","","w","g","g",1,0.569451580522582,1,NA,1
"LDTpractice",8,2,NA,"lower","treeps","","nw","h","h",1,0.584813800640404,1,NA,1
"LDTpractice",9,2,NA,"lower","lurshing","","nw","h","h",1,0.615212469361722,1,NA,1
"LDTpractice",10,2,NA,"lower","latador","","nw","h","h",1,0.645271462388337,1,NA,1
"LDTpractice",11,2,NA,"lower","slumber","","w","g","g",1,0.5539645482786,1,NA,1
"LDTpractice",12,2,NA,"lower","infinity","","w","g","g",1,0.497473743744195,1,NA,1
"LDTpractice",13,2,NA,"lower","tricycle","","w","g","g",1,0.484869651729241,1,NA,1
"LDTpractice",14,2,NA,"lower","grocus","","nw","h","h",1,0.51176164788194,1,NA,1
"experimental",1,1,"hd","upper","stelled","nw","nw","h","h",1,0.741724498802796,1,NA,1
"experimental",1,2,"hd","upper","bingu","nw","nw","h","h",1,0.839076715754345,1,NA,1
"experimental",1,3,"hd","upper","bother","w","w","g","g",1,0.972430266439915,1,NA,1
"experimental",1,4,"hd","upper","jungle","w","w","g","g",1,0.692519840085879,1,NA,1
"experimental",1,5,"hd","upper","sludding","nw","nw","h","h",1,0.783434769604355,1,NA,1
"experimental",1,6,"hd","upper","etber","nw","nw","h","h",1,0.670907386345789,1,NA,1
"experimental",1,7,"hd","upper","pleamed","nw","nw","h","h",1,0.658983308123425,1,NA,1
"experimental",1,8,"hd","upper","gerby","nw","nw","h","h",1,0.599768806714565,1,NA,1
"experimental",1,9,"hd","upper","reprint","w","w","g","g",1,0.614944304339588,1,NA,1
"experimental",1,10,"hd","upper","suburb","w","w","g","g",1,0.557582128793001,1,NA,1
"experimental",1,11,"hd","upper","chining","nw","nw","h","h",1,0.646490124054253,1,NA,1
"experimental",1,12,"hd","upper","noils","nw","nw","h","h",1,0.755785621004179,1,NA,1
"experimental",1,13,"hd","upper","fatho","nw","nw","h","h",1,0.596620349679142,1,NA,1
"experimental",1,14,"hd","upper","sengry","nw","nw","h","h",1,0.5949295850005,1,NA,1
"experimental",1,15,"hd","upper","trewl","nw","nw","h","h",1,0.578249383252114,1,NA,1
"experimental",1,16,"hd","upper","bloodless","w","w","g","g",1,0.586238386342302,1,NA,1
"experimental",1,17,"hd","upper","govern","w","w","g","g",1,0.593598691280931,1,NA,1
"experimental",1,18,"hd","upper","befriend","w","w","g","g",1,0.697005150141194,1,NA,1
"experimental",1,19,"hd","upper","foster","w","w","g","g",1,0.724412618903443,1,NA,1
"experimental",1,20,"hd","upper","destroy","w","w","g","g",1,0.534467950463295,1,NA,1
"experimental",1,21,"hd","upper","ladybug","target","target","q","q",1,0.687755108578131,1,NA,1
"experimental",1,22,"hd","upper","puggers","aftertar1","nw","h","h",1,0.722753305919468,1,NA,1
"experimental",1,23,"hd","upper","cessation","aftertar2","w","g","g",1,0.844142387853935,1,NA,1
"experimental",1,24,"hd","upper","maiden","aftertar3","w","g","g",1,0.585549433948472,1,NA,1
"experimental",1,25,"hd","upper","tablet","w","w","g","g",1,0.632935866713524,1,NA,1
"experimental",1,26,"hd","upper","gestalion","w","nw","h","g",0,0.743011360289529,1,NA,1
"experimental",1,27,"hd","upper","nimono","nw","nw","h","h",1,0.608571575488895,1,NA,1
"experimental",1,28,"hd","upper","century","nw","w","g","g",1,0.61506282677874,1,NA,1
"experimental",1,29,"hd","upper","removable","w","w","g","g",1,0.661953650880605,1,NA,1
"experimental",1,30,"hd","upper","newstrint","w","nw","h","h",1,0.682133573107421,1,NA,1
"experimental",2,1,"ld","lower","reses","nw","nw","h","h",1,0.613415431929752,1,NA,1
"experimental",2,2,"ld","lower","selongs","nw","nw","h","h",1,0.564024382038042,1,NA,1
"experimental",2,3,"ld","lower","vintnel","nw","nw","h","h",1,0.508760184748098,1,NA,1
"experimental",2,4,"ld","lower","graveyard","w","w","g","g",1,0.559611575910822,1,NA,1
"experimental",2,5,"ld","lower","dishwater","w","w","g","g",1,0.480167823377997,1,NA,1
"experimental",2,6,"ld","lower","seighing","nw","nw","h","g",0,0.844139077467844,1,NA,1
"experimental",2,7,"ld","lower","euphoric","w","w","g","g",1,0.609529024222866,1,NA,1
"experimental",2,8,"ld","lower","cooray","nw","nw","h","h",1,0.536144147859886,1,NA,1
"experimental",2,9,"ld","lower","ebuating","nw","nw","h","h",1,0.512605871306732,1,NA,1
"experimental",2,10,"ld","lower","teamwork","w","w","g","g",1,0.499392614234239,1,NA,1
"experimental",2,11,"ld","lower","forbid","w","w","g","g",1,0.502543719951063,1,NA,1
"experimental",2,12,"ld","lower","disease","w","w","g","g",1,0.505302178906277,1,NA,1
"experimental",2,13,"ld","lower","prominent","w","w","g","g",1,0.667927111731842,1,NA,1
"experimental",2,14,"ld","lower","tyena","nw","nw","h","h",1,0.687702468596399,1,NA,1
"experimental",2,15,"ld","lower","hutting","nw","nw","h","h",1,0.651562086539343,1,NA,1
"experimental",2,16,"ld","lower","supplier","w","w","g","g",1,0.640867595095187,1,NA,1
"experimental",2,17,"ld","lower","terrify","w","w","g","g",1,0.661538822343573,1,NA,1
"experimental",2,18,"ld","lower","roaned","nw","nw","h","h",1,0.666166822658852,1,NA,1
"experimental",2,19,"ld","lower","massacre","w","w","g","g",1,0.518665740964934,1,NA,1
"experimental",2,20,"ld","lower","collision","w","w","g","g",1,0.616784711834043,1,NA,1
"experimental",2,21,"ld","lower","rapport","w","w","g","h",0,0.527342372806743,1,NA,1
"experimental",2,22,"ld","lower","scack","nw","nw","h","h",1,0.673330473480746,1,NA,1
"experimental",2,23,"ld","lower","chight","nw","nw","h","h",1,0.581433264771476,1,NA,1
"experimental",2,24,"ld","lower","permute","w","w","g","h",0,0.973471806384623,1,NA,1
"experimental",2,25,"ld","lower","brongs","nw","nw","h","h",1,0.661525248782709,1,NA,1
"experimental",2,26,"ld","lower","mabit","nw","nw","h","h",1,0.634275699267164,1,NA,1
"experimental",2,27,"ld","lower","mineluyer","nw","nw","h","h",1,0.551853327080607,1,NA,1
"experimental",2,28,"ld","lower","army","w","w","g","g",1,0.935409905156121,1,NA,1
"experimental",2,29,"ld","lower","harder","w","w","g","g",1,0.632822641637176,1,NA,1
"experimental",2,30,"ld","lower","guivers","nw","nw","h","h",1,0.654944608919322,1,NA,1
"experimental",3,1,"ld","lower","setwixt","nw","nw","h","h",1,0.610760928364471,1,NA,1
"experimental",3,2,"ld","lower","stalemate","w","w","g","g",1,0.513432548148558,1,NA,1
"experimental",3,3,"ld","lower","scatter","w","w","g","g",1,0.516393951838836,1,NA,1
"experimental",3,4,"ld","lower","awful","w","w","g","g",1,0.566822900436819,1,NA,1
"experimental",3,5,"ld","lower","frunted","nw","nw","h","h",1,0.607274781679735,1,NA,1
"experimental",3,6,"ld","lower","unburnid","nw","nw","h","h",1,0.950005040504038,1,NA,1
"experimental",3,7,"ld","lower","arrow","w","w","g","g",1,0.511219027452171,1,NA,1
"experimental",3,8,"ld","lower","serving","w","w","g","g",1,0.498288171133026,1,NA,1
"experimental",3,9,"ld","lower","bentler","nw","nw","h","h",1,0.701330553973094,1,NA,1
"experimental",3,10,"ld","lower","sorping","nw","nw","h","h",1,0.592767048394307,1,NA,1
"experimental",3,11,"ld","lower","rearrange","w","w","g","g",1,0.696220849640667,1,NA,1
"experimental",3,12,"ld","lower","snays","nw","nw","h","h",1,0.610635453602299,1,NA,1
"experimental",3,13,"ld","lower","regards","w","w","g","g",1,0.545425640884787,1,NA,1
"experimental",3,14,"ld","lower","gensions","nw","nw","h","h",1,0.55466674361378,1,NA,1
"experimental",3,15,"ld","lower","abraid","nw","nw","h","h",1,0.531408219365403,1,NA,1
"experimental",3,16,"ld","lower","dealer","w","w","g","g",1,0.517578182509169,1,NA,1
"experimental",3,17,"ld","lower","nameplate","w","w","g","g",1,0.551440154202282,1,NA,1
"experimental",3,18,"ld","lower","planofoad","nw","nw","h","h",1,0.536145141115412,1,NA,1
"experimental",3,19,"ld","lower","butler","w","w","g","g",1,0.521486109821126,1,NA,1
"experimental",3,20,"ld","lower","huffle","nw","nw","h","h",1,0.771524927578866,1,NA,1
"experimental",3,21,"ld","lower","committed","w","w","g","g",1,0.611647197511047,1,NA,1
"experimental",3,22,"ld","lower","undue","w","w","g","g",1,0.642337868455797,1,NA,1
"experimental",3,23,"ld","lower","painter","w","w","g","g",1,0.518794195493683,1,NA,1
"experimental",3,24,"ld","lower","dominion","w","w","g","g",1,0.632508788956329,1,NA,1
"experimental",3,25,"ld","lower","atch","nw","nw","h","g",0,0.558986850548536,1,NA,1
"experimental",3,26,"ld","lower","poyride","nw","nw","h","h",1,0.639527763007209,1,NA,1
"experimental",3,27,"ld","lower","bulmed","nw","nw","h","h",1,0.652964490931481,1,NA,1
"experimental",3,28,"ld","lower","fabstand","nw","nw","h","h",1,0.601524791680276,1,NA,1
"experimental",3,29,"ld","lower","brother","w","w","g","g",1,0.536222611088306,1,NA,1
"experimental",3,30,"ld","lower","pamine","nw","nw","h","h",1,0.713532398454845,1,NA,1
"experimental",4,1,"ld","lower","function","w","w","g","g",1,0.507874577771872,1,NA,1
"experimental",4,2,"ld","lower","slending","nw","nw","h","h",1,0.638340221717954,1,NA,1
"experimental",4,3,"ld","lower","heaviest","w","w","g","g",1,0.675990274176002,1,NA,1
"experimental",4,4,"ld","lower","condensed","w","w","g","h",0,0.736017216462642,1,NA,1
"experimental",4,5,"ld","lower","nauling","nw","nw","h","h",1,0.585325962863863,1,NA,1
"experimental",4,6,"ld","lower","sefraud","nw","nw","h","h",1,0.52086138445884,1,NA,1
"experimental",4,7,"ld","lower","shimble","nw","nw","h","h",1,0.754028311930597,1,NA,1
"experimental",4,8,"ld","lower","thesis","w","w","g","g",1,0.578843319322914,1,NA,1
"experimental",4,9,"ld","lower","analysis","w","w","g","g",1,0.602662010584027,1,NA,1
"experimental",4,10,"ld","lower","handbook","w","w","g","h",0,0.713435395620763,1,NA,1
"experimental",4,11,"ld","lower","chrayed","nw","nw","h","h",1,0.580102702137083,1,NA,1
"experimental",4,12,"ld","lower","emotion","w","w","g","g",1,0.56413628323935,1,NA,1
"experimental",4,13,"ld","lower","spider","target","target","q","g",0,0.484812708105892,1,NA,1
"experimental",4,14,"ld","lower","boutique","aftertar1","w","g","q",0,0.216348959831521,1,NA,1
"experimental",4,15,"ld","lower","plapping","aftertar2","nw","h","h",1,0.623137245420367,1,NA,1
"experimental",4,16,"ld","lower","oalis","aftertar3","nw","h","h",1,0.773217016365379,1,NA,1
"experimental",4,17,"ld","lower","stagger","nw","w","g","g",1,0.644938739016652,1,NA,1
"experimental",4,18,"ld","lower","loached","w","nw","h","h",1,0.905389316147193,1,NA,1
"experimental",4,19,"ld","lower","sonnet","nw","w","g","g",1,0.708260801853612,1,NA,1
"experimental",4,20,"ld","lower","nores","w","nw","h","h",1,0.566710668383166,1,NA,1
"experimental",4,21,"ld","lower","desert","nw","w","g","g",1,0.615364429773763,1,NA,1
"experimental",4,22,"ld","lower","racile","w","nw","h","h",1,0.766373839695007,1,NA,1
"experimental",4,23,"ld","lower","omners","nw","nw","h","h",1,0.742659103823826,1,NA,1
"experimental",4,24,"ld","lower","fragment","nw","w","g","g",1,0.623905654530972,1,NA,1
"experimental",4,25,"ld","lower","fallacy","w","w","g","g",1,0.653944121208042,1,NA,1
"experimental",4,26,"ld","lower","stuggard","w","nw","h","h",1,1.1777437760029,1,NA,1
"experimental",4,27,"ld","lower","slowning","nw","nw","h","h",1,0.833625017898157,1,NA,1
"experimental",4,28,"ld","lower","overwork","nw","w","g","g",1,0.574572210200131,1,NA,1
"experimental",4,29,"ld","lower","mebase","w","nw","h","h",1,0.591329551069066,1,NA,1
"experimental",4,30,"ld","lower","puyer","nw","nw","h","h",1,0.559027571929619,1,NA,1
"experimental",5,1,"ld","lower","gigglod","nw","nw","h","h",1,0.543661379255354,1,NA,1
"experimental",5,2,"ld","lower","wrestle","w","w","g","g",1,0.600070741027594,1,NA,1
"experimental",5,3,"ld","lower","rivet","w","w","g","g",1,1.16746212658472,1,NA,1
"experimental",5,4,"ld","lower","lifetime","w","w","g","g",1,0.575322410557419,1,NA,1
"experimental",5,5,"ld","lower","fidelity","w","w","g","g",1,0.599442042643204,1,NA,1
"experimental",5,6,"ld","lower","spiud","nw","nw","h","h",1,0.678667952539399,1,NA,1
"experimental",5,7,"ld","lower","pakened","nw","nw","h","h",1,0.73079825961031,1,NA,1
"experimental",5,8,"ld","lower","rualify","nw","nw","h","h",1,0.668725316645578,1,NA,1
"experimental",5,9,"ld","lower","target","w","w","g","g",1,0.712721281684935,1,NA,1
"experimental",5,10,"ld","lower","solidity","w","w","g","g",1,0.971389719285071,1,NA,1
"experimental",5,11,"ld","lower","chone","nw","nw","h","h",1,0.514454224379733,1,NA,1
"experimental",5,12,"ld","lower","unrealon","nw","nw","h","h",1,0.67700963281095,1,NA,1
"experimental",5,13,"ld","lower","virulent","w","w","g","g",1,1.31303043314256,1,NA,1
"experimental",5,14,"ld","lower","micron","w","w","g","h",0,0.699645748827606,1,NA,1
"experimental",5,15,"ld","lower","showdown","w","w","g","g",1,0.638970244210213,1,NA,1
"experimental",5,16,"ld","lower","ebince","nw","nw","h","h",1,0.540383474435657,1,NA,1
"experimental",5,17,"ld","lower","record","w","w","g","g",1,0.541587568819523,1,NA,1
"experimental",5,18,"ld","lower","describe","w","w","g","g",1,0.894950409419835,1,NA,1
"experimental",5,19,"ld","lower","lawsuit","w","w","g","g",1,0.872579478658736,1,NA,1
"experimental",5,20,"ld","lower","oppose","w","w","g","g",1,1.09340716851875,1,NA,1
"experimental",5,21,"ld","lower","kilotin","nw","nw","h","h",1,0.632932225009426,1,NA,1
"experimental",5,22,"ld","lower","eightiech","nw","nw","h","h",1,0.814608799992129,1,NA,1
"experimental",5,23,"ld","lower","ezulated","nw","nw","h","h",1,0.706441913731396,1,NA,1
"experimental",5,24,"ld","lower","guffy","nw","nw","h","h",1,0.640108125284314,1,NA,1
"experimental",5,25,"ld","lower","gelented","nw","nw","h","g",0,1.3893949217163,1,NA,1
"experimental",5,26,"ld","lower","fraft","nw","nw","h","h",1,0.620694294339046,1,NA,1
"experimental",5,27,"ld","lower","persona","w","w","g","g",1,0.650290785124525,1,NA,1
"experimental",5,28,"ld","lower","misobeyed","nw","nw","h","g",0,0.670519705396146,1,NA,1
"experimental",5,29,"ld","lower","gigoho","nw","nw","h","h",1,0.546443344093859,1,NA,1
"experimental",5,30,"ld","lower","sunshine","w","w","g","g",1,0.547672599786893,1,NA,1
"experimental",6,1,"hd","upper","facienda","nw","nw","h","h",1,0.620590670034289,1,NA,1
"experimental",6,2,"hd","upper","chappef","nw","nw","h","h",1,0.547025692882016,1,NA,1
"experimental",6,3,"hd","upper","purpose","w","w","g","g",1,0.596529305912554,1,NA,1
"experimental",6,4,"hd","upper","pastnoss","nw","nw","h","h",1,0.515675865579396,1,NA,1
"experimental",6,5,"hd","upper","assent","w","w","g","h",0,0.55743579682894,1,NA,1
"experimental",6,6,"hd","upper","prame","nw","nw","h","h",1,0.510053667705506,1,NA,1
"experimental",6,7,"hd","upper","pregs","nw","nw","h","h",1,0.392807571450248,1,NA,1
"experimental",6,8,"hd","upper","image","w","w","g","g",1,0.472239405615255,1,NA,1
"experimental",6,9,"hd","upper","guitar","w","w","g","g",1,0.428139816271141,1,NA,1
"experimental",6,10,"hd","upper","column","w","w","g","g",1,0.490182301029563,1,NA,1
"experimental",6,11,"hd","upper","humanize","w","w","g","g",1,0.484153551515192,1,NA,1
"experimental",6,12,"hd","upper","thorifies","nw","nw","h","h",1,0.577416084939614,1,NA,1
"experimental",6,13,"hd","upper","hangar","w","w","g","h",0,0.57769947918132,1,NA,1
"experimental",6,14,"hd","upper","prawls","nw","nw","h","g",0,0.62475782353431,1,NA,1
"experimental",6,15,"hd","upper","preclude","w","w","g","g",1,0.566795090679079,1,NA,1
"experimental",6,16,"hd","upper","egect","nw","nw","h","h",1,0.623321650316939,1,NA,1
"experimental",6,17,"hd","upper","brimitar","nw","nw","h","h",1,0.49351085931994,1,NA,1
"experimental",6,18,"hd","upper","ethical","w","w","g","g",1,0.552698543993756,1,NA,1
"experimental",6,19,"hd","upper","perishing","w","w","g","h",0,0.761335314949974,1,NA,1
"experimental",6,20,"hd","upper","iolize","nw","nw","h","h",1,0.634027729276568,1,NA,1
"experimental",6,21,"hd","upper","olerates","nw","nw","h","h",1,0.495418804232031,1,NA,1
"experimental",6,22,"hd","upper","wrecber","nw","nw","h","h",1,0.538716215640306,1,NA,1
"experimental",6,23,"hd","upper","brudent","nw","nw","h","h",1,0.636089952196926,1,NA,1
"experimental",6,24,"hd","upper","outrank","w","w","g","g",1,0.53649640432559,1,NA,1
"experimental",6,25,"hd","upper","ready","w","w","g","g",1,0.48172318120487,1,NA,1
"experimental",6,26,"hd","upper","flougy","nw","nw","h","h",1,0.669779437361285,1,NA,1
"experimental",6,27,"hd","upper","airbis","nw","nw","h","h",1,0.56988196936436,1,NA,1
"experimental",6,28,"hd","upper","issue","w","w","g","g",1,0.56988263153471,1,NA,1
"experimental",6,29,"hd","upper","fictional","w","w","g","g",1,0.561857541557401,1,NA,1
"experimental",6,30,"hd","upper","entitle","w","w","g","g",1,0.610674188705161,1,NA,1
"experimental",7,1,"hd","upper","previous","w","w","g","g",1,0.648297424660996,1,NA,1
"experimental",7,2,"hd","upper","absent","w","w","g","g",1,0.501653808867559,1,NA,1
"experimental",7,3,"hd","upper","alchemist","w","w","g","g",1,0.472478767856956,1,NA,1
"experimental",7,4,"hd","upper","arrigns","nw","nw","h","h",1,0.628572058631107,1,NA,1
"experimental",7,5,"hd","upper","adok","nw","nw","h","h",1,0.498410004191101,1,NA,1
"experimental",7,6,"hd","upper","lignpost","nw","nw","h","h",1,0.933885667938739,1,NA,1
"experimental",7,7,"hd","upper","slutches","nw","nw","h","h",1,0.60782534792088,1,NA,1
"experimental",7,8,"hd","upper","podes","nw","nw","h","h",1,0.502523855771869,1,NA,1
"experimental",7,9,"hd","upper","finish","w","w","g","g",1,0.505289267282933,1,NA,1
"experimental",7,10,"hd","upper","cobalt","w","w","g","h",0,0.554772685281932,1,NA,1
"experimental",7,11,"hd","upper","threaded","w","w","g","g",1,0.667962204897776,1,NA,1
"experimental",7,12,"hd","upper","exit","w","w","g","g",1,0.487679426325485,1,NA,1
"experimental",7,13,"hd","upper","sullen","w","w","g","g",1,0.531172499060631,1,NA,1
"experimental",7,14,"hd","upper","culer","nw","nw","h","h",1,0.565113596152514,1,NA,1
"experimental",7,15,"hd","upper","contusiok","nw","nw","h","h",1,0.645775348180905,1,NA,1
"experimental",7,16,"hd","upper","ausht","nw","nw","h","h",1,0.53128009615466,1,NA,1
"experimental",7,17,"hd","upper","loneliest","w","w","g","g",1,0.509181303437799,1,NA,1
"experimental",7,18,"hd","upper","amplifier","w","w","g","g",1,0.560133008286357,1,NA,1
"experimental",7,19,"hd","upper","ludictous","nw","nw","h","h",1,1.69580635265447,1,NA,1
"experimental",7,20,"hd","upper","chraps","nw","nw","h","h",1,1.52304808888584,1,NA,1
"experimental",7,21,"hd","upper","schides","nw","nw","h","h",1,0.829031779663637,1,NA,1
"experimental",7,22,"hd","upper","surface","w","w","g","g",1,0.571160885039717,1,NA,1
"experimental",7,23,"hd","upper","frader","nw","nw","h","h",1,0.61073742271401,1,NA,1
"experimental",7,24,"hd","upper","crocodile","target","target","q","g",0,0.505915979156271,1,NA,1
"experimental",7,25,"hd","upper","undertake","aftertar1","w","g","g",1,0.692240418633446,1,NA,1
"experimental",7,26,"hd","upper","moral","aftertar2","w","g","g",1,0.575933893444017,1,NA,1
"experimental",7,27,"hd","upper","bureaug","aftertar3","nw","h","h",1,0.575028090970591,1,NA,1
"experimental",7,28,"hd","upper","ignoble","nw","w","g","h",0,0.966943806270137,1,NA,1
"experimental",7,29,"hd","upper","tipoff","w","w","g","h",0,0.823598290793598,1,NA,1
"experimental",7,30,"hd","upper","donastic","w","nw","h","h",1,0.677358909277245,1,NA,1
"experimental",8,1,"hd","upper","listless","w","w","g","g",1,0.953933493932709,1,NA,1
"experimental",8,2,"hd","upper","triangle","w","w","g","g",1,0.714602079242468,1,NA,1
"experimental",8,3,"hd","upper","cayward","nw","nw","h","h",1,4.4444670996163,1,NA,1
"experimental",8,4,"hd","upper","deserve","w","w","g","g",1,0.873747486621141,1,NA,1
"experimental",8,5,"hd","upper","reddar","nw","nw","h","h",1,2.46162668778561,1,NA,1
"experimental",8,6,"hd","upper","kickoff","w","w","g","g",1,0.962394931353629,1,NA,1
"experimental",8,7,"hd","upper","hardest","w","w","g","g",1,2.44236812810414,1,NA,1
"experimental",8,8,"hd","upper","dileting","nw","nw","h","h",1,2.19895100244321,1,NA,1
"experimental",8,9,"hd","upper","border","w","w","g","g",1,0.710432939231396,1,NA,1
"experimental",8,10,"hd","upper","scrobby","nw","nw","h","h",1,0.600328311789781,1,NA,1
"experimental",8,11,"hd","upper","ottans","nw","nw","h","h",1,0.558968641795218,1,NA,1
"experimental",8,12,"hd","upper","argue","w","w","g","g",1,0.870989027665928,1,NA,1
"experimental",8,13,"hd","upper","venturous","w","w","g","g",1,0.658343684626743,1,NA,1
"experimental",8,14,"hd","upper","pillage","w","w","g","g",1,0.566289549693465,1,NA,1
"experimental",8,15,"hd","upper","crawfish","w","w","g","q",0,0.541517382487655,1,NA,1
"experimental",8,16,"hd","upper","hangar","w","w","g","g",1,0.710034995572641,1,NA,1
"experimental",8,17,"hd","upper","joadbed","nw","nw","h","h",1,0.664286356186494,1,NA,1
"experimental",8,18,"hd","upper","uncarled","nw","nw","h","h",1,0.700666431570426,1,NA,1
"experimental",8,19,"hd","upper","hodels","nw","nw","h","h",1,0.647332692286,1,NA,1
"experimental",8,20,"hd","upper","latpin","nw","nw","h","h",1,0.52396150585264,1,NA,1
"experimental",8,21,"hd","upper","egpended","nw","nw","h","h",1,0.629391783149913,1,NA,1
"experimental",8,22,"hd","upper","dorte","nw","nw","h","h",1,0.618736357893795,1,NA,1
"experimental",8,23,"hd","upper","mitten","w","w","g","g",1,0.584755863761529,1,NA,1
"experimental",8,24,"hd","upper","cegalia","nw","nw","h","h",1,0.544207972474396,1,NA,1
"experimental",8,25,"hd","upper","quickel","nw","nw","h","h",1,0.57656358461827,1,NA,1
"experimental",8,26,"hd","upper","lentils","w","w","g","g",1,0.575938859255984,1,NA,1
"experimental",8,27,"hd","upper","slooping","nw","nw","h","h",1,0.767230312805623,1,NA,1
"experimental",8,28,"hd","upper","squirrel","target","target","q","g",0,0.823269540444016,1,NA,1
"experimental",8,29,"hd","upper","correct","aftertar1","w","g","g",1,1.60428126435727,1,NA,1
"experimental",8,30,"hd","upper","rudder","aftertar2","w","g","g",1,1.39400305808522,1,NA,1
"experimental",9,1,"hd","upper","uncle","w","w","g","g",1,0.696526425657794,1,NA,1
"experimental",9,2,"hd","upper","tiery","nw","nw","h","h",1,0.675259275827557,1,NA,1
"experimental",9,3,"hd","upper","coverall","w","w","g","h",0,0.630595215596259,1,NA,1
"experimental",9,4,"hd","upper","exploit","w","w","g","g",1,0.595915505895391,1,NA,1
"experimental",9,5,"hd","upper","potatoes","w","w","g","g",1,0.458571591880172,1,NA,1
"experimental",9,6,"hd","upper","frogmy","nw","nw","h","h",1,0.558639560127631,1,NA,1
"experimental",9,7,"hd","upper","staircase","w","w","g","g",1,0.52661468507722,1,NA,1
"experimental",9,8,"hd","upper","insole","w","w","g","h",0,0.592010558117181,1,NA,1
"experimental",9,9,"hd","upper","blueberry","w","w","g","g",1,0.509341209195554,1,NA,1
"experimental",9,10,"hd","upper","iguana","w","w","g","q",0,0.66221420140937,1,NA,1
"experimental",9,11,"hd","upper","earmaff","nw","nw","h","h",1,0.555501697119325,1,NA,1
"experimental",9,12,"hd","upper","doxing","nw","nw","h","h",1,0.923604018287733,1,NA,1
"experimental",9,13,"hd","upper","grested","nw","nw","h","h",1,0.58122071903199,1,NA,1
"experimental",9,14,"hd","upper","hostade","nw","nw","h","h",1,0.55634227884002,1,NA,1
"experimental",9,15,"hd","upper","coupling","w","w","g","g",1,0.756317316321656,1,NA,1
"experimental",9,16,"hd","upper","shillac","nw","nw","h","h",1,0.604330924572423,1,NA,1
"experimental",9,17,"hd","upper","begut","nw","nw","h","h",1,0.554359181318432,1,NA,1
"experimental",9,18,"hd","upper","module","w","w","g","g",1,0.593533139908686,1,NA,1
"experimental",9,19,"hd","upper","oldest","w","w","g","g",1,0.552164862165228,1,NA,1
"experimental",9,20,"hd","upper","alticles","nw","nw","h","h",1,0.688800952630118,1,NA,1
"experimental",9,21,"hd","upper","oppose","w","w","g","g",1,0.587603379972279,1,NA,1
"experimental",9,22,"hd","upper","manage","w","w","g","g",1,0.57886649412103,1,NA,1
"experimental",9,23,"hd","upper","veranpah","nw","nw","h","h",1,0.554324750322849,1,NA,1
"experimental",9,24,"hd","upper","jaguar","target","target","q","g",0,0.578365919180214,1,NA,1
"experimental",9,25,"hd","upper","irfirm","aftertar1","nw","h","q",0,0.273683656938374,1,NA,1
"experimental",9,26,"hd","upper","carony","aftertar2","nw","h","h",1,1.01302881073207,1,NA,1
"experimental",9,27,"hd","upper","resent","aftertar3","w","g","g",1,0.722898975946009,1,NA,1
"experimental",9,28,"hd","upper","omission","w","w","g","g",1,0.828239534050226,1,NA,1
"experimental",9,29,"hd","upper","nearsipe","w","nw","h","h",1,0.577591551002115,1,NA,1
"experimental",9,30,"hd","upper","legalosm","nw","nw","h","h",1,0.656823420198634,1,NA,1
"experimental",10,1,"ld","lower","browting","nw","nw","h","h",1,0.805686184903607,1,NA,1
"experimental",10,2,"ld","lower","senior","w","w","g","g",1,0.827002994948998,1,NA,1
"experimental",10,3,"ld","lower","felevance","nw","nw","h","h",1,0.680094855837524,1,NA,1
"experimental",10,4,"ld","lower","deakers","nw","nw","h","h",1,0.57961305254139,1,NA,1
"experimental",10,5,"ld","lower","caution","w","w","g","g",1,0.994698565918952,1,NA,1
"experimental",10,6,"ld","lower","tasher","nw","nw","h","h",1,0.62551067234017,1,NA,1
"experimental",10,7,"ld","lower","mortgage","w","w","g","g",1,0.662896863650531,1,NA,1
"experimental",10,8,"ld","lower","hecture","nw","nw","h","h",1,0.78695435426198,1,NA,1
"experimental",10,9,"ld","lower","student","w","w","g","g",1,0.497659141896293,1,NA,1
"experimental",10,10,"ld","lower","rational","w","w","g","g",1,0.580398346064612,1,NA,1
"experimental",10,11,"ld","lower","alber","nw","nw","h","h",1,0.595779105555266,1,NA,1
"experimental",10,12,"ld","lower","rainfall","w","w","g","g",1,0.546373488847166,1,NA,1
"experimental",10,13,"ld","lower","nogwhell","nw","nw","h","h",1,0.778089344967157,1,NA,1
"experimental",10,14,"ld","lower","migmarole","nw","nw","h","h",1,0.537405848270282,1,NA,1
"experimental",10,15,"ld","lower","antique","w","w","g","g",1,0.730150359449908,1,NA,1
"experimental",10,16,"ld","lower","edasion","nw","nw","h","h",1,0.531721740961075,1,NA,1
"experimental",10,17,"ld","lower","eaglot","nw","nw","h","h",1,0.884901169454679,1,NA,1
"experimental",10,18,"ld","lower","rejoiced","w","w","g","h",0,0.576284494251013,1,NA,1
"experimental",10,19,"ld","lower","noblin","nw","nw","h","h",1,0.735706674633548,1,NA,1
"experimental",10,20,"ld","lower","aicline","nw","nw","h","h",1,0.58519221143797,1,NA,1
"experimental",10,21,"ld","lower","fission","w","w","g","g",1,0.703076275996864,1,NA,1
"experimental",10,22,"ld","lower","dialogues","w","w","g","g",1,0.816751472419128,1,NA,1
"experimental",10,23,"ld","lower","perform","w","w","g","g",1,0.558503491338342,1,NA,1
"experimental",10,24,"ld","lower","acorn","w","w","g","g",1,0.718898349441588,1,NA,1
"experimental",10,25,"ld","lower","sonkers","nw","nw","h","h",1,0.545326320454478,1,NA,1
"experimental",10,26,"ld","lower","affluent","w","w","g","g",1,0.665999633492902,1,NA,1
"experimental",10,27,"ld","lower","ilcurring","nw","nw","h","h",1,0.653512077638879,1,NA,1
"experimental",10,28,"ld","lower","throttle","w","w","g","h",0,0.641020548762754,1,NA,1
"experimental",10,29,"ld","lower","obviously","w","w","g","g",1,0.710023076971993,1,NA,1
"experimental",10,30,"ld","lower","pypecast","nw","nw","h","h",1,0.70409795222804,1,NA,1
"experimental",11,1,"hd","upper","potent","w","w","g","g",1,0.578702284255996,1,NA,1
"experimental",11,2,"hd","upper","saturate","w","w","g","g",1,0.7218435308896,1,NA,1
"experimental",11,3,"hd","upper","minister","w","w","g","g",1,0.611256206175312,1,NA,1
"experimental",11,4,"hd","upper","clypaper","nw","nw","h","h",1,0.633369234856218,1,NA,1
"experimental",11,5,"hd","upper","party","w","w","g","g",1,0.590307543985546,1,NA,1
"experimental",11,6,"hd","upper","fracture","w","w","g","g",1,0.581107493722811,1,NA,1
"experimental",11,7,"hd","upper","earnest","w","w","g","g",1,0.643310215324163,1,NA,1
"experimental",11,8,"hd","upper","moyeur","nw","nw","h","h",1,0.671941311797127,1,NA,1
"experimental",11,9,"hd","upper","apticle","nw","nw","h","h",1,0.579353164182976,1,NA,1
"experimental",11,10,"hd","upper","postal","w","w","g","g",1,0.91442747390829,1,NA,1
"experimental",11,11,"hd","upper","traze","nw","nw","h","h",1,0.652024919865653,1,NA,1
"experimental",11,12,"hd","upper","elephant","target","target","q","g",0,0.576658932259306,1,NA,1
"experimental",11,13,"hd","upper","peems","aftertar1","nw","h","q",0,0.19197506760247,1,NA,1
"experimental",11,14,"hd","upper","vergas","aftertar2","nw","h","h",1,0.670643856050447,1,NA,1
"experimental",11,15,"hd","upper","sliding","aftertar3","w","g","g",1,0.681934932013974,1,NA,1
"experimental",11,16,"hd","upper","ergonomic","w","w","g","h",0,0.716428250772879,1,NA,1
"experimental",11,17,"hd","upper","typical","w","w","g","g",1,1.50177729735151,1,NA,1
"experimental",11,18,"hd","upper","walsams","w","nw","h","h",1,0.815592734375969,1,NA,1
"experimental",11,19,"hd","upper","serfume","nw","nw","h","h",1,0.710831545293331,1,NA,1
"experimental",11,20,"hd","upper","flacked","nw","nw","h","h",1,0.761015172116458,1,NA,1
"experimental",11,21,"hd","upper","dehydrate","nw","w","g","g",1,0.601110956631601,1,NA,1
"experimental",11,22,"hd","upper","gradielts","w","nw","h","h",1,1.43205866892822,1,NA,1
"experimental",11,23,"hd","upper","ahead","nw","w","g","g",1,0.684524546610191,1,NA,1
"experimental",11,24,"hd","upper","mamps","w","nw","h","h",1,0.711744961794466,1,NA,1
"experimental",11,25,"hd","upper","companion","nw","w","g","g",1,0.625609330600128,1,NA,1
"experimental",11,26,"hd","upper","otiates","w","nw","h","h",1,0.55120443366468,1,NA,1
"experimental",11,27,"hd","upper","command","nw","w","g","g",1,0.58377888193354,1,NA,1
"experimental",11,28,"hd","upper","vorm","w","nw","h","h",1,0.607134077930823,1,NA,1
"experimental",11,29,"hd","upper","defensa","nw","nw","h","h",1,0.733176321489736,1,NA,1
"experimental",11,30,"hd","upper","entertain","nw","w","g","g",1,0.534737770911306,1,NA,1
"experimental",12,1,"ld","lower","educate","w","w","g","g",1,0.558974270010367,1,NA,1
"experimental",12,2,"ld","lower","rawhide","w","w","g","h",0,0.623009122209623,1,NA,1
"experimental",12,3,"ld","lower","rocket","w","w","g","g",1,0.644412340829149,1,NA,1
"experimental",12,4,"ld","lower","minimum","w","w","g","g",1,0.881015423685312,1,NA,1
"experimental",12,5,"ld","lower","bengths","nw","nw","h","h",1,0.844536358956248,1,NA,1
"experimental",12,6,"ld","lower","athcan","nw","nw","h","h",1,0.744891826761886,1,NA,1
"experimental",12,7,"ld","lower","provide","w","w","g","g",1,0.529821741394699,1,NA,1
"experimental",12,8,"ld","lower","snife","nw","nw","h","h",1,0.570337187731639,1,NA,1
"experimental",12,9,"ld","lower","matter","w","w","g","g",1,0.497981602326035,1,NA,1
"experimental",12,10,"ld","lower","pressing","w","w","g","g",1,0.525010329205543,1,NA,1
"experimental",12,11,"ld","lower","partner","w","w","g","g",1,0.470281800022349,1,NA,1
"experimental",12,12,"ld","lower","gablus","nw","nw","h","h",1,0.52155795157887,1,NA,1
"experimental",12,13,"ld","lower","plymie","nw","nw","h","h",1,0.530947372782975,1,NA,1
"experimental",12,14,"ld","lower","smallash","nw","nw","h","h",1,0.524374347412959,1,NA,1
"experimental",12,15,"ld","lower","funtair","nw","nw","h","h",1,0.47778909932822,1,NA,1
"experimental",12,16,"ld","lower","professor","w","w","g","g",1,0.569282073993236,1,NA,1
"experimental",12,17,"ld","lower","owner","w","w","g","g",1,0.513329586014152,1,NA,1
"experimental",12,18,"ld","lower","single","w","w","g","g",1,0.491238076938316,1,NA,1
"experimental",12,19,"ld","lower","decant","w","w","g","g",1,0.748978199902922,1,NA,1
"experimental",12,20,"ld","lower","beggarlan","nw","nw","h","h",1,0.605635663960129,1,NA,1
"experimental",12,21,"ld","lower","handle","w","w","g","g",1,0.67562609934248,1,NA,1
"experimental",12,22,"ld","lower","glaims","nw","nw","h","h",1,0.622976677492261,1,NA,1
"experimental",12,23,"ld","lower","pranny","nw","nw","h","h",1,0.820379316341132,1,NA,1
"experimental",12,24,"ld","lower","rumblos","nw","nw","h","g",0,0.657753390260041,1,NA,1
"experimental",12,25,"ld","lower","vopings","nw","nw","h","h",1,0.877789496444166,1,NA,1
"experimental",12,26,"ld","lower","abstain","w","w","g","g",1,0.665212684776634,1,NA,1
"experimental",12,27,"ld","lower","zears","nw","nw","h","h",1,0.597316585713997,1,NA,1
"experimental",12,28,"ld","lower","thrapping","nw","nw","h","h",1,0.691063140518963,1,NA,1
"experimental",12,29,"ld","lower","gettle","nw","nw","h","h",1,0.65377428336069,1,NA,1
"experimental",12,30,"ld","lower","flicking","w","w","g","g",1,0.769635191187263,1,NA,1
"experimental",13,1,"ld","lower","upstairs","w","w","g","g",1,0.753651887644082,1,NA,1
"experimental",13,2,"ld","lower","antonym","w","w","g","g",1,0.785626440308988,1,NA,1
"experimental",13,3,"ld","lower","lenie","nw","nw","h","h",1,0.633022606605664,1,NA,1
"experimental",13,4,"ld","lower","gewer","nw","nw","h","h",1,0.565712829120457,1,NA,1
"experimental",13,5,"ld","lower","riosk","nw","nw","h","h",1,0.525459588505328,1,NA,1
"experimental",13,6,"ld","lower","trises","nw","nw","h","h",1,0.598883861908689,1,NA,1
"experimental",13,7,"ld","lower","admire","w","w","g","g",1,0.66164310881868,1,NA,1
"experimental",13,8,"ld","lower","mustled","nw","nw","h","h",1,1.25764605822042,1,NA,1
"experimental",13,9,"ld","lower","attrove","nw","nw","h","h",1,0.61377364769578,1,NA,1
"experimental",13,10,"ld","lower","ebciting","nw","nw","h","h",1,0.619847091147676,1,NA,1
"experimental",13,11,"ld","lower","criminal","w","w","g","g",1,0.617159811779857,1,NA,1
"experimental",13,12,"ld","lower","talate","nw","nw","h","h",1,0.572933423565701,1,NA,1
"experimental",13,13,"ld","lower","offonents","nw","nw","h","h",1,0.564358429750428,1,NA,1
"experimental",13,14,"ld","lower","emission","w","w","g","g",1,0.604321654886007,1,NA,1
"experimental",13,15,"ld","lower","sefine","nw","nw","h","h",1,0.530398130649701,1,NA,1
"experimental",13,16,"ld","lower","handed","w","w","g","g",1,0.635739682009444,1,NA,1
"experimental",13,17,"ld","lower","recollect","w","w","g","g",1,0.616451657144353,1,NA,1
"experimental",13,18,"ld","lower","buzzer","w","w","g","g",1,1.03052641963586,1,NA,1
"experimental",13,19,"ld","lower","alomalous","nw","nw","h","h",1,0.683814736548811,1,NA,1
"experimental",13,20,"ld","lower","leather","w","w","g","g",1,0.470469184685498,1,NA,1
"experimental",13,21,"ld","lower","volder","nw","nw","h","h",1,0.544903546571732,1,NA,1
"experimental",13,22,"ld","lower","achieve","w","w","g","g",1,0.561510913539678,1,NA,1
"experimental",13,23,"ld","lower","elvisages","nw","nw","h","h",1,0.881856005406007,1,NA,1
"experimental",13,24,"ld","lower","ounside","nw","nw","h","h",1,0.773539145709947,1,NA,1
"experimental",13,25,"ld","lower","bedding","w","w","g","g",1,0.620894259540364,1,NA,1
"experimental",13,26,"ld","lower","blanned","nw","nw","h","h",1,0.850326077081263,1,NA,1
"experimental",13,27,"ld","lower","uncorked","w","w","g","g",1,1.22325205989182,1,NA,1
"experimental",13,28,"ld","lower","inside","w","w","g","g",1,0.668627651641145,1,NA,1
"experimental",13,29,"ld","lower","summon","w","w","g","g",1,0.585049521178007,1,NA,1
"experimental",13,30,"ld","lower","shivering","w","w","g","g",1,0.583715316839516,1,NA,1
"experimental",14,1,"ld","lower","infusion","w","w","g","g",1,0.503808730980381,1,NA,1
"experimental",14,2,"ld","lower","erithets","nw","nw","h","h",1,0.801784216891974,1,NA,1
"experimental",14,3,"ld","lower","triplet","w","w","g","g",1,0.631697341334075,1,NA,1
"experimental",14,4,"ld","lower","brials","nw","nw","h","h",1,0.708866987377405,1,NA,1
"experimental",14,5,"ld","lower","stable","w","w","g","g",1,0.687012853799388,1,NA,1
"experimental",14,6,"ld","lower","corduroy","w","w","g","g",1,1.53681720932946,1,NA,1
"experimental",14,7,"ld","lower","dontrite","nw","nw","h","h",1,0.793475401820615,1,NA,1
"experimental",14,8,"ld","lower","ciping","nw","nw","h","h",1,1.04074384202249,1,NA,1
"experimental",14,9,"ld","lower","pived","nw","nw","h","h",1,0.773677863180637,1,NA,1
"experimental",14,10,"ld","lower","railroad","w","w","g","g",1,0.644844384863973,1,NA,1
"experimental",14,11,"ld","lower","chrik","nw","nw","h","h",1,0.761514091631398,1,NA,1
"experimental",14,12,"ld","lower","smolvers","nw","nw","h","h",1,0.76185111887753,1,NA,1
"experimental",14,13,"ld","lower","rebool","nw","nw","h","h",1,0.616916807834059,1,NA,1
"experimental",14,14,"ld","lower","lightels","nw","nw","h","g",0,0.566886796616018,1,NA,1
"experimental",14,15,"ld","lower","revising","w","w","g","g",1,0.838634077692404,1,NA,1
"experimental",14,16,"ld","lower","confined","w","w","g","g",1,0.715241040801629,1,NA,1
"experimental",14,17,"ld","lower","overcoat","w","w","g","g",1,0.669422877253965,1,NA,1
"experimental",14,18,"ld","lower","eggays","nw","nw","h","h",1,0.952805214095861,1,NA,1
"experimental",14,19,"ld","lower","embrace","w","w","g","g",1,0.94502312829718,1,NA,1
"experimental",14,20,"ld","lower","gorilla","target","target","q","g",0,0.593643385684118,1,NA,1
"experimental",14,21,"ld","lower","peanimate","aftertar1","nw","h","q",0,0.176186431897804,1,NA,1
"experimental",14,22,"ld","lower","fuhrek","aftertar2","nw","h","h",1,0.584069559816271,1,NA,1
"experimental",14,23,"ld","lower","twenties","aftertar3","w","g","g",1,0.870509641245008,1,NA,1
"experimental",14,24,"ld","lower","restock","w","w","g","g",1,1.0338748418726,1,NA,1
"experimental",14,25,"ld","lower","measure","w","w","g","g",1,0.614460282959044,1,NA,1
"experimental",14,26,"ld","lower","passet","w","nw","h","h",1,0.604605380212888,1,NA,1
"experimental",14,27,"ld","lower","expected","nw","w","g","g",1,1.17055893712677,1,NA,1
"experimental",14,28,"ld","lower","icepick","w","w","g","g",1,1.05796798877418,1,NA,1
"experimental",14,29,"ld","lower","grieving","w","w","g","g",1,0.989989122841507,1,NA,1
"experimental",14,30,"ld","lower","pexts","w","nw","h","h",1,0.668681284645572,1,NA,1
"experimental",15,1,"ld","lower","sporidic","nw","nw","h","h",1,0.591774506727234,1,NA,1
"experimental",15,2,"ld","lower","terrify","w","w","g","g",1,0.998601858038455,1,NA,1
"experimental",15,3,"ld","lower","sunhess","nw","nw","h","h",1,0.637500301934779,1,NA,1
"experimental",15,4,"ld","lower","probable","w","w","g","g",1,1.66596785094589,1,NA,1
"experimental",15,5,"ld","lower","sampling","w","w","g","g",1,2.40503292134963,1,NA,1
"experimental",15,6,"ld","lower","illness","w","w","g","g",1,1.27503507677466,1,NA,1
"experimental",15,7,"ld","lower","audience","w","w","g","g",1,0.622400619089603,1,NA,1
"experimental",15,8,"ld","lower","blipover","nw","nw","h","h",1,0.715776708908379,1,NA,1
"experimental",15,9,"ld","lower","rander","nw","nw","h","h",1,0.71581544377841,1,NA,1
"experimental",15,10,"ld","lower","series","w","w","g","h",0,1.83250435255468,1,NA,1
"experimental",15,11,"ld","lower","theles","nw","nw","h","h",1,0.565973379649222,1,NA,1
"experimental",15,12,"ld","lower","recount","w","w","g","g",1,0.541918636998162,1,NA,1
"experimental",15,13,"ld","lower","patio","w","w","g","g",1,0.550147995585576,1,NA,1
"experimental",15,14,"ld","lower","glating","nw","nw","h","h",1,0.709756567142904,1,NA,1
"experimental",15,15,"ld","lower","graciap","nw","nw","h","h",1,0.472231790889055,1,NA,1
"experimental",15,16,"ld","lower","houted","nw","nw","h","h",1,0.635534750996158,1,NA,1
"experimental",15,17,"ld","lower","strenuous","w","w","g","g",1,0.816329360706732,1,NA,1
"experimental",15,18,"ld","lower","rarren","nw","nw","h","h",1,0.542315918486565,1,NA,1
"experimental",15,19,"ld","lower","cervical","w","w","g","h",0,0.495285052806139,1,NA,1
"experimental",15,20,"ld","lower","tucker","w","w","g","h",0,0.74636673508212,1,NA,1
"experimental",15,21,"ld","lower","parlayid","nw","nw","h","h",1,0.651062504854053,1,NA,1
"experimental",15,22,"ld","lower","defeat","w","w","g","g",1,0.710267074173316,1,NA,1
"experimental",15,23,"ld","lower","carbled","nw","nw","h","h",1,0.74420883343555,1,NA,1
"experimental",15,24,"ld","lower","nomma","nw","nw","h","h",1,0.93707583961077,1,NA,1
"experimental",15,25,"ld","lower","combat","w","w","g","g",1,0.625505044357851,1,NA,1
"experimental",15,26,"ld","lower","iflaid","nw","nw","h","h",1,0.630984551738948,1,NA,1
"experimental",15,27,"ld","lower","inducing","w","w","g","g",1,0.660415508551523,1,NA,1
"experimental",15,28,"ld","lower","tiger","w","w","g","g",1,0.528303132159635,1,NA,1
"experimental",15,29,"ld","lower","geadpan","nw","nw","h","q",0,0.521481474861503,1,NA,1
"experimental",15,30,"ld","lower","fuestion","nw","nw","h","h",1,0.674948402913287,1,NA,1
"experimental",16,1,"hd","upper","contact","w","w","g","g",1,0.669288794742897,1,NA,1
"experimental",16,2,"hd","upper","larger","w","w","g","g",1,0.537274083355442,1,NA,1
"experimental",16,3,"hd","upper","airline","w","w","g","g",1,0.594181040301919,1,NA,1
"experimental",16,4,"hd","upper","extruded","w","w","g","g",1,1.2407129202038,1,NA,1
"experimental",16,5,"hd","upper","pallir","nw","nw","h","h",1,0.493438355391845,1,NA,1
"experimental",16,6,"hd","upper","sequence","w","w","g","g",1,0.880136106861755,1,NA,1
"experimental",16,7,"hd","upper","lindo","nw","nw","h","h",1,0.882733998121694,1,NA,1
"experimental",16,8,"hd","upper","fisco","nw","nw","h","h",1,0.653989477548748,1,NA,1
"experimental",16,9,"hd","upper","bellicove","nw","nw","h","h",1,0.498165345052257,1,NA,1
"experimental",16,10,"hd","upper","fravity","nw","nw","h","h",1,0.548680701991543,1,NA,1
"experimental",16,11,"hd","upper","scrooner","nw","nw","h","h",1,0.533343974500895,1,NA,1
"experimental",16,12,"hd","upper","gounts","nw","nw","h","h",1,0.414671305567026,1,NA,1
"experimental",16,13,"hd","upper","relaying","w","w","g","g",1,1.028720774455,1,NA,1
"experimental",16,14,"hd","upper","blerapies","nw","nw","h","h",1,0.65799010405317,1,NA,1
"experimental",16,15,"hd","upper","atble","nw","nw","h","h",1,0.702147298958153,1,NA,1
"experimental",16,16,"hd","upper","hubris","w","w","g","g",1,0.704190320102498,1,NA,1
"experimental",16,17,"hd","upper","ubefully","nw","nw","h","h",1,0.633314939681441,1,NA,1
"experimental",16,18,"hd","upper","happen","w","w","g","g",1,0.654585730982944,1,NA,1
"experimental",16,19,"hd","upper","implode","w","w","g","g",1,0.609985236078501,1,NA,1
"experimental",16,20,"hd","upper","epic","w","w","g","g",1,0.480403212830424,1,NA,1
"experimental",16,21,"hd","upper","pretzel","w","w","g","g",1,0.570922516053542,1,NA,1
"experimental",16,22,"hd","upper","apology","w","w","g","g",1,0.555779132060707,1,NA,1
"experimental",16,23,"hd","upper","wienegs","nw","nw","h","h",1,0.563938304316252,1,NA,1
"experimental",16,24,"hd","upper","classify","w","w","g","g",1,0.555927781620994,1,NA,1
"experimental",16,25,"hd","upper","ireology","nw","nw","h","h",1,0.635953221004456,1,NA,1
"experimental",16,26,"hd","upper","lancos","nw","nw","h","h",1,0.743673827499151,1,NA,1
"experimental",16,27,"hd","upper","ganter","nw","nw","h","h",1,0.512145355576649,1,NA,1
"experimental",16,28,"hd","upper","legalize","w","w","g","g",1,0.570308715803549,1,NA,1
"experimental",16,29,"hd","upper","binder","w","w","g","g",1,0.625648396555334,1,NA,1
"experimental",16,30,"hd","upper","sarlock","nw","nw","h","h",1,0.575070136692375,1,NA,1
"experimental",17,1,"hd","upper","fards","nw","nw","h","h",1,0.527315225219354,1,NA,1
"experimental",17,2,"hd","upper","igiom","nw","nw","h","h",1,0.639683364657685,1,NA,1
"experimental",17,3,"hd","upper","tuckel","nw","nw","h","h",1,0.644355066120625,1,NA,1
"experimental",17,4,"hd","upper","grefab","nw","nw","h","h",1,0.577080712886527,1,NA,1
"experimental",17,5,"hd","upper","anemic","w","w","g","g",1,0.728347031865269,1,NA,1
"experimental",17,6,"hd","upper","picnic","w","w","g","g",1,0.657720614690334,1,NA,1
"experimental",17,7,"hd","upper","tycoon","w","w","g","g",1,0.549840102205053,1,NA,1
"experimental",17,8,"hd","upper","wimpid","nw","nw","h","h",1,1.31847021216527,1,NA,1
"experimental",17,9,"hd","upper","unmarked","w","w","g","g",1,0.535951797384769,1,NA,1
"experimental",17,10,"hd","upper","tapling","nw","nw","h","h",1,0.624631355516613,1,NA,1
"experimental",17,11,"hd","upper","clooped","nw","nw","h","h",1,1.13316446915269,1,NA,1
"experimental",17,12,"hd","upper","knowledge","w","w","g","g",1,0.494347468251362,1,NA,1
"experimental",17,13,"hd","upper","unversed","w","w","g","h",0,0.617297204909846,1,NA,1
"experimental",17,14,"hd","upper","caterpillar","target","target","q","g",0,0.543352492619306,1,NA,1
"experimental",17,15,"hd","upper","nostril","aftertar1","w","g","q",0,0.247664687456563,1,NA,1
"experimental",17,16,"hd","upper","thacked","aftertar2","nw","h","h",1,0.492376619949937,1,NA,1
"experimental",17,17,"hd","upper","acting","aftertar3","w","g","g",1,1.06319919484667,1,NA,1
"experimental",17,18,"hd","upper","buttress","w","w","g","g",1,1.09113438636996,1,NA,1
"experimental",17,19,"hd","upper","holdup","w","w","g","g",1,0.629660610342398,1,NA,1
"experimental",17,20,"hd","upper","golemic","w","nw","h","h",1,0.609490289120004,1,NA,1
"experimental",17,21,"hd","upper","crazy","nw","w","g","g",1,0.55201687477529,1,NA,1
"experimental",17,22,"hd","upper","afford","w","w","g","g",1,0.624275788664818,1,NA,1
"experimental",17,23,"hd","upper","schinter","w","nw","h","h",1,0.661755009787157,1,NA,1
"experimental",17,24,"hd","upper","intercede","nw","w","g","h",0,0.913983842823654,1,NA,1
"experimental",17,25,"hd","upper","eugenifs","w","nw","h","h",1,0.571982596069574,1,NA,1
"experimental",17,26,"hd","upper","peadgear","nw","nw","h","h",1,0.635146077023819,1,NA,1
"experimental",17,27,"hd","upper","derisury","nw","nw","h","h",1,0.53580877603963,1,NA,1
"experimental",17,28,"hd","upper","stranded","nw","w","g","q",0,0.616561240749434,1,NA,1
"experimental",17,29,"hd","upper","system","w","w","g","g",1,0.845731183653697,1,NA,1
"experimental",17,30,"hd","upper","miability","w","nw","h","h",1,0.658312564250082,1,NA,1
"experimental",18,1,"hd","upper","even","w","w","g","g",1,0.527044411282986,1,NA,1
"experimental",18,2,"hd","upper","hemoter","nw","nw","h","h",1,0.640437537804246,1,NA,1
"experimental",18,3,"hd","upper","seasoning","w","w","g","g",1,0.733346490655094,1,NA,1
"experimental",18,4,"hd","upper","addma","nw","nw","h","h",1,0.734571773326024,1,NA,1
"experimental",18,5,"hd","upper","graiking","nw","nw","h","h",1,0.558028077473864,1,NA,1
"experimental",18,6,"hd","upper","erlighten","nw","nw","h","h",1,0.670310801826417,1,NA,1
"experimental",18,7,"hd","upper","practice","w","w","g","g",1,0.577593537513167,1,NA,1
"experimental",18,8,"hd","upper","trooper","w","w","g","g",1,0.889048459008336,1,NA,1
"experimental",18,9,"hd","upper","dabble","w","w","g","g",1,0.635709223803133,1,NA,1
"experimental",18,10,"hd","upper","anterior","w","w","g","h",0,0.592447899049148,1,NA,1
"experimental",18,11,"hd","upper","batire","nw","nw","h","h",1,0.647070155246183,1,NA,1
"experimental",18,12,"hd","upper","hatred","w","w","g","g",1,0.563239419832826,1,NA,1
"experimental",18,13,"hd","upper","ghists","nw","nw","h","h",1,0.63514673919417,1,NA,1
"experimental",18,14,"hd","upper","rabbit","target","target","q","q",1,0.824519984424114,1,NA,1
"experimental",18,15,"hd","upper","kettle","aftertar1","w","g","g",1,0.645584321813658,1,NA,1
"experimental",18,16,"hd","upper","rodeo","aftertar2","w","g","g",1,0.578306657960638,1,NA,1
"experimental",18,17,"hd","upper","ronvince","aftertar3","nw","h","h",1,0.62561893183738,1,NA,1
"experimental",18,18,"hd","upper","terming","nw","w","g","h",0,0.983351870207116,1,NA,1
"experimental",18,19,"hd","upper","scrib","w","nw","h","h",1,0.622971049277112,1,NA,1
"experimental",18,20,"hd","upper","gairs","nw","nw","h","h",1,0.860487879952416,1,NA,1
"experimental",18,21,"hd","upper","country","nw","w","g","g",1,0.616429144749418,1,NA,1
"experimental",18,22,"hd","upper","checkout","w","w","g","g",1,0.558369408594444,1,NA,1
"experimental",18,23,"hd","upper","hegacy","w","nw","h","h",1,0.653468376491219,1,NA,1
"experimental",18,24,"hd","upper","hindsight","nw","w","g","g",1,0.72145783668384,1,NA,1
"experimental",18,25,"hd","upper","downtrund","w","nw","h","h",1,0.87488967156969,1,NA,1
"experimental",18,26,"hd","upper","plashed","nw","nw","h","h",1,0.702222782652825,1,NA,1
"experimental",18,27,"hd","upper","mandlers","nw","nw","h","h",1,0.960299932630733,1,NA,1
"experimental",18,28,"hd","upper","metebing","nw","nw","h","h",1,0.680350109236315,1,NA,1
"experimental",18,29,"hd","upper","retain","nw","w","g","g",1,0.659710002597421,1,NA,1
"experimental",18,30,"hd","upper","theery","w","nw","h","h",1,0.631766534410417,1,NA,1
"experimental",19,1,"hd","upper","asclibed","nw","nw","h","h",1,0.572626854293048,1,NA,1
"experimental",19,2,"hd","upper","charcoal","w","w","g","g",1,0.6841388521716,1,NA,1
"experimental",19,3,"hd","upper","remain","w","w","g","g",1,1.3827285352163,1,NA,1
"experimental",19,4,"hd","upper","roodies","nw","nw","h","h",1,0.621748746139929,1,NA,1
"experimental",19,5,"hd","upper","bropic","nw","nw","h","h",1,1.427601830801,1,NA,1
"experimental",19,6,"hd","upper","forgery","w","w","g","g",1,4.64803157676943,1,NA,1
"experimental",19,7,"hd","upper","standard","w","w","g","g",1,1.24468110199086,1,NA,1
"experimental",19,8,"hd","upper","female","w","w","g","g",1,0.873386291554198,1,NA,1
"experimental",19,9,"hd","upper","pender","nw","nw","h","h",1,1.06073075137101,1,NA,1
"experimental",19,10,"hd","upper","season","w","w","g","g",1,0.464702310273424,1,NA,1
"experimental",19,11,"hd","upper","butled","nw","nw","h","h",1,0.916800901060924,1,NA,1
"experimental",19,12,"hd","upper","frose","nw","nw","h","h",1,0.662084091454744,1,NA,1
"experimental",19,13,"hd","upper","bamboo","w","w","g","h",0,0.978041538735852,1,NA,1
"experimental",19,14,"hd","upper","decency","w","w","g","g",1,0.6572594367899,1,NA,1
"experimental",19,15,"hd","upper","recipus","nw","nw","h","h",1,0.51749971951358,1,NA,1
"experimental",19,16,"hd","upper","profats","nw","nw","h","h",1,0.62262706970796,1,NA,1
"experimental",19,17,"hd","upper","pimorous","nw","nw","h","h",1,0.65199181297794,1,NA,1
"experimental",19,18,"hd","upper","urique","nw","nw","h","h",1,0.87202758807689,1,NA,1
"experimental",19,19,"hd","upper","lofty","w","w","g","g",1,0.627439474919811,1,NA,1
"experimental",19,20,"hd","upper","plunging","w","w","g","g",1,0.584615159779787,1,NA,1
"experimental",19,21,"hd","upper","sustain","w","w","g","g",1,0.462614926043898,1,NA,1
"experimental",19,22,"hd","upper","snocks","nw","nw","h","h",1,0.49867717619054,1,NA,1
"experimental",19,23,"hd","upper","monkey","target","target","q","q",1,0.669288463424891,1,NA,1
"experimental",19,24,"hd","upper","tining","aftertar1","nw","h","h",1,0.904549065278843,1,NA,1
"experimental",19,25,"hd","upper","renown","aftertar2","w","g","g",1,0.666590589797124,1,NA,1
"experimental",19,26,"hd","upper","halents","aftertar3","nw","h","h",1,0.572420268086717,1,NA,1
"experimental",19,27,"hd","upper","paranoid","nw","w","g","g",1,0.66913451696746,1,NA,1
"experimental",19,28,"hd","upper","peags","w","nw","h","h",1,0.641280106035993,1,NA,1
"experimental",19,29,"hd","upper","category","nw","w","g","g",1,0.694010970415547,1,NA,1
"experimental",19,30,"hd","upper","infancy","w","w","g","g",1,0.728558915201575,1,NA,1
"experimental",20,1,"ld","lower","incorrect","w","w","g","g",1,0.633933705976233,1,NA,1
"experimental",20,2,"ld","lower","fomes","nw","nw","h","h",1,0.534514962229878,1,NA,1
"experimental",20,3,"ld","lower","dariner","nw","nw","h","h",1,0.527096058009192,1,NA,1
"experimental",20,4,"ld","lower","galashes","nw","nw","h","h",1,0.632579306606203,1,NA,1
"experimental",20,5,"ld","lower","fudden","nw","nw","h","h",1,0.613921966170892,1,NA,1
"experimental",20,6,"ld","lower","publish","w","w","g","g",1,0.706979899434373,1,NA,1
"experimental",20,7,"ld","lower","huests","nw","nw","h","h",1,0.717121838359162,1,NA,1
"experimental",20,8,"ld","lower","repayment","w","w","g","g",1,0.526269050082192,1,NA,1
"experimental",20,9,"ld","lower","subpoena","w","w","g","h",0,0.488447835436091,1,NA,1
"experimental",20,10,"ld","lower","yash","nw","nw","h","h",1,0.915062131360173,1,NA,1
"experimental",20,11,"ld","lower","cutout","w","w","g","g",1,0.589018364902586,1,NA,1
"experimental",20,12,"ld","lower","superstar","w","w","g","g",1,0.899788306793198,1,NA,1
"experimental",20,13,"ld","lower","filter","w","w","g","g",1,1.07847169553861,1,NA,1
"experimental",20,14,"ld","lower","mogus","nw","nw","h","h",1,0.729844783665612,1,NA,1
"experimental",20,15,"ld","lower","exclusion","w","w","g","g",1,0.987136971438304,1,NA,1
"experimental",20,16,"ld","lower","crabby","w","w","g","g",1,1.96091770590283,1,NA,1
"experimental",20,17,"ld","lower","engineer","w","w","g","g",1,1.54492936981842,1,NA,1
"experimental",20,18,"ld","lower","dorth","nw","nw","h","h",1,0.633591712685302,1,NA,1
"experimental",20,19,"ld","lower","outflow","w","w","g","g",1,1.51094523398206,1,NA,1
"experimental",20,20,"ld","lower","deficit","w","w","g","g",1,0.58500217855908,1,NA,1
"experimental",20,21,"ld","lower","padicals","nw","nw","h","h",1,0.647751162294298,1,NA,1
"experimental",20,22,"ld","lower","amms","nw","nw","h","h",1,0.547554739518091,1,NA,1
"experimental",20,23,"ld","lower","valif","nw","nw","h","h",1,0.692434093449265,1,NA,1
"experimental",20,24,"ld","lower","coster","nw","nw","h","h",1,1.35156145761721,1,NA,1
"experimental",20,25,"ld","lower","acroad","nw","nw","h","h",1,0.967658582376316,1,NA,1
"experimental",20,26,"ld","lower","bullet","w","w","g","g",1,0.670971944462508,1,NA,1
"experimental",20,27,"ld","lower","frigs","nw","nw","h","h",1,0.506357955047861,1,NA,1
"experimental",20,28,"ld","lower","pammed","nw","nw","h","h",1,0.572648704983294,1,NA,1
"experimental",20,29,"ld","lower","aqueduct","w","w","g","g",1,1.10056221135892,1,NA,1
"experimental",20,30,"ld","lower","computer","w","w","g","g",1,0.798466252861544,1,NA,1
"experimental",21,1,"hd","upper","olgies","nw","nw","h","h",1,0.733060116646811,1,NA,1
"experimental",21,2,"hd","upper","curricula","w","w","g","g",1,0.750383914681152,1,NA,1
"experimental",21,3,"hd","upper","incidonts","nw","nw","h","h",1,0.574956911616027,1,NA,1
"experimental",21,4,"hd","upper","unstatle","nw","nw","h","h",1,0.486722639761865,1,NA,1
"experimental",21,5,"hd","upper","meteoroid","w","w","g","g",1,0.641126490430906,1,NA,1
"experimental",21,6,"hd","upper","miurnal","nw","nw","h","h",1,0.749826727202162,1,NA,1
"experimental",21,7,"hd","upper","elbalm","nw","nw","h","h",1,0.541576312622055,1,NA,1
"experimental",21,8,"hd","upper","miracle","w","w","g","g",1,0.582174526061863,1,NA,1
"experimental",21,9,"hd","upper","resume","w","w","g","g",1,0.500920493155718,1,NA,1
"experimental",21,10,"hd","upper","fassed","nw","nw","h","h",1,0.712247854331508,1,NA,1
"experimental",21,11,"hd","upper","farochial","nw","nw","h","h",1,0.561302671674639,1,NA,1
"experimental",21,12,"hd","upper","detrabe","nw","nw","h","h",1,0.666379368631169,1,NA,1
"experimental",21,13,"hd","upper","pigned","nw","nw","h","h",1,0.702425064984709,1,NA,1
"experimental",21,14,"hd","upper","decantel","nw","nw","h","h",1,0.640492163831368,1,NA,1
"experimental",21,15,"hd","upper","acidic","w","w","g","g",1,0.589388499036431,1,NA,1
"experimental",21,16,"hd","upper","etuip","nw","nw","h","h",1,0.611284015933052,1,NA,1
"experimental",21,17,"hd","upper","obtuse","w","w","g","g",1,0.617539878003299,1,NA,1
"experimental",21,18,"hd","upper","orange","w","w","g","g",1,0.542979378951713,1,NA,1
"experimental",21,19,"hd","upper","disperse","w","w","g","g",1,0.671743664192036,1,NA,1
"experimental",21,20,"hd","upper","castaway","w","w","g","g",1,0.842995568411425,1,NA,1
"experimental",21,21,"hd","upper","entropy","w","w","g","g",1,0.911766018019989,1,NA,1
"experimental",21,22,"hd","upper","mining","w","w","g","g",1,1.00948638259433,1,NA,1
"experimental",21,23,"hd","upper","pracking","nw","nw","h","h",1,4.50301317451522,1,NA,1
"experimental",21,24,"hd","upper","tenpince","nw","nw","h","h",1,0.528958315961063,1,NA,1
"experimental",21,25,"hd","upper","tinker","w","w","g","g",1,0.818296567071229,1,NA,1
"experimental",21,26,"hd","upper","landing","w","w","g","g",1,0.615639216266572,1,NA,1
"experimental",21,27,"hd","upper","spigat","nw","nw","h","h",1,0.6056446027942,1,NA,1
"experimental",21,28,"hd","upper","booster","w","w","g","g",1,1.36363882035948,1,NA,1
"experimental",21,29,"hd","upper","butterfly","target","target","q","q",1,0.898433907423168,1,NA,1
"experimental",21,30,"hd","upper","mestowal","aftertar1","nw","h","h",1,1.37345862993971,1,NA,1
"experimental",22,1,"ld","lower","mubby","nw","nw","h","h",1,0.973604895640165,1,NA,1
"experimental",22,2,"ld","lower","harmful","w","w","g","g",1,1.09294963255525,1,NA,1
"experimental",22,3,"ld","lower","cripet","nw","nw","h","h",1,0.75173003738746,1,NA,1
"experimental",22,4,"ld","lower","gontracts","nw","nw","h","h",1,1.06386100011878,1,NA,1
"experimental",22,5,"ld","lower","gunrunker","nw","nw","h","h",1,1.22689215326682,1,NA,1
"experimental",22,6,"ld","lower","deadly","w","w","g","g",1,1.56829118728638,1,NA,1
"experimental",22,7,"ld","lower","daylight","w","w","g","g",1,2.58368287212215,1,NA,1
"experimental",22,8,"ld","lower","jinds","nw","nw","h","h",1,0.959000490373,1,NA,1
"experimental",22,9,"ld","lower","populace","w","w","g","g",1,0.991039932705462,1,NA,1
"experimental",22,10,"ld","lower","cills","nw","nw","h","h",1,0.869813736062497,1,NA,1
"experimental",22,11,"ld","lower","cavern","w","w","g","g",1,0.697106456849724,1,NA,1
"experimental",22,12,"ld","lower","pircus","nw","nw","h","h",1,1.13097478519194,1,NA,1
"experimental",22,13,"ld","lower","metrol","nw","nw","h","h",1,1.41225483990274,1,NA,1
"experimental",22,14,"ld","lower","outfit","w","w","g","g",1,1.21035828348249,1,NA,1
"experimental",22,15,"ld","lower","calcify","w","w","g","g",1,2.00038995663635,1,NA,1
"experimental",22,16,"ld","lower","reason","w","w","g","g",1,0.783040136797354,1,NA,1
"experimental",22,17,"ld","lower","ignore","w","w","g","g",1,0.574370589805767,1,NA,1
"experimental",22,18,"ld","lower","grenavier","nw","nw","h","h",1,0.837670338572934,1,NA,1
"experimental",22,19,"ld","lower","glapula","nw","nw","h","h",1,0.793423424009234,1,NA,1
"experimental",22,20,"ld","lower","unspoken","w","w","g","g",1,0.623337872792035,1,NA,1
"experimental",22,21,"ld","lower","drine","nw","nw","h","h",1,0.924595567164943,1,NA,1
"experimental",22,22,"ld","lower","tracing","w","w","g","g",1,0.630950120510533,1,NA,1
"experimental",22,23,"ld","lower","togglo","nw","nw","h","h",1,0.652292091632262,1,NA,1
"experimental",22,24,"ld","lower","trophy","w","w","g","g",1,0.672373024513945,1,NA,1
"experimental",22,25,"ld","lower","drobate","nw","nw","h","h",1,0.899726066039875,1,NA,1
"experimental",22,26,"ld","lower","amaze","w","w","g","g",1,0.806434067664668,1,NA,1
"experimental",22,27,"ld","lower","butcher","w","w","g","g",1,0.748420350020751,1,NA,1
"experimental",22,28,"ld","lower","itfidels","nw","nw","h","h",1,0.732197022298351,1,NA,1
"experimental",22,29,"ld","lower","otoist","nw","nw","h","h",1,0.693632890703157,1,NA,1
"experimental",22,30,"ld","lower","except","w","w","g","g",1,0.760240803938359,1,NA,1
"experimental",23,1,"ld","lower","balign","nw","nw","h","h",1,0.921075651654974,1,NA,1
"experimental",23,2,"ld","lower","marvel","w","w","g","g",1,0.642389515182003,1,NA,1
"experimental",23,3,"ld","lower","pester","w","w","g","h",0,0.830235543195158,1,NA,1
"experimental",23,4,"ld","lower","brighten","w","w","g","g",1,0.875615703640506,1,NA,1
"experimental",23,5,"ld","lower","drauns","nw","nw","h","h",1,0.926701491232961,1,NA,1
"experimental",23,6,"ld","lower","puffin","w","w","g","q",0,1.22424195334315,1,NA,1
"experimental",23,7,"ld","lower","demon","w","w","g","g",1,1.40602744976059,1,NA,1
"experimental",23,8,"ld","lower","dusmy","nw","nw","h","h",1,0.795607148902491,1,NA,1
"experimental",23,9,"ld","lower","envelop","w","w","g","g",1,1.14638368575834,1,NA,1
"experimental",23,10,"ld","lower","remover","w","w","g","g",1,1.29024765384383,1,NA,1
"experimental",23,11,"ld","lower","parent","w","w","g","g",1,2.02082778094336,1,NA,1
"experimental",23,12,"ld","lower","germeated","nw","nw","h","h",1,6.61849666456692,1,NA,1
"experimental",23,13,"ld","lower","sording","nw","nw","h","h",1,0.831734950421378,1,NA,1
"experimental",23,14,"ld","lower","cemoir","nw","nw","h","h",1,0.741276232525706,1,NA,1
"experimental",23,15,"ld","lower","arcients","nw","nw","h","h",1,0.70093261054717,1,NA,1
"experimental",23,16,"ld","lower","frowsed","nw","nw","h","h",1,0.726848617661744,1,NA,1
"experimental",23,17,"ld","lower","retreat","w","w","g","g",1,0.712303804932162,1,NA,1
"experimental",23,18,"ld","lower","labitable","nw","nw","h","g",0,0.906361994100735,1,NA,1
"experimental",23,19,"ld","lower","cartles","nw","nw","h","h",1,0.900489508872852,1,NA,1
"experimental",23,20,"ld","lower","enabled","w","w","g","g",1,0.870925131719559,1,NA,1
"experimental",23,21,"ld","lower","suspect","w","w","g","g",1,0.746384943602607,1,NA,1
"experimental",23,22,"ld","lower","currowing","nw","nw","h","h",1,0.859122224152088,1,NA,1
"experimental",23,23,"ld","lower","baladroit","nw","nw","h","h",1,0.958218176849186,1,NA,1
"experimental",23,24,"ld","lower","smabled","nw","nw","h","h",1,0.99814432207495,1,NA,1
"experimental",23,25,"ld","lower","lovud","nw","nw","h","h",1,1.04481333051808,1,NA,1
"experimental",23,26,"ld","lower","imotope","nw","nw","h","h",1,0.93769063311629,1,NA,1
"experimental",23,27,"ld","lower","chemical","w","w","g","g",1,3.9943393568974,1,NA,1
"experimental",23,28,"ld","lower","warmer","w","w","g","g",1,0.704576014308259,1,NA,1
"experimental",23,29,"ld","lower","halter","w","w","g","g",1,1.23427993687801,1,NA,1
"experimental",23,30,"ld","lower","gymnasium","w","w","g","g",1,10.9917206084356,1,NA,1
"experimental",24,1,"ld","lower","ilterfere","nw","nw","h","h",1,1.11759897368029,1,NA,1
"experimental",24,2,"ld","lower","robbery","w","w","g","g",1,0.679613482905552,1,NA,1
"experimental",24,3,"ld","lower","living","w","w","g","g",1,0.698734318604693,1,NA,1
"experimental",24,4,"ld","lower","maunches","nw","nw","h","h",1,0.773411353351548,1,NA,1
"experimental",24,5,"ld","lower","equitable","w","w","g","g",1,0.996717749862,1,NA,1
"experimental",24,6,"ld","lower","yellep","nw","nw","h","h",1,25.5307682650164,1,NA,1
"experimental",24,7,"ld","lower","senalize","nw","nw","h","h",1,1.63539735786617,1,NA,1
"experimental",24,8,"ld","lower","cabinet","w","w","g","g",1,0.768123865360394,1,NA,1
"experimental",24,9,"ld","lower","courier","w","w","g","g",1,0.855462266830727,1,NA,1
"experimental",24,10,"ld","lower","burning","w","w","g","g",1,0.691448172787204,1,NA,1
"experimental",24,11,"ld","lower","preight","nw","nw","h","h",1,0.821251018438488,1,NA,1
"experimental",24,12,"ld","lower","portify","nw","nw","h","h",1,0.914825417799875,1,NA,1
"experimental",24,13,"ld","lower","religious","w","w","g","g",1,0.748600782128051,1,NA,1
"experimental",24,14,"ld","lower","actual","w","w","g","g",1,0.549397464375943,1,NA,1
"experimental",24,15,"ld","lower","aefated","nw","nw","h","h",1,0.749978687381372,1,NA,1
"experimental",24,16,"ld","lower","impirt","nw","nw","h","h",1,0.758779800496995,1,NA,1
"experimental",24,17,"ld","lower","distrust","w","w","g","g",1,0.558700807858258,1,NA,1
"experimental",24,18,"ld","lower","contund","nw","nw","h","h",1,0.550784970633686,1,NA,1
"experimental",24,19,"ld","lower","expounded","w","w","g","g",1,1.03767782077193,1,NA,1
"experimental",24,20,"ld","lower","roughly","w","w","g","g",1,0.482543567661196,1,NA,1
"experimental",24,21,"ld","lower","ucility","nw","nw","h","h",1,0.493810806889087,1,NA,1
"experimental",24,22,"ld","lower","vented","w","w","g","g",1,0.504354993347079,1,NA,1
"experimental",24,23,"ld","lower","duplex","w","w","g","g",1,0.618666171561927,1,NA,1
"experimental",24,24,"ld","lower","trecious","nw","nw","h","h",1,0.758565268479288,1,NA,1
"experimental",24,25,"ld","lower","thamp","nw","nw","h","g",0,0.575772994197905,1,NA,1
"experimental",24,26,"ld","lower","sequence","w","w","g","g",1,0.55040788394399,1,NA,1
"experimental",24,27,"ld","lower","neliefs","nw","nw","h","h",1,0.551941060228273,1,NA,1
"experimental",24,28,"ld","lower","coyote","target","target","q","g",0,0.600077362265438,1,NA,1
"experimental",24,29,"ld","lower","glattery","aftertar1","nw","h","q",0,0.269816119689494,1,NA,1
"experimental",24,30,"ld","lower","laser","aftertar2","w","g","g",1,0.602006826782599,1,NA,1
"experimental",25,1,"ld","lower","mopping","w","w","g","g",1,0.639793610665947,1,NA,1
"experimental",25,2,"ld","lower","atabaster","nw","nw","h","h",1,0.500529170967638,1,NA,1
"experimental",25,3,"ld","lower","axis","w","w","g","g",1,0.926432001637295,1,NA,1
"experimental",25,4,"ld","lower","thaken","nw","nw","h","h",1,0.655878220917657,1,NA,1
"experimental",25,5,"ld","lower","horks","nw","nw","h","h",1,0.826929166680202,1,NA,1
"experimental",25,6,"ld","lower","official","w","w","g","g",1,0.576278866268694,1,NA,1
"experimental",25,7,"ld","lower","lavilion","nw","nw","h","h",1,0.647623701021075,1,NA,1
"experimental",25,8,"ld","lower","ragtam","nw","nw","h","h",1,0.59633463784121,1,NA,1
"experimental",25,9,"ld","lower","heuls","nw","nw","h","h",1,0.47502898494713,1,NA,1
"experimental",25,10,"ld","lower","mosary","nw","nw","h","h",1,0.598373023793101,1,NA,1
"experimental",25,11,"ld","lower","penalize","w","w","g","g",1,0.820884857093915,1,NA,1
"experimental",25,12,"ld","lower","dazid","nw","nw","h","h",1,0.585937776835635,1,NA,1
"experimental",25,13,"ld","lower","arranged","w","w","g","g",1,0.529202312929556,1,NA,1
"experimental",25,14,"ld","lower","colored","w","w","g","g",1,0.498515283921733,1,NA,1
"experimental",25,15,"ld","lower","fashing","nw","nw","h","h",1,1.22832667105831,1,NA,1
"experimental",25,16,"ld","lower","delegate","w","w","g","h",0,0.729505770141259,1,NA,1
"experimental",25,17,"ld","lower","redefloy","nw","nw","h","h",1,0.617990130325779,1,NA,1
"experimental",25,18,"ld","lower","mitro","nw","nw","h","h",1,0.816933891037479,1,NA,1
"experimental",25,19,"ld","lower","subber","nw","nw","h","h",1,0.718971846625209,1,NA,1
"experimental",25,20,"ld","lower","couple","w","w","g","g",1,0.52040484151803,1,NA,1
"experimental",25,21,"ld","lower","noblest","w","w","g","g",1,0.865792252356187,1,NA,1
"experimental",25,22,"ld","lower","dounger","nw","nw","h","h",1,0.557675489922985,1,NA,1
"experimental",25,23,"ld","lower","artifact","w","w","g","g",1,0.533004629658535,1,NA,1
"experimental",25,24,"ld","lower","itself","w","w","g","g",1,0.494148827390745,1,NA,1
"experimental",25,25,"ld","lower","consonant","w","w","g","g",1,0.784785527503118,1,NA,1
"experimental",25,26,"ld","lower","stooping","w","w","g","g",1,0.73512995406054,1,NA,1
"experimental",25,27,"ld","lower","arbitrary","w","w","g","g",1,0.592308519408107,1,NA,1
"experimental",25,28,"ld","lower","yearnungs","nw","nw","h","h",1,0.646953619318083,1,NA,1
"experimental",25,29,"ld","lower","crudios","nw","nw","h","h",1,0.803629590198398,1,NA,1
"experimental",25,30,"ld","lower","movie","w","w","g","g",1,0.505685224663466,1,NA,1
"experimental",26,1,"hd","upper","collute","nw","nw","h","h",1,1.33146165381186,1,NA,1
"experimental",26,2,"hd","upper","boulder","w","w","g","g",1,0.476735971868038,1,NA,1
"experimental",26,3,"hd","upper","amkles","nw","nw","h","h",1,0.896078689256683,1,NA,1
"experimental",26,4,"hd","upper","preserve","w","w","g","g",1,0.530749394092709,1,NA,1
"experimental",26,5,"hd","upper","vivid","w","w","g","g",1,0.532116042915732,1,NA,1
"experimental",26,6,"hd","upper","flieves","nw","nw","h","h",1,0.877534243045375,1,NA,1
"experimental",26,7,"hd","upper","hanling","nw","nw","h","h",1,0.608010746072978,1,NA,1
"experimental",26,8,"hd","upper","mandate","w","w","g","g",1,0.533940559020266,1,NA,1
"experimental",26,9,"hd","upper","organize","w","w","g","g",1,0.502255359664559,1,NA,1
"experimental",26,10,"hd","upper","pripend","nw","nw","h","h",1,0.521047775633633,1,NA,1
"experimental",26,11,"hd","upper","skiing","w","w","g","g",1,0.682725191581994,1,NA,1
"experimental",26,12,"hd","upper","lutton","nw","nw","h","h",1,0.694290722953156,1,NA,1
"experimental",26,13,"hd","upper","huntry","nw","nw","h","h",1,0.824739151401445,1,NA,1
"experimental",26,14,"hd","upper","giving","w","w","g","g",1,0.582205646438524,1,NA,1
"experimental",26,15,"hd","upper","purport","w","w","g","h",0,0.973444658564404,1,NA,1
"experimental",26,16,"hd","upper","trallion","nw","nw","h","h",1,0.837232004618272,1,NA,1
"experimental",26,17,"hd","upper","moisture","w","w","g","g",1,1.40066580264829,1,NA,1
"experimental",26,18,"hd","upper","neally","nw","nw","h","h",1,0.679637319874018,1,NA,1
"experimental",26,19,"hd","upper","latter","w","w","g","g",1,0.906975794117898,1,NA,1
"experimental",26,20,"hd","upper","quittint","nw","nw","h","h",1,0.708766673924401,1,NA,1
"experimental",26,21,"hd","upper","podges","nw","nw","h","h",1,0.726897284854203,1,NA,1
"experimental",26,22,"hd","upper","mixture","w","w","g","g",1,0.640267699956894,1,NA,1
"experimental",26,23,"hd","upper","vaporize","w","w","g","g",1,1.25290119065903,1,NA,1
"experimental",26,24,"hd","upper","poars","nw","nw","h","h",1,2.00808232300915,1,NA,1
"experimental",26,25,"hd","upper","sooled","nw","nw","h","h",1,0.742162501672283,1,NA,1
"experimental",26,26,"hd","upper","rangel","nw","nw","h","h",1,0.582785677630454,1,NA,1
"experimental",26,27,"hd","upper","create","w","w","g","g",1,0.773972182534635,1,NA,1
"experimental",26,28,"hd","upper","airmen","w","w","g","g",1,1.09344159974717,1,NA,1
"experimental",26,29,"hd","upper","worps","nw","nw","h","h",1,0.648123282706365,1,NA,1
"experimental",26,30,"hd","upper","carnival","w","w","g","g",1,0.572854629252106,1,NA,1
"experimental",27,1,"hd","upper","primal","w","w","g","g",1,0.556619051843882,1,NA,1
"experimental",27,2,"hd","upper","outset","w","w","g","g",1,0.523951573763043,1,NA,1
"experimental",27,3,"hd","upper","gund","nw","nw","h","h",1,0.614045454654843,1,NA,1
"experimental",27,4,"hd","upper","blocking","w","w","g","g",1,0.628098300192505,1,NA,1
"experimental",27,5,"hd","upper","integral","w","w","g","g",1,0.649509795941412,1,NA,1
"experimental",27,6,"hd","upper","capobly","nw","nw","h","h",1,0.59045917307958,1,NA,1
"experimental",27,7,"hd","upper","exemplify","w","w","g","g",1,0.652871460653841,1,NA,1
"experimental",27,8,"hd","upper","expired","w","w","g","g",1,0.664929952472448,1,NA,1
"experimental",27,9,"hd","upper","chiffol","nw","nw","h","h",1,0.571985575603321,1,NA,1
"experimental",27,10,"hd","upper","mullet","w","w","g","g",1,0.619384589139372,1,NA,1
"experimental",27,11,"hd","upper","unsmilung","nw","nw","h","h",1,0.992741291411221,1,NA,1
"experimental",27,12,"hd","upper","ecistle","nw","nw","h","h",1,0.671466560102999,1,NA,1
"experimental",27,13,"hd","upper","halms","nw","nw","h","h",1,3.4588682288304,1,NA,1
"experimental",27,14,"hd","upper","martial","w","w","g","g",1,0.558922292431816,1,NA,1
"experimental",27,15,"hd","upper","reloant","nw","nw","h","h",1,0.598925576545298,1,NA,1
"experimental",27,16,"hd","upper","statute","w","w","g","g",1,1.02879261621274,1,NA,1
"experimental",27,17,"hd","upper","gallon","w","w","g","g",1,0.594040998257697,1,NA,1
"experimental",27,18,"hd","upper","gackpedal","nw","nw","h","h",1,0.640564005821943,1,NA,1
"experimental",27,19,"hd","upper","runabouk","nw","nw","h","h",1,0.557361306622624,1,NA,1
"experimental",27,20,"hd","upper","elormity","nw","nw","h","h",1,0.557032224722207,1,NA,1
"experimental",27,21,"hd","upper","telecast","w","w","g","g",1,0.669422215083614,1,NA,1
"experimental",27,22,"hd","upper","plartly","nw","nw","h","h",1,0.624591296538711,1,NA,1
"experimental",27,23,"hd","upper","warden","w","w","g","g",1,0.78224524226971,1,NA,1
"experimental",27,24,"hd","upper","slogan","w","w","g","g",1,1.1808892537374,1,NA,1
"experimental",27,25,"hd","upper","markot","nw","nw","h","h",1,0.668024114565924,1,NA,1
"experimental",27,26,"hd","upper","catacomb","w","w","g","g",1,5.70398638211191,1,NA,1
"experimental",27,27,"hd","upper","chicken","target","target","q","q",1,1.44225424085744,1,NA,1
"experimental",27,28,"hd","upper","dislokes","aftertar1","nw","h","h",1,0.742731607751921,1,NA,1
"experimental",27,29,"hd","upper","haurded","aftertar2","nw","h","h",1,0.551380893215537,1,NA,1
"experimental",27,30,"hd","upper","vibrate","aftertar3","w","g","g",1,0.527372499927878,1,NA,1
"experimental",28,1,"hd","upper","epthuse","nw","nw","h","h",1,0.648638093611225,1,NA,1
"experimental",28,2,"hd","upper","medium","w","w","g","g",1,0.861334420973435,1,NA,1
"experimental",28,3,"hd","upper","derived","w","w","g","g",1,0.921397449681535,1,NA,1
"experimental",28,4,"hd","upper","shamrock","w","w","g","g",1,0.754623572342098,1,NA,1
"experimental",28,5,"hd","upper","urgent","w","w","g","g",1,0.626703179674223,1,NA,1
"experimental",28,6,"hd","upper","cookbook","w","w","g","g",1,0.864110426744446,1,NA,1
"experimental",28,7,"hd","upper","require","w","w","g","g",1,0.571067854994908,1,NA,1
"experimental",28,8,"hd","upper","egcused","nw","nw","h","g",0,0.738643910270184,1,NA,1
"experimental",28,9,"hd","upper","managed","w","w","g","g",1,0.755120505345985,1,NA,1
"experimental",28,10,"hd","upper","octopus","target","target","q","q",1,2.66736826859415,1,NA,1
"experimental",28,11,"hd","upper","elpired","aftertar1","nw","h","h",1,1.00657794973813,1,NA,1
"experimental",28,12,"hd","upper","gazes","aftertar2","w","g","g",1,1.61263907747343,1,NA,1
"experimental",28,13,"hd","upper","ralliep","aftertar3","nw","h","h",1,0.714118057629094,1,NA,1
"experimental",28,14,"hd","upper","ameld","nw","nw","h","h",1,0.667729132808745,1,NA,1
"experimental",28,15,"hd","upper","esdings","nw","nw","h","h",1,0.687119127018377,1,NA,1
"experimental",28,16,"hd","upper","teliever","nw","nw","h","h",1,1.11348909465596,1,NA,1
"experimental",28,17,"hd","upper","efcorted","nw","nw","h","h",1,0.669099754653871,1,NA,1
"experimental",28,18,"hd","upper","outlaved","nw","nw","h","h",1,1.06327103683725,1,NA,1
"experimental",28,19,"hd","upper","nelvet","nw","nw","h","h",1,1.73139616870321,1,NA,1
"experimental",28,20,"hd","upper","stretches","nw","w","g","g",1,1.38869636808522,1,NA,1
"experimental",28,21,"hd","upper","goltish","w","nw","h","h",1,5.42662782850675,1,NA,1
"experimental",28,22,"hd","upper","dests","nw","nw","h","h",1,1.47178418701515,1,NA,1
"experimental",28,23,"hd","upper","reborn","nw","w","g","g",1,6.02659531752579,1,NA,1
"experimental",28,24,"hd","upper","enunciate","w","w","g","g",1,5.56822033855133,1,NA,1
"experimental",28,25,"hd","upper","other","w","w","g","g",1,1.11103786691092,1,NA,1
"experimental",28,26,"hd","upper","despise","w","w","g","g",1,3.59241644758731,1,NA,1
"experimental",28,27,"hd","upper","priant","w","nw","h","g",0,3.48709509125911,1,NA,1
"experimental",28,28,"hd","upper","atsless","nw","nw","h","h",1,3.25778278918006,1,NA,1
"experimental",28,29,"hd","upper","define","nw","w","g","g",1,2.36581294424832,1,NA,1
"experimental",28,30,"hd","upper","favoting","w","nw","h","h",1,2.11788203660399,1,NA,1
"experimental",29,1,"hd","upper","slears","nw","nw","h","h",1,2.31845067907125,1,NA,1
"experimental",29,2,"hd","upper","cherry","w","w","g","g",1,1.89579397067428,1,NA,1
"experimental",29,3,"hd","upper","fuack","nw","nw","h","h",1,2.42657618178055,1,NA,1
"experimental",29,4,"hd","upper","turning","w","w","g","g",1,1.71104640839621,1,NA,1
"experimental",29,5,"hd","upper","dingly","nw","nw","h","g",0,1.75301060872152,1,NA,1
"experimental",29,6,"hd","upper","causality","w","w","g","g",1,2.63247998617589,1,NA,1
"experimental",29,7,"hd","upper","antwers","nw","nw","h","h",1,3.13405239372514,1,NA,1
"experimental",29,8,"hd","upper","gaining","w","w","g","g",1,1.15177943278104,1,NA,1
"experimental",29,9,"hd","upper","release","w","w","g","g",1,0.862952019553632,1,NA,1
"experimental",29,10,"hd","upper","sponto","nw","nw","h","h",1,0.971261264989153,1,NA,1
"experimental",29,11,"hd","upper","digar","nw","nw","h","h",1,1.15440480248071,1,NA,1
"experimental",29,12,"hd","upper","allained","nw","nw","h","h",1,0.83444010745734,1,NA,1
"experimental",29,13,"hd","upper","observer","w","w","g","g",1,0.807073360076174,1,NA,1
"experimental",29,14,"hd","upper","gonesty","nw","nw","h","h",1,0.901274471310899,1,NA,1
"experimental",29,15,"hd","upper","slimped","nw","nw","h","h",1,0.799182683927938,1,NA,1
"experimental",29,16,"hd","upper","visible","w","w","g","g",1,1.0219342103228,1,NA,1
"experimental",29,17,"hd","upper","crundle","nw","nw","h","h",1,0.675264904042706,1,NA,1
"experimental",29,18,"hd","upper","lizard","target","target","q","g",0,0.669639064464718,1,NA,1
"experimental",29,19,"hd","upper","corg","aftertar1","nw","h","q",0,0.224959377897903,1,NA,1
"experimental",29,20,"hd","upper","rillains","aftertar2","nw","h","h",1,0.606329251546413,1,NA,1
"experimental",29,21,"hd","upper","inverted","aftertar3","w","g","g",1,0.564384915167466,1,NA,1
"experimental",29,22,"hd","upper","befin","w","nw","h","h",1,0.756383199011907,1,NA,1
"experimental",29,23,"hd","upper","slooch","nw","nw","h","h",1,1.24447418446653,1,NA,1
"experimental",29,24,"hd","upper","addition","nw","w","g","g",1,0.633056706748903,1,NA,1
"experimental",29,25,"hd","upper","unlined","w","w","g","h",0,0.81446445453912,1,NA,1
"experimental",29,26,"hd","upper","monopoly","w","w","g","g",1,0.684517262969166,1,NA,1
"experimental",29,27,"hd","upper","rarely","w","w","g","g",1,0.694354619365185,1,NA,1
"experimental",29,28,"hd","upper","dialect","w","w","g","g",1,1.46521314815618,1,NA,1
"experimental",29,29,"hd","upper","ulcer","w","w","g","g",1,2.90914726979099,1,NA,1
"experimental",29,30,"hd","upper","optional","w","w","g","g",1,0.581942116143182,1,NA,1
"experimental",30,1,"ld","lower","nopping","nw","nw","h","h",1,0.670310470741242,1,NA,1
"experimental",30,2,"ld","lower","clattest","nw","nw","h","h",1,0.681520766112953,1,NA,1
"experimental",30,3,"ld","lower","kraums","nw","nw","h","h",1,0.740823993692175,1,NA,1
"experimental",30,4,"ld","lower","elalt","nw","nw","h","h",1,0.525561888702214,1,NA,1
"experimental",30,5,"ld","lower","borrent","nw","nw","h","h",1,0.590983916074038,1,NA,1
"experimental",30,6,"ld","lower","pepperoni","w","w","g","g",1,0.64568198681809,1,NA,1
"experimental",30,7,"ld","lower","topefuls","nw","nw","h","h",1,0.570425583049655,1,NA,1
"experimental",30,8,"ld","lower","susher","nw","nw","h","h",1,0.753786301240325,1,NA,1
"experimental",30,9,"ld","lower","railway","w","w","g","g",1,0.665820194641128,1,NA,1
"experimental",30,10,"ld","lower","index","w","w","g","h",0,0.652833387954161,1,NA,1
"experimental",30,11,"ld","lower","dumult","nw","nw","h","h",1,1.19277856964618,1,NA,1
"experimental",30,12,"ld","lower","efficient","w","w","g","g",1,0.687509456183761,1,NA,1
"experimental",30,13,"ld","lower","etcess","nw","nw","h","h",1,0.578266598982736,1,NA,1
"experimental",30,14,"ld","lower","splum","nw","nw","h","h",1,0.537485304754227,1,NA,1
"experimental",30,15,"ld","lower","encounter","w","w","g","g",1,0.554206889821216,1,NA,1
"experimental",30,16,"ld","lower","company","w","w","g","g",1,0.60232034814544,1,NA,1
"experimental",30,17,"ld","lower","maintain","w","w","g","g",1,0.648354368284345,1,NA,1
"experimental",30,18,"ld","lower","tinion","nw","nw","h","h",1,0.724541404517367,1,NA,1
"experimental",30,19,"ld","lower","snorls","nw","nw","h","g",0,4.55762251908891,1,NA,1
"experimental",30,20,"ld","lower","reptile","w","w","g","q",0,0.853607623837888,1,NA,1
"experimental",30,21,"ld","lower","rootsie","nw","nw","h","h",1,0.689564395695925,1,NA,1
"experimental",30,22,"ld","lower","pressures","w","w","g","g",1,0.964457816211507,1,NA,1
"experimental",30,23,"ld","lower","planar","w","w","g","h",0,0.820592524018139,1,NA,1
"experimental",30,24,"ld","lower","mounting","w","w","g","g",1,1.01779387332499,1,NA,1
"experimental",30,25,"ld","lower","sazer","nw","nw","h","h",1,0.822169401217252,1,NA,1
"experimental",30,26,"ld","lower","urgency","w","w","g","g",1,0.779725483153015,1,NA,1
"experimental",30,27,"ld","lower","accessory","w","w","g","g",1,0.586813782574609,1,NA,1
"experimental",30,28,"ld","lower","forfeit","w","w","g","g",1,0.618539041373879,1,NA,1
"experimental",30,29,"ld","lower","filny","nw","nw","h","h",1,0.566941091790795,1,NA,1
"experimental",30,30,"ld","lower","armada","w","w","g","g",1,0.758943017106503,1,NA,1
"experimental",31,1,"hd","upper","intended","w","w","g","g",1,0.542795967310667,1,NA,1
"experimental",31,2,"hd","upper","satisfies","w","w","g","g",1,0.503492230083793,1,NA,1
"experimental",31,3,"hd","upper","bumbo","nw","nw","h","h",1,0.609668734949082,1,NA,1
"experimental",31,4,"hd","upper","numbled","nw","nw","h","h",1,0.615688545396551,1,NA,1
"experimental",31,5,"hd","upper","troven","nw","nw","h","h",1,0.565811487613246,1,NA,1
"experimental",31,6,"hd","upper","agony","w","w","g","g",1,0.493463847320527,1,NA,1
"experimental",31,7,"hd","upper","aviation","w","w","g","g",1,0.576282507972792,1,NA,1
"experimental",31,8,"hd","upper","inversion","w","w","g","g",1,0.559540396556258,1,NA,1
"experimental",31,9,"hd","upper","melodic","w","w","g","g",1,0.527504927013069,1,NA,1
"experimental",31,10,"hd","upper","treason","w","w","g","g",1,0.696403268259019,1,NA,1
"experimental",31,11,"hd","upper","hivinity","nw","nw","h","h",1,0.753861784469336,1,NA,1
"experimental",31,12,"hd","upper","mennel","nw","nw","h","h",1,0.546418183017522,1,NA,1
"experimental",31,13,"hd","upper","hasks","nw","nw","h","h",1,0.515302420593798,1,NA,1
"experimental",31,14,"hd","upper","tharcely","nw","nw","h","h",1,0.493490332970396,1,NA,1
"experimental",31,15,"hd","upper","prama","nw","nw","h","h",1,0.583983813179657,1,NA,1
"experimental",31,16,"hd","upper","blassed","nw","nw","h","h",1,0.567100666463375,1,NA,1
"experimental",31,17,"hd","upper","ringlat","nw","nw","h","h",1,0.5188700100407,1,NA,1
"experimental",31,18,"hd","upper","contain","w","w","g","g",1,0.655906361527741,1,NA,1
"experimental",31,19,"hd","upper","geborn","nw","nw","h","h",1,0.500559297855943,1,NA,1
"experimental",31,20,"hd","upper","greakable","nw","nw","h","h",1,3.10880381939933,1,NA,1
"experimental",31,21,"hd","upper","calming","w","w","g","g",1,16.3424921792466,1,NA,1
"experimental",31,22,"hd","upper","design","w","w","g","g",1,0.671000085305423,1,NA,1
"experimental",31,23,"hd","upper","prillway","nw","nw","h","h",1,0.682240839116275,1,NA,1
"experimental",31,24,"hd","upper","eyesight","w","w","g","g",1,0.509539187885821,1,NA,1
"experimental",31,25,"hd","upper","tragedy","w","w","g","g",1,0.535576366120949,1,NA,1
"experimental",31,26,"hd","upper","earterner","nw","nw","h","h",1,0.6324074822478,1,NA,1
"experimental",31,27,"hd","upper","porcupine","target","target","q","h",0,0.748412735527381,1,NA,1
"experimental",31,28,"hd","upper","slightly","aftertar1","w","g","q",0,0.204851628514007,1,NA,1
"experimental",31,29,"hd","upper","elderly","aftertar2","w","g","g",1,0.474327451782301,1,NA,1
"experimental",31,30,"hd","upper","splinging","aftertar3","nw","h","h",1,0.734393989900127,1,NA,1
"experimental",32,1,"ld","lower","alarm","w","w","g","g",1,0.462813566904515,1,NA,1
"experimental",32,2,"ld","lower","colicky","w","w","g","h",0,0.522880899487063,1,NA,1
"experimental",32,3,"ld","lower","baseline","w","w","g","g",1,0.628205235349014,1,NA,1
"experimental",32,4,"ld","lower","resonant","w","w","g","g",1,0.528955998364836,1,NA,1
"experimental",32,5,"ld","lower","glassware","w","w","g","g",1,0.505969943245873,1,NA,1
"experimental",32,6,"ld","lower","gures","nw","nw","h","h",1,0.628228079061955,1,NA,1
"experimental",32,7,"ld","lower","sheepish","w","w","g","g",1,0.745396374491975,1,NA,1
"experimental",32,8,"ld","lower","bamps","nw","nw","h","h",1,0.922003635438159,1,NA,1
"experimental",32,9,"ld","lower","breiled","nw","nw","h","h",1,1.38747704448178,1,NA,1
"experimental",32,10,"ld","lower","shurk","nw","nw","h","h",1,0.706221422646195,1,NA,1
"experimental",32,11,"ld","lower","trake","nw","nw","h","h",1,0.740221449639648,1,NA,1
"experimental",32,12,"ld","lower","usage","w","w","g","g",1,0.676013448974118,1,NA,1
"experimental",32,13,"ld","lower","inforl","nw","nw","h","h",1,0.671300363959745,1,NA,1
"experimental",32,14,"ld","lower","ronic","nw","nw","h","h",1,0.602516671642661,1,NA,1
"experimental",32,15,"ld","lower","culinary","w","w","g","g",1,0.64793424285017,1,NA,1
"experimental",32,16,"ld","lower","ements","nw","nw","h","h",1,0.884635983966291,1,NA,1
"experimental",32,17,"ld","lower","paying","w","w","g","g",1,0.767344531137496,1,NA,1
"experimental",32,18,"ld","lower","neuran","nw","nw","h","h",1,0.87110755010508,1,NA,1
"experimental",32,19,"ld","lower","phambled","nw","nw","h","h",1,0.69796292996034,1,NA,1
"experimental",32,20,"ld","lower","fillings","w","w","g","g",1,0.74104282958433,1,NA,1
"experimental",32,21,"ld","lower","ofsters","nw","nw","h","h",1,0.654507930157706,1,NA,1
"experimental",32,22,"ld","lower","plogging","nw","nw","h","h",1,0.849239511881024,1,NA,1
"experimental",32,23,"ld","lower","ufionize","nw","nw","h","h",1,0.73390599549748,1,NA,1
"experimental",32,24,"ld","lower","childhood","w","w","g","g",1,1.17467609955929,1,NA,1
"experimental",32,25,"ld","lower","dredigest","nw","nw","h","g",0,0.645992528880015,1,NA,1
"experimental",32,26,"ld","lower","asthmatic","w","w","g","h",0,0.690731410402805,1,NA,1
"experimental",32,27,"ld","lower","expensive","w","w","g","g",1,1.49342312617227,1,NA,1
"experimental",32,28,"ld","lower","prohibit","w","w","g","g",1,2.05526150739752,1,NA,1
"experimental",32,29,"ld","lower","arrive","w","w","g","g",1,0.739374908618629,1,NA,1
"experimental",32,30,"ld","lower","pegend","nw","nw","h","h",1,0.811974822543561,1,NA,1
"experimental",33,1,"ld","lower","standard","w","w","g","g",1,0.658925702096894,1,NA,1
"experimental",33,2,"ld","lower","region","w","w","g","g",1,0.534712278516963,1,NA,1
"experimental",33,3,"ld","lower","fallint","nw","nw","h","h",1,0.527599612483755,1,NA,1
"experimental",33,4,"ld","lower","nimp","nw","nw","h","h",1,0.520654466934502,1,NA,1
"experimental",33,5,"ld","lower","jiggling","w","w","g","h",0,1.02542565413751,1,NA,1
"experimental",33,6,"ld","lower","tibs","nw","nw","h","h",1,0.590446261689067,1,NA,1
"experimental",33,7,"ld","lower","ounwit","nw","nw","h","h",1,0.501477018697187,1,NA,1
"experimental",33,8,"ld","lower","frequency","w","w","g","g",1,0.462830451317132,1,NA,1
"experimental",33,9,"ld","lower","encrusted","w","w","g","g",1,0.707255017012358,1,NA,1
"experimental",33,10,"ld","lower","porghum","nw","nw","h","h",1,0.549355087568983,1,NA,1
"experimental",33,11,"ld","lower","marinate","w","w","g","g",1,0.574220616137609,1,NA,1
"experimental",33,12,"ld","lower","static","w","w","g","g",1,0.525618501240388,1,NA,1
"experimental",33,13,"ld","lower","twarfs","nw","nw","h","h",1,0.550635658903047,1,NA,1
"experimental",33,14,"ld","lower","walnut","w","w","g","g",1,0.486445535905659,1,NA,1
"experimental",33,15,"ld","lower","permeable","w","w","g","h",0,0.497169160982594,1,NA,1
"experimental",33,16,"ld","lower","sodent","nw","nw","h","h",1,0.571889566024765,1,NA,1
"experimental",33,17,"ld","lower","presence","w","w","g","g",1,0.475266691762954,1,NA,1
"experimental",33,18,"ld","lower","natch","nw","nw","h","h",1,0.486591536784545,1,NA,1
"experimental",33,19,"ld","lower","brank","nw","nw","h","h",1,0.593292784644291,1,NA,1
"experimental",33,20,"ld","lower","tunneg","nw","nw","h","h",1,0.456047198036686,1,NA,1
"experimental",33,21,"ld","lower","volition","w","w","g","g",1,0.659956979332492,1,NA,1
"experimental",33,22,"ld","lower","bypassed","w","w","g","q",0,0.632067144149914,1,NA,1
"experimental",33,23,"ld","lower","tentacle","w","w","g","g",1,0.724453671369702,1,NA,1
"experimental",33,24,"ld","lower","servant","w","w","g","g",1,0.518023469019681,1,NA,1
"experimental",33,25,"ld","lower","lecked","nw","nw","h","h",1,0.615177376428619,1,NA,1
"experimental",33,26,"ld","lower","bailmenz","nw","nw","h","h",1,0.477113058324903,1,NA,1
"experimental",33,27,"ld","lower","garment","w","w","g","g",1,0.632564077386633,1,NA,1
"experimental",33,28,"ld","lower","rantho","nw","nw","h","h",1,0.741907248273492,1,NA,1
"experimental",33,29,"ld","lower","geissue","nw","nw","h","h",1,0.630585283506662,1,NA,1
"experimental",33,30,"ld","lower","rowel","nw","nw","h","h",1,0.747987644281238,1,NA,1
"experimental",34,1,"ld","lower","demise","w","w","g","g",1,0.668267780682072,1,NA,1
"experimental",34,2,"ld","lower","located","w","w","g","g",1,0.678928503068164,1,NA,1
"experimental",34,3,"ld","lower","refebs","nw","nw","h","h",1,0.602313064970076,1,NA,1
"experimental",34,4,"ld","lower","vinegar","w","w","g","g",1,1.3852946436964,1,NA,1
"experimental",34,5,"ld","lower","diatonic","w","w","g","h",0,0.712007498834282,1,NA,1
"experimental",34,6,"ld","lower","bickering","w","w","g","h",0,0.738279735436663,1,NA,1
"experimental",34,7,"ld","lower","handcuff","w","w","g","g",1,0.563103019725531,1,NA,1
"experimental",34,8,"ld","lower","forecast","w","w","g","g",1,0.570041212951764,1,NA,1
"experimental",34,9,"ld","lower","parody","w","w","g","g",1,0.633437103591859,1,NA,1
"experimental",34,10,"ld","lower","beartiset","nw","nw","h","h",1,0.814698188565671,1,NA,1
"experimental",34,11,"ld","lower","latirizes","nw","nw","h","h",1,0.804790645604953,1,NA,1
"experimental",34,12,"ld","lower","dreaded","w","w","g","g",1,0.73092870041728,1,NA,1
"experimental",34,13,"ld","lower","phraining","nw","nw","h","h",1,0.64442757004872,1,NA,1
"experimental",34,14,"ld","lower","trembla","nw","nw","h","h",1,0.5687606416177,1,NA,1
"experimental",34,15,"ld","lower","personify","w","w","g","g",1,0.63160464214161,1,NA,1
"experimental",34,16,"ld","lower","arpired","nw","nw","h","h",1,0.564995735883713,1,NA,1
"experimental",34,17,"ld","lower","fetching","w","w","g","g",1,0.588036085944623,1,NA,1
"experimental",34,18,"ld","lower","finstrel","nw","nw","h","h",1,0.586780675919726,1,NA,1
"experimental",34,19,"ld","lower","reconcile","w","w","g","g",1,0.617417382774875,1,NA,1
"experimental",34,20,"ld","lower","baults","nw","nw","h","h",1,0.566950030392036,1,NA,1
"experimental",34,21,"ld","lower","temelity","nw","nw","h","h",1,0.590875987894833,1,NA,1
"experimental",34,22,"ld","lower","unbridled","w","w","g","g",1,0.813784109428525,1,NA,1
"experimental",34,23,"ld","lower","razelle","nw","nw","h","g",0,0.915685201529414,1,NA,1
"experimental",34,24,"ld","lower","buaint","nw","nw","h","h",1,0.565656547667459,1,NA,1
"experimental",34,25,"ld","lower","opert","nw","nw","h","h",1,0.525681073311716,1,NA,1
"experimental",34,26,"ld","lower","formation","w","w","g","g",1,0.614931392716244,1,NA,1
"experimental",34,27,"ld","lower","seartfelt","nw","nw","h","h",1,0.627996993716806,1,NA,1
"experimental",34,28,"ld","lower","elpousal","nw","nw","h","h",1,0.505260795587674,1,NA,1
"experimental",34,29,"ld","lower","flamingo","target","target","q","q",1,0.682891718810424,1,NA,1
"experimental",34,30,"ld","lower","godomy","aftertar1","nw","h","h",1,0.669891007477418,1,NA,1
"experimental",35,1,"ld","lower","punctual","w","w","g","g",1,0.529408899368718,1,NA,1
"experimental",35,2,"ld","lower","swatches","w","w","g","h",0,1.08265341585502,1,NA,1
"experimental",35,3,"ld","lower","usually","w","w","g","g",1,0.549854669254273,1,NA,1
"experimental",35,4,"ld","lower","tredits","nw","nw","h","q",0,0.67038827156648,1,NA,1
"experimental",35,5,"ld","lower","curtail","w","w","g","g",1,1.06586164422333,1,NA,1
"experimental",35,6,"ld","lower","saucer","w","w","g","g",1,0.589652360184118,1,NA,1
"experimental",35,7,"ld","lower","praiged","nw","nw","h","h",1,0.884523089742288,1,NA,1
"experimental",35,8,"ld","lower","afternoon","w","w","g","g",1,1.1742904051207,1,NA,1
"experimental",35,9,"ld","lower","paterways","nw","nw","h","h",1,0.909790203906596,1,NA,1
"experimental",35,10,"ld","lower","welayed","nw","nw","h","h",1,0.862879846710712,1,NA,1
"experimental",35,11,"ld","lower","greft","nw","nw","h","h",1,1.06690450874157,1,NA,1
"experimental",35,12,"ld","lower","gaioty","nw","nw","h","h",1,1.17490155692212,1,NA,1
"experimental",35,13,"ld","lower","hinsome","nw","nw","h","h",1,0.670329672517255,1,NA,1
"experimental",35,14,"ld","lower","comply","w","w","g","g",1,0.777578506851569,1,NA,1
"experimental",35,15,"ld","lower","result","w","w","g","g",1,0.656972731929272,1,NA,1
"experimental",35,16,"ld","lower","clume","nw","nw","h","h",1,0.733086933149025,1,NA,1
"experimental",35,17,"ld","lower","moozy","nw","nw","h","h",1,0.806390035431832,1,NA,1
"experimental",35,18,"ld","lower","odacles","nw","nw","h","h",1,0.707463589729741,1,NA,1
"experimental",35,19,"ld","lower","glates","nw","nw","h","h",1,0.813549051294103,1,NA,1
"experimental",35,20,"ld","lower","fomrade","nw","nw","h","h",1,0.60292885126546,1,NA,1
"experimental",35,21,"ld","lower","abhorrent","w","w","g","g",1,0.873051581671461,1,NA,1
"experimental",35,22,"ld","lower","submit","w","w","g","g",1,0.876831385772675,1,NA,1
"experimental",35,23,"ld","lower","pariah","w","w","g","g",1,0.800220913253725,1,NA,1
"experimental",35,24,"ld","lower","casino","w","w","g","g",1,0.694816790288314,1,NA,1
"experimental",35,25,"ld","lower","doads","nw","nw","h","h",1,0.697526251198724,1,NA,1
"experimental",35,26,"ld","lower","splatter","w","w","g","g",1,0.756286858348176,1,NA,1
"experimental",35,27,"ld","lower","explosion","w","w","g","g",1,0.948357645887882,1,NA,1
"experimental",35,28,"ld","lower","hackal","nw","nw","h","h",1,0.580037481850013,1,NA,1
"experimental",35,29,"ld","lower","sweeping","w","w","g","g",1,0.603522787569091,1,NA,1
"experimental",35,30,"ld","lower","retona","nw","nw","h","h",1,0.729406780563295,1,NA,1
"experimental",36,1,"hd","upper","gelfry","nw","nw","h","h",1,0.603475775802508,1,NA,1
"experimental",36,2,"hd","upper","brimitive","nw","nw","h","h",1,0.656518175499514,1,NA,1
"experimental",36,3,"hd","upper","scarlet","w","w","g","g",1,0.652537744259462,1,NA,1
"experimental",36,4,"hd","upper","oginous","nw","nw","h","h",1,0.560540884034708,1,NA,1
"experimental",36,5,"hd","upper","maximized","w","w","g","g",1,0.624543953686953,1,NA,1
"experimental",36,6,"hd","upper","violate","w","w","g","g",1,1.87792059942149,1,NA,1
"experimental",36,7,"hd","upper","suddenly","w","w","g","g",1,0.593303378904238,1,NA,1
"experimental",36,8,"hd","upper","rascaps","nw","nw","h","h",1,0.664282714482397,1,NA,1
"experimental",36,9,"hd","upper","aligning","w","w","g","g",1,0.811967869987711,1,NA,1
"experimental",36,10,"hd","upper","withep","nw","nw","h","h",1,0.746279664104804,1,NA,1
"experimental",36,11,"hd","upper","arrival","w","w","g","g",1,1.09878437593579,1,NA,1
"experimental",36,12,"hd","upper","lasprey","nw","nw","h","h",1,0.572239504894242,1,NA,1
"experimental",36,13,"hd","upper","congraks","nw","nw","h","h",1,0.707817170536146,1,NA,1
"experimental",36,14,"hd","upper","fonducts","nw","nw","h","h",1,0.821441713487729,1,NA,1
"experimental",36,15,"hd","upper","oleandur","nw","nw","h","h",1,0.571258219191805,1,NA,1
"experimental",36,16,"hd","upper","infested","w","w","g","g",1,0.626674376660958,1,NA,1
"experimental",36,17,"hd","upper","prison","w","w","g","g",1,0.543996089138091,1,NA,1
"experimental",36,18,"hd","upper","potter","w","w","g","g",1,0.656688344432041,1,NA,1
"experimental",36,19,"hd","upper","attract","w","w","g","g",1,0.57271558069624,1,NA,1
"experimental",36,20,"hd","upper","shazer","nw","nw","h","h",1,0.523110991809517,1,NA,1
"experimental",36,21,"hd","upper","veirs","nw","nw","h","h",1,0.484600162366405,1,NA,1
"experimental",36,22,"hd","upper","gumdrep","nw","nw","h","h",1,0.486423023045063,1,NA,1
"experimental",36,23,"hd","upper","squadroim","nw","nw","h","h",1,0.408651495119557,1,NA,1
"experimental",36,24,"hd","upper","divider","w","w","g","g",1,0.415077857207507,1,NA,1
"experimental",36,25,"hd","upper","regiment","w","w","g","g",1,0.58937889803201,1,NA,1
"experimental",36,26,"hd","upper","intrude","w","w","g","g",1,0.443784106057137,1,NA,1
"experimental",36,27,"hd","upper","irregular","w","w","g","g",1,0.456511686556041,1,NA,1
"experimental",36,28,"hd","upper","kiner","nw","nw","h","h",1,0.483928425470367,1,NA,1
"experimental",36,29,"hd","upper","glamorous","w","w","g","h",0,0.414663029136136,1,NA,1
"experimental",36,30,"hd","upper","birn","nw","nw","h","h",1,0.491820094641298,1,NA,1
"experimental",37,1,"hd","upper","churnad","nw","nw","h","h",1,0.775039214873686,1,NA,1
"experimental",37,2,"hd","upper","regional","w","w","g","g",1,0.454637179151177,1,NA,1
"experimental",37,3,"hd","upper","pollute","w","w","g","g",1,0.490417359163985,1,NA,1
"experimental",37,4,"hd","upper","babies","w","w","g","g",1,0.509291217895225,1,NA,1
"experimental",37,5,"hd","upper","duries","nw","nw","h","h",1,0.582673114724457,1,NA,1
"experimental",37,6,"hd","upper","hotplate","w","w","g","g",1,0.683913063723594,1,NA,1
"experimental",37,7,"hd","upper","miteous","nw","nw","h","h",1,0.615472357720137,1,NA,1
"experimental",37,8,"hd","upper","glocked","nw","nw","h","h",1,0.733725232305005,1,NA,1
"experimental",37,9,"hd","upper","posing","w","w","g","g",1,0.64702248130925,1,NA,1
"experimental",37,10,"hd","upper","mystery","w","w","g","g",1,0.659647099673748,1,NA,1
"experimental",37,11,"hd","upper","bloves","nw","nw","h","h",1,0.655777245061472,1,NA,1
"experimental",37,12,"hd","upper","ifkling","nw","nw","h","h",1,0.611798495519906,1,NA,1
"experimental",37,13,"hd","upper","ascending","w","w","g","g",1,0.625385197577998,1,NA,1
"experimental",37,14,"hd","upper","poughest","nw","nw","h","h",1,0.910901268245652,1,NA,1
"experimental",37,15,"hd","upper","compose","w","w","g","g",1,1.02420699270442,1,NA,1
"experimental",37,16,"hd","upper","rationale","w","w","g","g",1,0.557597358012572,1,NA,1
"experimental",37,17,"hd","upper","digested","w","w","g","g",1,0.565527430968359,1,NA,1
"experimental",37,18,"hd","upper","giraffe","target","target","q","q",1,0.741648022085428,1,NA,1
"experimental",37,19,"hd","upper","dricked","aftertar1","nw","h","h",1,0.686315293656662,1,NA,1
"experimental",37,20,"hd","upper","mankind","aftertar2","w","g","g",1,0.62495977524668,1,NA,1
"experimental",37,21,"hd","upper","angry","aftertar3","w","g","g",1,1.12640604609624,1,NA,1
"experimental",37,22,"hd","upper","chyme","w","nw","h","h",1,1.76780306035653,1,NA,1
"experimental",37,23,"hd","upper","anonymous","nw","w","g","g",1,0.838264605728909,1,NA,1
"experimental",37,24,"hd","upper","peahem","w","nw","h","h",1,0.890748824458569,1,NA,1
"experimental",37,25,"hd","upper","budget","nw","w","g","g",1,0.74966317974031,1,NA,1
"experimental",37,26,"hd","upper","bluads","w","nw","h","h",1,0.709843969205394,1,NA,1
"experimental",37,27,"hd","upper","whirlpool","nw","w","g","g",1,0.720273606013507,1,NA,1
"experimental",37,28,"hd","upper","fivalve","w","nw","h","h",1,0.921496439259499,1,NA,1
"experimental",37,29,"hd","upper","ipiocy","nw","nw","h","h",1,1.16199387563393,1,NA,1
"experimental",37,30,"hd","upper","bettled","nw","nw","h","h",1,1.66643300140277,1,NA,1
"experimental",38,1,"hd","upper","failure","w","w","g","g",1,4.55842370376922,1,NA,1
"experimental",38,2,"hd","upper","advantage","w","w","g","g",1,1.05460235080682,1,NA,1
"experimental",38,3,"hd","upper","caloric","w","w","g","g",1,1.20987062016502,1,NA,1
