"procedure","block","trial","PMdemand","context","stim","role","word_type","correct_key","response","correct","reaction_time","pressedQ","pressedQ_blank","pressedQ_fix"
"LDTpractice",1,1,NA,"upper","revival","","w","g","g",1,0.398744499310851,NA,NA,NA
"LDTpractice",2,1,NA,"upper","curlecs","","nw","h","h",1,0.644582394510508,NA,NA,NA
"LDTpractice",3,1,NA,"upper","lumbigo","","nw","h","h",1,0.825577962677926,NA,NA,NA
"LDTpractice",4,1,NA,"upper","turative","","nw","h","g",0,0.557805815245956,NA,NA,NA
"LDTpractice",5,1,NA,"upper","raestro","","nw","h","h",1,0.605351160746068,NA,NA,NA
"LDTpractice",6,1,NA,"upper","reputable","","w","g","g",1,0.443710493855178,NA,NA,NA
"LDTpractice",7,1,NA,"upper","latador","","nw","h","h",1,0.567740836646408,NA,NA,NA
"LDTpractice",8,1,NA,"upper","picture","","w","g","g",1,0.464791913982481,NA,NA,NA
"LDTpractice",9,1,NA,"upper","overshoot","","w","g","g",1,0.516848723869771,NA,NA,NA
"LDTpractice",10,1,NA,"upper","slumber","","w","g","g",1,0.486049794126302,NA,NA,NA
"LDTpractice",11,1,NA,"upper","busted","","w","g","g",1,0.504645886830986,NA,NA,NA
"LDTpractice",12,1,NA,"upper","tricycle","","w","g","g",1,0.490703286603093,NA,NA,NA
"LDTpractice",13,1,NA,"upper","grocus","","nw","h","g",0,0.3574229022488,NA,NA,NA
"LDTpractice",14,1,NA,"upper","julled","","nw","h","g",0,0.517647922504693,NA,NA,NA
"LDTpractice",1,2,NA,"lower","umpire","","w","g","h",0,0.702768598217517,NA,NA,NA
"LDTpractice",2,2,NA,"lower","hasking","","nw","h","g",0,0.463380570989102,NA,NA,NA
"LDTpractice",3,2,NA,"lower","treeps","","nw","h","g",0,0.604944278486073,NA,NA,NA
"LDTpractice",4,2,NA,"lower","trotch","","nw","h","h",1,0.82697705598548,NA,NA,NA
"LDTpractice",5,2,NA,"lower","alolition","","nw","h","g",0,0.791382274124771,NA,NA,NA
"LDTpractice",6,2,NA,"lower","infinity","","w","g","g",1,0.557937580626458,NA,NA,NA
"LDTpractice",7,2,NA,"lower","lurshing","","nw","h","h",1,0.822043148800731,NA,NA,NA
"LDTpractice",8,2,NA,"lower","hiring","","w","g","g",1,0.515555572230369,NA,NA,NA
"LDTpractice",9,2,NA,"lower","grimace","","w","g","g",1,0.549616846721619,NA,NA,NA
"LDTpractice",10,2,NA,"lower","unscrew","","w","g","g",1,0.526266617234796,NA,NA,NA
"LDTpractice",11,2,NA,"lower","summary","","w","g","g",1,0.350935954134911,NA,NA,NA
"LDTpractice",12,2,NA,"lower","sponsor","","w","g","g",1,0.334730172995478,NA,NA,NA
"LDTpractice",13,2,NA,"lower","grutch","","nw","h","g",0,0.367181464098394,NA,NA,NA
"LDTpractice",14,2,NA,"lower","crinklo","","nw","h","h",1,0.598903279285878,NA,NA,NA
"experimental",1,1,"ld","lower","nelvet","nw","nw","h","h",1,0.80424824077636,NA,NA,NA
"experimental",1,2,"ld","lower","recipus","nw","nw","h","h",1,0.874145646113902,NA,NA,NA
"experimental",1,3,"ld","lower","godomy","nw","nw","h","h",1,0.653759601060301,NA,NA,NA
"experimental",1,4,"ld","lower","implode","w","w","g","g",1,0.618686251342297,NA,NA,NA
"experimental",1,5,"ld","lower","cherry","w","w","g","g",1,1.04876219434664,NA,NA,NA
"experimental",1,6,"ld","lower","miurnal","nw","nw","h","h",1,0.84613199159503,NA,NA,NA
"experimental",1,7,"ld","lower","sooled","nw","nw","h","h",1,0.843523174989969,NA,NA,NA
"experimental",1,8,"ld","lower","tibs","nw","nw","h","h",1,0.744926804676652,NA,NA,NA
"experimental",1,9,"ld","lower","haurded","nw","nw","h","h",1,0.690272103529423,NA,NA,NA
"experimental",1,10,"ld","lower","culinary","w","w","g","g",1,0.621776440646499,NA,NA,NA
"experimental",1,11,"ld","lower","arcients","nw","nw","h","h",1,0.898783730808645,NA,NA,NA
"experimental",1,12,"ld","lower","irregular","w","w","g","g",1,0.710132213775069,NA,NA,NA
"experimental",1,13,"ld","lower","tycoon","w","w","g","g",1,1.12883663224056,NA,NA,NA
"experimental",1,14,"ld","lower","combat","w","w","g","g",1,1.15485527087003,NA,NA,NA
"experimental",1,15,"ld","lower","destroy","w","w","g","g",1,0.955502310302108,NA,NA,NA
"experimental",1,16,"ld","lower","corduroy","w","w","g","g",1,1.20432147337124,NA,NA,NA
"experimental",1,17,"ld","lower","mogus","nw","nw","h","h",1,0.714915154501796,NA,NA,NA
"experimental",1,18,"ld","lower","huntry","nw","nw","h","h",1,0.669569755904377,NA,NA,NA
"experimental",1,19,"ld","lower","brighten","w","w","g","g",1,0.728838883340359,NA,NA,NA
"experimental",1,20,"ld","lower","bamps","nw","nw","h","h",1,0.794778369832784,NA,NA,NA
"experimental",1,21,"ld","lower","acting","w","w","g","g",1,0.690055585000664,NA,NA,NA
"experimental",1,22,"ld","lower","clume","nw","nw","h","h",1,0.629485690966249,NA,NA,NA
"experimental",1,23,"ld","lower","cassette","w","w","g","g",1,0.963536338880658,NA,NA,NA
"experimental",1,24,"ld","lower","euphoric","w","w","g","g",1,0.547773460391909,NA,NA,NA
"experimental",1,25,"ld","lower","epic","w","w","g","g",1,0.541774176061153,NA,NA,NA
"experimental",1,26,"ld","lower","eyesight","w","w","g","g",1,0.510500493925065,NA,NA,NA
"experimental",1,27,"ld","lower","whirling","w","w","g","g",1,0.529628944583237,NA,NA,NA
"experimental",1,28,"ld","lower","grolific","nw","nw","h","h",1,0.931680638808757,NA,NA,NA
"experimental",1,29,"ld","lower","hasks","nw","nw","h","h",1,0.708743383642286,NA,NA,NA
"experimental",1,30,"ld","lower","congraks","nw","nw","h","h",1,0.791374328546226,NA,NA,NA
"experimental",2,1,"hd","upper","remain","w","w","g","g",1,0.582986851688474,NA,NA,NA
"experimental",2,2,"hd","upper","apticle","nw","nw","h","h",1,0.655001768376678,NA,NA,NA
"experimental",2,3,"hd","upper","lasprey","nw","nw","h","h",1,0.57965531386435,NA,NA,NA
"experimental",2,4,"hd","upper","aqueduct","w","w","g","h",0,0.497373646125197,NA,NA,NA
"experimental",2,5,"hd","upper","olgies","nw","nw","h","h",1,0.542109216563404,NA,NA,NA
"experimental",2,6,"hd","upper","sarlock","nw","nw","h","h",1,0.503425238654017,NA,NA,NA
"experimental",2,7,"hd","upper","triplet","w","w","g","g",1,0.562127246521413,NA,NA,NA
"experimental",2,8,"hd","upper","fidelity","w","w","g","g",1,0.578797847498208,NA,NA,NA
"experimental",2,9,"hd","upper","vorm","nw","nw","h","g",0,0.538937916047871,NA,NA,NA
"experimental",2,10,"hd","upper","acidic","w","w","g","g",1,0.684283413458616,NA,NA,NA
"experimental",2,11,"hd","upper","halter","w","w","g","g",1,0.679694478865713,NA,NA,NA
"experimental",2,12,"hd","upper","butterfly","target","target","q","g",0,0.467234534211457,NA,NA,NA
"experimental",2,13,"hd","upper","setwixt","aftertar1","nw","h","h",1,0.525313471909612,NA,NA,NA
"experimental",2,14,"hd","upper","strenuous","aftertar2","w","g","g",1,0.721326949540526,NA,NA,NA
"experimental",2,15,"hd","upper","baults","aftertar3","nw","h","h",1,0.55526817869395,NA,NA,NA
"experimental",2,16,"hd","upper","postal","nw","w","g","g",1,0.627946224529296,NA,NA,NA
"experimental",2,17,"hd","upper","pigned","w","nw","h","h",1,0.593987911939621,NA,NA,NA
"experimental",2,18,"hd","upper","topefuls","nw","nw","h","g",0,0.673481655772775,NA,NA,NA
"experimental",2,19,"hd","upper","forfeit","nw","w","g","g",1,0.621498674154282,NA,NA,NA
"experimental",2,20,"hd","upper","removable","w","w","g","g",1,0.555783982854337,NA,NA,NA
"experimental",2,21,"hd","upper","gaining","w","w","g","g",1,0.604243075940758,NA,NA,NA
"experimental",2,22,"hd","upper","obviously","w","w","g","g",1,0.514989114832133,NA,NA,NA
"experimental",2,23,"hd","upper","buaint","w","nw","h","h",1,0.596755641046911,NA,NA,NA
"experimental",2,24,"hd","upper","ebince","nw","nw","h","h",1,0.556068370118737,NA,NA,NA
"experimental",2,25,"hd","upper","actively","nw","w","g","g",1,0.532733038067818,NA,NA,NA
"experimental",2,26,"hd","upper","pripend","w","nw","h","h",1,0.638793338555843,NA,NA,NA
"experimental",2,27,"hd","upper","lofty","nw","w","g","g",1,0.73215883364901,NA,NA,NA
"experimental",2,28,"hd","upper","unwose","w","nw","h","h",1,0.710159361828119,NA,NA,NA
"experimental",2,29,"hd","upper","thorifies","nw","nw","h","h",1,0.7280423338525,NA,NA,NA
"experimental",2,30,"hd","upper","enunciate","nw","w","g","g",1,0.642967444378883,NA,NA,NA
"experimental",3,1,"ld","lower","martial","w","w","g","g",1,0.775427442509681,NA,NA,NA
"experimental",3,2,"ld","lower","ludictous","nw","nw","h","h",1,0.935464084614068,NA,NA,NA
"experimental",3,3,"ld","lower","levels","w","w","g","g",1,0.544771334622055,NA,NA,NA
"experimental",3,4,"ld","lower","slowning","nw","nw","h","h",1,0.769728437066078,NA,NA,NA
"experimental",3,5,"ld","lower","ilterfere","nw","nw","h","h",1,0.65757714677602,NA,NA,NA
"experimental",3,6,"ld","lower","balign","nw","nw","h","h",1,0.606575119774789,NA,NA,NA
"experimental",3,7,"ld","lower","intercede","w","w","g","h",0,0.836702842265368,NA,NA,NA
"experimental",3,8,"ld","lower","mabit","nw","nw","h","h",1,0.610031800810248,NA,NA,NA
"experimental",3,9,"ld","lower","goblet","w","w","g","h",0,0.60872242692858,NA,NA,NA
"experimental",3,10,"ld","lower","mineluyer","nw","nw","h","h",1,0.559509491547942,NA,NA,NA
"experimental",3,11,"ld","lower","overflow","w","w","g","g",1,0.512081344146281,NA,NA,NA
"experimental",3,12,"ld","lower","dreaded","w","w","g","g",1,0.570849565323442,NA,NA,NA
"experimental",3,13,"ld","lower","amidst","w","w","g","g",1,0.6429856531322,NA,NA,NA
"experimental",3,14,"ld","lower","mopping","w","w","g","g",1,0.600265624467283,NA,NA,NA
"experimental",3,15,"ld","lower","publish","w","w","g","g",1,0.471658596303314,NA,NA,NA
"experimental",3,16,"ld","lower","fullity","nw","nw","h","h",1,0.947685793042183,NA,NA,NA
"experimental",3,17,"ld","lower","crimb","nw","nw","h","h",1,0.812150173354894,NA,NA,NA
"experimental",3,18,"ld","lower","cayward","nw","nw","h","h",1,0.570756204426289,NA,NA,NA
"experimental",3,19,"ld","lower","pexts","nw","nw","h","h",1,0.714669170789421,NA,NA,NA
"experimental",3,20,"ld","lower","atabaster","nw","nw","h","h",1,0.629490657243878,NA,NA,NA
"experimental",3,21,"ld","lower","arrow","w","w","g","g",1,0.51552643859759,NA,NA,NA
"experimental",3,22,"ld","lower","permeable","w","w","g","g",1,0.726249600294977,NA,NA,NA
"experimental",3,23,"ld","lower","ciping","nw","nw","h","h",1,0.600307008251548,NA,NA,NA
"experimental",3,24,"ld","lower","intrude","w","w","g","g",1,0.575648066122085,NA,NA,NA
"experimental",3,25,"ld","lower","classify","w","w","g","g",1,0.479683024343103,NA,NA,NA
"experimental",3,26,"ld","lower","phambled","nw","nw","h","h",1,0.642830382101238,NA,NA,NA
"experimental",3,27,"ld","lower","boulder","w","w","g","g",1,0.592097513377666,NA,NA,NA
"experimental",3,28,"ld","lower","erithets","nw","nw","h","h",1,0.583121596369892,NA,NA,NA
"experimental",3,29,"ld","lower","lutton","nw","nw","h","h",1,0.59952899813652,NA,NA,NA
"experimental",3,30,"ld","lower","lifetime","w","w","g","g",1,0.542884909082204,NA,NA,NA
"experimental",4,1,"ld","lower","deadly","w","w","g","g",1,0.608161266427487,NA,NA,NA
"experimental",4,2,"ld","lower","column","w","w","g","g",1,0.782992347609252,NA,NA,NA
"experimental",4,3,"ld","lower","curtail","w","w","g","g",1,0.606828717514873,NA,NA,NA
"experimental",4,4,"ld","lower","explosion","w","w","g","g",1,0.518685489427298,NA,NA,NA
"experimental",4,5,"ld","lower","admire","w","w","g","g",1,0.431608301121742,NA,NA,NA
"experimental",4,6,"ld","lower","cheathe","nw","nw","h","g",0,0.421663347631693,NA,NA,NA
"experimental",4,7,"ld","lower","unmarked","w","w","g","g",1,0.523631315212697,NA,NA,NA
"experimental",4,8,"ld","lower","outfit","w","w","g","g",1,0.485712104476988,NA,NA,NA
"experimental",4,9,"ld","lower","forgive","w","w","g","g",1,0.417157511226833,NA,NA,NA
"experimental",4,10,"ld","lower","overwork","w","w","g","g",1,0.423071049153805,NA,NA,NA
"experimental",4,11,"ld","lower","sength","nw","nw","h","g",0,0.428243325091898,NA,NA,NA
"experimental",4,12,"ld","lower","volder","nw","nw","h","h",1,0.746208037715405,NA,NA,NA
"experimental",4,13,"ld","lower","fabstand","nw","nw","h","h",1,0.579696697182953,NA,NA,NA
"experimental",4,14,"ld","lower","vaporize","w","w","g","h",0,0.560371261555701,NA,NA,NA
"experimental",4,15,"ld","lower","olerates","nw","nw","h","h",1,0.60427552042529,NA,NA,NA
"experimental",4,16,"ld","lower","eugenifs","nw","nw","h","h",1,0.618993482086807,NA,NA,NA
"experimental",4,17,"ld","lower","ronvince","nw","nw","h","h",1,0.545024933293462,NA,NA,NA
"experimental",4,18,"ld","lower","fracture","w","w","g","g",1,0.690397578291595,NA,NA,NA
"experimental",4,19,"ld","lower","allained","nw","nw","h","h",1,0.893793541938066,NA,NA,NA
"experimental",4,20,"ld","lower","regional","w","w","g","g",1,0.561144636943936,NA,NA,NA
"experimental",4,21,"ld","lower","eightiech","nw","nw","h","h",1,0.553791946265846,NA,NA,NA
"experimental",4,22,"ld","lower","slending","nw","nw","h","h",1,1.02569535886869,NA,NA,NA
"experimental",4,23,"ld","lower","soluced","nw","nw","h","h",1,0.567651448305696,NA,NA,NA
"experimental",4,24,"ld","lower","subpoena","w","w","g","h",0,0.503523897379637,NA,NA,NA
"experimental",4,25,"ld","lower","ephically","nw","nw","h","h",1,0.730300217866898,NA,NA,NA
"experimental",4,26,"ld","lower","crundle","nw","nw","h","h",1,0.707753158640116,NA,NA,NA
"experimental",4,27,"ld","lower","distrust","w","w","g","g",1,0.575084588024765,NA,NA,NA
"experimental",4,28,"ld","lower","walsams","nw","nw","h","h",1,0.534694616682827,NA,NA,NA
"experimental",4,29,"ld","lower","parlayid","nw","nw","h","h",1,0.584397863596678,NA,NA,NA
"experimental",4,30,"ld","lower","rainfall","w","w","g","g",1,0.551236763130873,NA,NA,NA
"experimental",5,1,"hd","upper","deeper","w","w","g","g",1,0.679765989538282,NA,NA,NA
"experimental",5,2,"hd","upper","record","w","w","g","g",1,0.499936112668365,NA,NA,NA
"experimental",5,3,"hd","upper","iflaid","nw","nw","h","h",1,0.607167731039226,NA,NA,NA
"experimental",5,4,"hd","upper","airmen","w","w","g","h",0,0.933923294302076,NA,NA,NA
"experimental",5,5,"hd","upper","chappef","nw","nw","h","h",1,0.590343183837831,NA,NA,NA
"experimental",5,6,"hd","upper","plunging","w","w","g","g",1,0.677700787317008,NA,NA,NA
"experimental",5,7,"hd","upper","gaioty","nw","nw","h","h",1,0.489713392686099,NA,NA,NA
"experimental",5,8,"hd","upper","illness","w","w","g","g",1,0.597009239252657,NA,NA,NA
"experimental",5,9,"hd","upper","smabled","nw","nw","h","h",1,0.836445933673531,NA,NA,NA
"experimental",5,10,"hd","upper","selongs","nw","nw","h","h",1,0.745694551151246,NA,NA,NA
"experimental",5,11,"hd","upper","acorn","w","w","g","h",0,0.923126502893865,NA,NA,NA
"experimental",5,12,"hd","upper","frader","nw","nw","h","h",1,0.693197089713067,NA,NA,NA
"experimental",5,13,"hd","upper","slutches","nw","nw","h","h",1,0.656555470544845,NA,NA,NA
"experimental",5,14,"hd","upper","spider","target","target","q","g",0,0.436239611823112,NA,NA,NA
"experimental",5,15,"hd","upper","primal","aftertar1","w","g","q",0,0.153619062621146,NA,NA,1
"experimental",5,16,"hd","upper","atsless","aftertar2","nw","h","h",1,1.186236880254,NA,NA,NA
"experimental",5,17,"hd","upper","formation","aftertar3","w","g","g",1,0.681698434054852,NA,NA,NA
"experimental",5,18,"hd","upper","serfume","w","nw","h","h",1,0.55760651268065,NA,NA,NA
"experimental",5,19,"hd","upper","gazes","nw","w","g","g",1,0.86241292534396,NA,NA,NA
"experimental",5,20,"hd","upper","disuse","w","w","g","g",1,0.586986153386533,NA,NA,NA
"experimental",5,21,"hd","upper","larger","w","w","g","g",1,0.474432615563273,NA,NA,NA
"experimental",5,22,"hd","upper","expected","w","w","g","g",1,0.494456274434924,NA,NA,NA
"experimental",5,23,"hd","upper","oleandur","w","nw","h","h",1,0.672983729746193,NA,NA,NA
"experimental",5,24,"hd","upper","minimum","nw","w","g","g",1,0.748930410481989,NA,NA,NA
"experimental",5,25,"hd","upper","podes","w","nw","h","h",1,0.574217190034688,NA,NA,NA
"experimental",5,26,"hd","upper","seartfelt","nw","nw","h","h",1,0.614316815044731,NA,NA,NA
"experimental",5,27,"hd","upper","gallon","nw","w","g","g",1,0.573028986807913,NA,NA,NA
"experimental",5,28,"hd","upper","chining","w","nw","h","h",1,0.557116862852126,NA,NA,NA
"experimental",5,29,"hd","upper","menarthe","nw","nw","h","h",1,0.7177471104078,NA,NA,NA
"experimental",5,30,"hd","upper","encounter","nw","w","g","g",1,0.607966929208487,NA,NA,NA
"experimental",6,1,"hd","upper","dariner","nw","nw","h","h",1,0.693688063882291,NA,NA,NA
"experimental",6,2,"hd","upper","drauns","nw","nw","h","h",1,0.537085589952767,NA,NA,NA
"experimental",6,3,"hd","upper","thamp","nw","nw","h","h",1,0.474429967347533,NA,NA,NA
"experimental",6,4,"hd","upper","golemic","nw","nw","h","h",1,0.430473068263382,NA,NA,NA
"experimental",6,5,"hd","upper","oalis","nw","nw","h","h",1,0.500557527411729,NA,NA,NA
"experimental",6,6,"hd","upper","elderly","w","w","g","g",1,0.591238060966134,NA,NA,NA
"experimental",6,7,"hd","upper","courier","w","w","g","h",0,0.517843914683908,NA,NA,NA
"experimental",6,8,"hd","upper","personify","w","w","g","h",0,0.528663880657405,NA,NA,NA
"experimental",6,9,"hd","upper","finish","w","w","g","g",1,0.513742974959314,NA,NA,NA
"experimental",6,10,"hd","upper","pallir","nw","nw","h","h",1,0.644559881649911,NA,NA,NA
"experimental",6,11,"hd","upper","troven","nw","nw","h","h",1,0.441676080226898,NA,NA,NA
"experimental",6,12,"hd","upper","obtuse","w","w","g","h",0,0.468756122980267,NA,NA,NA
"experimental",6,13,"hd","upper","ounside","nw","nw","h","h",1,0.57091710343957,NA,NA,NA
"experimental",6,14,"hd","upper","regards","w","w","g","g",1,0.61067837709561,NA,NA,NA
"experimental",6,15,"hd","upper","uncounted","w","w","g","h",0,0.80986348586157,NA,NA,NA
"experimental",6,16,"hd","upper","summon","w","w","g","g",1,0.592642782721668,NA,NA,NA
"experimental",6,17,"hd","upper","huzzles","nw","nw","h","h",1,0.591923702973872,NA,NA,NA
"experimental",6,18,"hd","upper","chicken","target","target","q","g",0,0.511356635950506,NA,NA,NA
"experimental",6,19,"hd","upper","nomma","aftertar1","nw","h","h",1,0.60113732656464,NA,NA,NA
"experimental",6,20,"hd","upper","bropic","aftertar2","nw","h","h",1,0.447730984073132,NA,NA,NA
"experimental",6,21,"hd","upper","couple","aftertar3","w","g","g",1,0.50109716784209,NA,NA,NA
"experimental",6,22,"hd","upper","daining","w","nw","h","g",0,0.607822915073484,NA,NA,NA
"experimental",6,23,"hd","upper","artifact","nw","w","g","g",1,0.526543058920652,NA,NA,NA
"experimental",6,24,"hd","upper","penalize","w","w","g","g",1,0.592616959474981,NA,NA,NA
"experimental",6,25,"hd","upper","uncorked","w","w","g","g",1,0.599982892628759,NA,NA,NA
"experimental",6,26,"hd","upper","misobeyed","w","nw","h","h",1,0.623309285379946,NA,NA,NA
"experimental",6,27,"hd","upper","parent","nw","w","g","g",1,0.468662430532277,NA,NA,NA
"experimental",6,28,"hd","upper","companion","w","w","g","g",1,0.623891634400934,NA,NA,NA
"experimental",6,29,"hd","upper","handcuff","w","w","g","g",1,0.64478070428595,NA,NA,NA
"experimental",6,30,"hd","upper","blassed","w","nw","h","h",1,0.714491717983037,NA,NA,NA
"experimental",7,1,"hd","upper","clarms","nw","nw","h","h",1,0.733352003153414,NA,NA,NA
"experimental",7,2,"hd","upper","bentler","nw","nw","h","h",1,0.70332975871861,NA,NA,NA
"experimental",7,3,"hd","upper","dusmy","nw","nw","h","h",1,0.530020266771317,NA,NA,NA
"experimental",7,4,"hd","upper","snife","nw","nw","h","h",1,0.57110581221059,NA,NA,NA
"experimental",7,5,"hd","upper","volition","w","w","g","g",1,0.57911004498601,NA,NA,NA
"experimental",7,6,"hd","upper","recollect","w","w","g","g",1,0.531090278644115,NA,NA,NA
"experimental",7,7,"hd","upper","harfing","nw","nw","h","h",1,0.76522657321766,NA,NA,NA
"experimental",7,8,"hd","upper","fillings","w","w","g","h",0,0.701987608801574,NA,NA,NA
"experimental",7,9,"hd","upper","pender","nw","nw","h","h",1,0.584572005551308,NA,NA,NA
"experimental",7,10,"hd","upper","pillage","w","w","g","h",0,0.592030968517065,NA,NA,NA
"experimental",7,11,"hd","upper","dests","nw","nw","h","h",1,0.615434500854462,NA,NA,NA
"experimental",7,12,"hd","upper","lizard","target","target","q","g",0,0.558060075622052,NA,NA,NA
"experimental",7,13,"hd","upper","hostade","aftertar1","nw","h","q",0,0.0539304981939495,NA,NA,1
"experimental",7,14,"hd","upper","tharcely","aftertar2","nw","h","h",1,1.16256683878601,NA,NA,NA
"experimental",7,15,"hd","upper","alticles","aftertar3","nw","h","h",1,0.883273854386061,NA,NA,NA
"experimental",7,16,"hd","upper","showdown","nw","w","g","g",1,0.863278006203473,NA,NA,NA
"experimental",7,17,"hd","upper","category","w","w","g","g",1,0.635970983188599,NA,NA,NA
"experimental",7,18,"hd","upper","talate","w","nw","h","h",1,0.832940916065127,NA,NA,NA
"experimental",7,19,"hd","upper","tablet","nw","w","g","g",1,0.663360574748367,NA,NA,NA
"experimental",7,20,"hd","upper","matter","w","w","g","g",1,0.580078749917448,NA,NA,NA
"experimental",7,21,"hd","upper","potatoes","w","w","g","g",1,0.53211129270494,NA,NA,NA
"experimental",7,22,"hd","upper","havel","w","nw","h","h",1,0.597233041189611,NA,NA,NA
"experimental",7,23,"hd","upper","sodent","nw","nw","h","h",1,0.556558019481599,NA,NA,NA
"experimental",7,24,"hd","upper","talent","nw","w","g","g",1,0.845229168888181,NA,NA,NA
"experimental",7,25,"hd","upper","turntable","w","w","g","g",1,0.794846239034086,NA,NA,NA
"experimental",7,26,"hd","upper","emotion","w","w","g","g",1,0.473342408891767,NA,NA,NA
"experimental",7,27,"hd","upper","amms","w","nw","h","h",1,0.693351036403328,NA,NA,NA
"experimental",7,28,"hd","upper","monopoly","nw","w","g","g",1,0.857005259953439,NA,NA,NA
"experimental",7,29,"hd","upper","rivet","w","w","g","g",1,0.549559572245926,NA,NA,NA
"experimental",7,30,"hd","upper","irfirm","w","nw","h","g",0,0.558818552643061,NA,NA,NA
"experimental",8,1,"ld","lower","pakened","nw","nw","h","h",1,0.68730540247634,NA,NA,NA
"experimental",8,2,"ld","lower","calming","w","w","g","g",1,0.602859542705119,NA,NA,NA
"experimental",8,3,"ld","lower","fuhrek","nw","nw","h","h",1,0.641414073295891,NA,NA,NA
"experimental",8,4,"ld","lower","gumdrep","nw","nw","h","h",1,0.670835097786039,NA,NA,NA
"experimental",8,5,"ld","lower","kilotin","nw","nw","h","h",1,0.562892013695091,NA,NA,NA
"experimental",8,6,"ld","lower","scabry","nw","nw","h","h",1,0.546747480053455,NA,NA,NA
"experimental",8,7,"ld","lower","calcify","w","w","g","h",0,0.612049992196262,NA,NA,NA
"experimental",8,8,"ld","lower","undertake","w","w","g","g",1,0.442653061822057,NA,NA,NA
"experimental",8,9,"ld","lower","cills","nw","nw","h","h",1,0.495959985535592,NA,NA,NA
"experimental",8,10,"ld","lower","arranged","w","w","g","g",1,0.675342589616776,NA,NA,NA
"experimental",8,11,"ld","lower","fetching","w","w","g","g",1,0.519408542662859,NA,NA,NA
"experimental",8,12,"ld","lower","hinsome","nw","nw","h","h",1,0.625484733376652,NA,NA,NA
"experimental",8,13,"ld","lower","embrace","w","w","g","g",1,0.535121032036841,NA,NA,NA
"experimental",8,14,"ld","lower","surface","w","w","g","g",1,0.464810122735798,NA,NA,NA
"experimental",8,15,"ld","lower","protest","w","w","g","g",1,0.741551565472037,NA,NA,NA
"experimental",8,16,"ld","lower","carbled","nw","nw","h","h",1,0.64601360168308,NA,NA,NA
"experimental",8,17,"ld","lower","digest","w","w","g","g",1,0.579395425505936,NA,NA,NA
"experimental",8,18,"ld","lower","gensions","nw","nw","h","h",1,0.531295540742576,NA,NA,NA
"experimental",8,19,"ld","lower","moral","w","w","g","g",1,0.492700951173902,NA,NA,NA
"experimental",8,20,"ld","lower","upstairs","w","w","g","g",1,0.535413034260273,NA,NA,NA
"experimental",8,21,"ld","lower","seasoning","w","w","g","g",1,0.472683583386242,NA,NA,NA
"experimental",8,22,"ld","lower","omners","nw","nw","h","h",1,0.612760132644325,NA,NA,NA
"experimental",8,23,"ld","lower","undimmec","nw","nw","h","h",1,0.602876096498221,NA,NA,NA
"experimental",8,24,"ld","lower","etcess","nw","nw","h","h",1,0.560851641464978,NA,NA,NA
"experimental",8,25,"ld","lower","provide","w","w","g","g",1,0.712867498397827,NA,NA,NA
"experimental",8,26,"ld","lower","mosary","nw","nw","h","h",1,0.553915103897452,NA,NA,NA
"experimental",8,27,"ld","lower","planofoad","nw","nw","h","h",1,0.642609559930861,NA,NA,NA
"experimental",8,28,"ld","lower","describe","w","w","g","g",1,0.503475560806692,NA,NA,NA
"experimental",8,29,"ld","lower","release","w","w","g","g",1,0.489304855000228,NA,NA,NA
"experimental",8,30,"ld","lower","mustled","nw","nw","h","h",1,0.700674924068153,NA,NA,NA
"experimental",9,1,"hd","upper","pollute","w","w","g","g",1,0.798863749951124,NA,NA,NA
"experimental",9,2,"hd","upper","shivering","w","w","g","g",1,0.446071670856327,NA,NA,NA
"experimental",9,3,"hd","upper","foster","w","w","g","g",1,0.442707357462496,NA,NA,NA
"experimental",9,4,"hd","upper","shests","nw","nw","h","h",1,0.639403827954084,NA,NA,NA
"experimental",9,5,"hd","upper","scack","nw","nw","h","h",1,0.804115151520818,NA,NA,NA
"experimental",9,6,"hd","upper","audience","w","w","g","g",1,0.506210514344275,NA,NA,NA
"experimental",9,7,"hd","upper","tyena","nw","nw","h","h",1,0.972273555584252,NA,NA,NA
"experimental",9,8,"hd","upper","befin","nw","nw","h","h",1,0.587585386820138,NA,NA,NA
"experimental",9,9,"hd","upper","chraps","nw","nw","h","h",1,0.514293871819973,NA,NA,NA
"experimental",9,10,"hd","upper","sazer","nw","nw","h","h",1,0.612358878366649,NA,NA,NA
"experimental",9,11,"hd","upper","cripet","nw","nw","h","h",1,0.881373193114996,NA,NA,NA
"experimental",9,12,"hd","upper","wrestle","w","w","g","g",1,0.581510619260371,NA,NA,NA
"experimental",9,13,"hd","upper","labitable","nw","nw","h","h",1,0.836738597601652,NA,NA,NA
"experimental",9,14,"hd","upper","gelfry","nw","nw","h","h",1,0.553387711755931,NA,NA,NA
"experimental",9,15,"hd","upper","hustle","w","w","g","g",1,0.617409321479499,NA,NA,NA
"experimental",9,16,"hd","upper","asthmatic","w","w","g","h",0,0.591519137378782,NA,NA,NA
"experimental",9,17,"hd","upper","defeat","w","w","g","g",1,0.638940663542598,NA,NA,NA
"experimental",9,18,"hd","upper","mitro","nw","nw","h","h",1,0.531500471755862,NA,NA,NA
"experimental",9,19,"hd","upper","slooch","nw","nw","h","h",1,0.645555072464049,NA,NA,NA
"experimental",9,20,"hd","upper","mystery","w","w","g","g",1,0.561416112817824,NA,NA,NA
"experimental",9,21,"hd","upper","disease","w","w","g","g",1,0.489380007609725,NA,NA,NA
"experimental",9,22,"hd","upper","draze","nw","nw","h","h",1,0.539972172584385,NA,NA,NA
"experimental",9,23,"hd","upper","graiking","nw","nw","h","h",1,0.548680586740375,NA,NA,NA
"experimental",9,24,"hd","upper","flougy","nw","nw","h","h",1,0.51747874636203,NA,NA,NA
"experimental",9,25,"hd","upper","grefab","nw","nw","h","h",1,0.471496373414993,NA,NA,NA
"experimental",9,26,"hd","upper","comment","w","w","g","g",1,0.586900738067925,NA,NA,NA
"experimental",9,27,"hd","upper","oppose","w","w","g","g",1,0.665594290476292,NA,NA,NA
"experimental",9,28,"hd","upper","pressures","w","w","g","g",1,0.50162455951795,NA,NA,NA
"experimental",9,29,"hd","upper","saturate","w","w","g","g",1,0.512322692666203,NA,NA,NA
"experimental",9,30,"hd","upper","intended","w","w","g","g",1,0.43344010040164,NA,NA,NA
"experimental",10,1,"ld","lower","rational","w","w","g","g",1,0.503616265021265,NA,NA,NA
"experimental",10,2,"ld","lower","derisury","nw","nw","h","h",1,0.577615603338927,NA,NA,NA
"experimental",10,3,"ld","lower","heaviest","w","w","g","g",1,0.545667536091059,NA,NA,NA
"experimental",10,4,"ld","lower","ilcurring","nw","nw","h","h",1,0.611028315965086,NA,NA,NA
"experimental",10,5,"ld","lower","smallash","nw","nw","h","h",1,0.480199490208179,NA,NA,NA
"experimental",10,6,"ld","lower","nature","w","w","g","g",1,0.563614073675126,NA,NA,NA
"experimental",10,7,"ld","lower","crazy","w","w","g","g",1,0.475470845587552,NA,NA,NA
"experimental",10,8,"ld","lower","pamine","nw","nw","h","h",1,0.57489422429353,NA,NA,NA
"experimental",10,9,"ld","lower","aicline","nw","nw","h","h",1,0.566249705851078,NA,NA,NA
"experimental",10,10,"ld","lower","egcused","nw","nw","h","h",1,0.534179143607616,NA,NA,NA
"experimental",10,11,"ld","lower","trewl","nw","nw","h","h",1,0.38365143770352,NA,NA,NA
"experimental",10,12,"ld","lower","rejoiced","w","w","g","g",1,0.654919332358986,NA,NA,NA
"experimental",10,13,"ld","lower","jinds","nw","nw","h","h",1,0.528798294719309,NA,NA,NA
"experimental",10,14,"ld","lower","impirt","nw","nw","h","h",1,0.612256578635424,NA,NA,NA
"experimental",10,15,"ld","lower","giving","w","w","g","g",1,0.593531369231641,NA,NA,NA
"experimental",10,16,"ld","lower","arrigns","nw","nw","h","h",1,0.58403832372278,NA,NA,NA
"experimental",10,17,"ld","lower","miability","nw","nw","h","h",1,0.607377959415317,NA,NA,NA
"experimental",10,18,"ld","lower","stable","w","w","g","g",1,0.565466067753732,NA,NA,NA
"experimental",10,19,"ld","lower","rationale","w","w","g","g",1,0.446415981743485,NA,NA,NA
"experimental",10,20,"ld","lower","sweeping","w","w","g","g",1,0.538954138290137,NA,NA,NA
"experimental",10,21,"ld","lower","vintnel","nw","nw","h","h",1,0.515167229343206,NA,NA,NA
"experimental",10,22,"ld","lower","rangel","nw","nw","h","h",1,0.573739127255976,NA,NA,NA
"experimental",10,23,"ld","lower","organize","w","w","g","g",1,0.549719146918505,NA,NA,NA
"experimental",10,24,"ld","lower","stretches","w","w","g","g",1,0.854438820388168,NA,NA,NA
"experimental",10,25,"ld","lower","forbid","w","w","g","g",1,0.553516828455031,NA,NA,NA
"experimental",10,26,"ld","lower","resume","w","w","g","g",1,0.401478459127247,NA,NA,NA
"experimental",10,27,"ld","lower","seighing","nw","nw","h","g",0,0.328187606297433,NA,NA,NA
"experimental",10,28,"ld","lower","rabbit","target","target","q","g",0,0.809561552014202,NA,NA,NA
"experimental",10,29,"ld","lower","lenie","aftertar1","nw","h","q",0,0.0955248959362507,NA,NA,1
"experimental",10,30,"ld","lower","handbook","aftertar2","w","g","h",0,0.0662677492946386,NA,NA,NA
"experimental",11,1,"ld","lower","create","w","w","g","g",1,0.606408592313528,NA,NA,NA
"experimental",11,2,"ld","lower","trembles","w","w","g","g",1,0.539951977320015,NA,NA,NA
"experimental",11,3,"ld","lower","demise","w","w","g","h",0,0.596654996275902,NA,NA,NA
"experimental",11,4,"ld","lower","catacomb","w","w","g","h",0,0.643182969652116,NA,NA,NA
"experimental",11,5,"ld","lower","glapula","nw","nw","h","h",1,0.623847933020443,NA,NA,NA
"experimental",11,6,"ld","lower","scarlet","w","w","g","g",1,0.581258014310151,NA,NA,NA
"experimental",11,7,"ld","lower","elbalm","nw","nw","h","h",1,1.18856263393536,NA,NA,NA
"experimental",11,8,"ld","lower","mining","w","w","g","g",1,0.811216561123729,NA,NA,NA
"experimental",11,9,"ld","lower","snorls","nw","nw","h","h",1,0.953266938682646,NA,NA,NA
"experimental",11,10,"ld","lower","submit","w","w","g","g",1,0.57635820703581,NA,NA,NA
"experimental",11,11,"ld","lower","lavilion","nw","nw","h","h",1,0.759718263056129,NA,NA,NA
"experimental",11,12,"ld","lower","downtrund","nw","nw","h","h",1,0.975765330251306,NA,NA,NA
"experimental",11,13,"ld","lower","perform","w","w","g","g",1,0.583062004297972,NA,NA,NA
"experimental",11,14,"ld","lower","marvel","w","w","g","g",1,0.526363288983703,NA,NA,NA
"experimental",11,15,"ld","lower","blerapies","nw","nw","h","h",1,0.639747807756066,NA,NA,NA
"experimental",11,16,"ld","lower","thrapping","nw","nw","h","h",1,1.17242770083249,NA,NA,NA
"experimental",11,17,"ld","lower","blanned","nw","nw","h","h",1,0.547606601379812,NA,NA,NA
"experimental",11,18,"ld","lower","tinker","w","w","g","g",1,0.691343108657748,NA,NA,NA
"experimental",11,19,"ld","lower","hecture","nw","nw","h","h",1,0.622071091085672,NA,NA,NA
"experimental",11,20,"ld","lower","confined","w","w","g","g",1,0.875134215224534,NA,NA,NA
"experimental",11,21,"ld","lower","ezulated","nw","nw","h","h",1,0.622434603516012,NA,NA,NA
"experimental",11,22,"ld","lower","neuran","nw","nw","h","h",1,0.707777326926589,NA,NA,NA
"experimental",11,23,"ld","lower","agony","w","w","g","g",1,1.10985186556354,NA,NA,NA
"experimental",11,24,"ld","lower","outlaved","nw","nw","h","h",1,2.03208927623928,NA,NA,NA
"experimental",11,25,"ld","lower","deceit","w","w","g","g",1,0.597904778085649,NA,NA,NA
"experimental",11,26,"ld","lower","reloant","nw","nw","h","h",1,0.763719551730901,NA,NA,NA
"experimental",11,27,"ld","lower","pegend","nw","nw","h","h",1,0.579729142133147,NA,NA,NA
"experimental",11,28,"ld","lower","forgery","w","w","g","g",1,0.850984124932438,NA,NA,NA
"experimental",11,29,"ld","lower","doads","nw","nw","h","h",1,0.719698425382376,NA,NA,NA
"experimental",11,30,"ld","lower","dominion","w","w","g","g",1,0.895860731136054,NA,NA,NA
"experimental",12,1,"hd","upper","contund","nw","nw","h","h",1,0.707806792110205,NA,NA,NA
"experimental",12,2,"hd","upper","reborn","w","w","g","g",1,0.533974543679506,NA,NA,NA
"experimental",12,3,"hd","upper","pocket","w","w","g","g",1,0.599192633293569,NA,NA,NA
"experimental",12,4,"hd","upper","become","w","w","g","g",1,0.621846626978368,NA,NA,NA
"experimental",12,5,"hd","upper","infusion","w","w","g","g",1,0.499129630625248,NA,NA,NA
"experimental",12,6,"hd","upper","wienegs","nw","nw","h","h",1,0.630572587717324,NA,NA,NA
"experimental",12,7,"hd","upper","fivalve","nw","nw","h","h",1,0.804210167843848,NA,NA,NA
"experimental",12,8,"hd","upper","actual","w","w","g","g",1,0.61000531539321,NA,NA,NA
"experimental",12,9,"hd","upper","command","w","w","g","g",1,0.504010566975921,NA,NA,NA
"experimental",12,10,"hd","upper","ignore","w","w","g","g",1,0.386105644982308,NA,NA,NA
"experimental",12,11,"hd","upper","whirlpool","w","w","g","g",1,0.495848414953798,NA,NA,NA
"experimental",12,12,"hd","upper","horks","nw","nw","h","h",1,0.874462478328496,NA,NA,NA
"experimental",12,13,"hd","upper","surfaced","w","w","g","g",1,0.557845212519169,NA,NA,NA
"experimental",12,14,"hd","upper","expounded","w","w","g","g",1,0.462569785304368,NA,NA,NA
"experimental",12,15,"hd","upper","earterner","nw","nw","h","h",1,0.69856304069981,NA,NA,NA
"experimental",12,16,"hd","upper","flooted","nw","nw","h","h",1,0.773330457042903,NA,NA,NA
"experimental",12,17,"hd","upper","lawsuit","w","w","g","g",1,0.604650620836765,NA,NA,NA
"experimental",12,18,"hd","upper","snays","nw","nw","h","h",1,0.626640492118895,NA,NA,NA
"experimental",12,19,"hd","upper","terming","w","w","g","h",0,0.583869479130954,NA,NA,NA
"experimental",12,20,"hd","upper","fards","nw","nw","h","h",1,0.567068437580019,NA,NA,NA
"experimental",12,21,"hd","upper","ecistle","nw","nw","h","h",1,0.495348833501339,NA,NA,NA
"experimental",12,22,"hd","upper","corg","nw","nw","h","h",1,0.585698630195111,NA,NA,NA
"experimental",12,23,"hd","upper","pypecast","nw","nw","h","h",1,0.526292108930647,NA,NA,NA
"experimental",12,24,"hd","upper","spaceship","w","w","g","g",1,0.633841884322464,NA,NA,NA
"experimental",12,25,"hd","upper","ucility","nw","nw","h","h",1,0.671140674035996,NA,NA,NA
"experimental",12,26,"hd","upper","coyote","target","target","q","g",0,0.570580076426268,1,1,NA
"experimental",12,27,"hd","upper","pammed","aftertar1","nw","h","h",1,0.617935719899833,NA,NA,NA
"experimental",12,28,"hd","upper","inforl","aftertar2","nw","h","h",1,0.656066151801497,NA,NA,NA
"experimental",12,29,"hd","upper","priant","aftertar3","nw","h","h",1,0.523146962746978,NA,NA,NA
"experimental",12,30,"hd","upper","bamboo","nw","w","g","g",1,0.861040317453444,NA,NA,NA
"experimental",13,1,"ld","lower","mebase","nw","nw","h","h",1,0.617925456725061,NA,NA,NA
"experimental",13,2,"ld","lower","profats","nw","nw","h","h",1,0.575578541494906,NA,NA,NA
"experimental",13,3,"ld","lower","wimpid","nw","nw","h","h",1,0.519310877192765,NA,NA,NA
"experimental",13,4,"ld","lower","hatred","w","w","g","g",1,0.689512633252889,NA,NA,NA
"experimental",13,5,"ld","lower","happen","w","w","g","g",1,0.436726944055408,NA,NA,NA
"experimental",13,6,"ld","lower","exclusion","w","w","g","g",1,0.496495653409511,NA,NA,NA
"experimental",13,7,"ld","lower","sording","nw","nw","h","h",1,0.651123305782676,NA,NA,NA
"experimental",13,8,"ld","lower","ragtam","nw","nw","h","h",1,0.479634688235819,NA,NA,NA
"experimental",13,9,"ld","lower","germeated","nw","nw","h","h",1,0.499005149118602,NA,NA,NA
"experimental",13,10,"ld","lower","exploit","w","w","g","g",1,0.517466166056693,NA,NA,NA
"experimental",13,11,"ld","lower","praiged","nw","nw","h","h",1,0.574828672222793,NA,NA,NA
"experimental",13,12,"ld","lower","parody","w","w","g","g",1,0.558377901092172,NA,NA,NA
"experimental",13,13,"ld","lower","analysis","w","w","g","g",1,0.526205369271338,NA,NA,NA
"experimental",13,14,"ld","lower","railroad","w","w","g","g",1,0.623500973917544,NA,NA,NA
"experimental",13,15,"ld","lower","armada","w","w","g","h",0,0.587981344666332,NA,NA,NA
"experimental",13,16,"ld","lower","brother","w","w","g","g",1,0.658671326935291,NA,NA,NA
"experimental",13,17,"ld","lower","enabled","w","w","g","g",1,0.646674744784832,NA,NA,NA
"experimental",13,18,"ld","lower","checkout","w","w","g","g",1,0.4671372002922,NA,NA,NA
"experimental",13,19,"ld","lower","egpended","nw","nw","h","h",1,0.783559797797352,NA,NA,NA
"experimental",13,20,"ld","lower","inside","w","w","g","g",1,0.53482075361535,NA,NA,NA
"experimental",13,21,"ld","lower","rander","nw","nw","h","h",1,0.8475744551979,NA,NA,NA
"experimental",13,22,"ld","lower","doxing","nw","nw","h","g",0,1.16382655315101,NA,NA,NA
"experimental",13,23,"ld","lower","prame","nw","nw","h","h",1,0.69228168670088,NA,NA,NA
"experimental",13,24,"ld","lower","populace","w","w","g","h",0,1.10206183418632,NA,NA,NA
"experimental",13,25,"ld","lower","pleamed","nw","nw","h","h",1,0.624745458364487,NA,NA,NA
"experimental",13,26,"ld","lower","spiud","nw","nw","h","h",1,0.662087948992848,NA,NA,NA
"experimental",13,27,"ld","lower","country","w","w","g","g",1,0.466388324275613,NA,NA,NA
"experimental",13,28,"ld","lower","dounger","nw","nw","h","h",1,0.566883701365441,NA,NA,NA
"experimental",13,29,"ld","lower","ofsters","nw","nw","h","h",1,0.662934158928692,NA,NA,NA
"experimental",13,30,"ld","lower","amaze","w","w","g","g",1,0.72299453895539,NA,NA,NA
"experimental",14,1,"ld","lower","slogan","w","w","g","g",1,0.676150064449757,NA,NA,NA
"experimental",14,2,"ld","lower","realize","w","w","g","g",1,0.39942318899557,NA,NA,NA
"experimental",14,3,"ld","lower","naxis","nw","nw","h","h",1,0.662177006248385,NA,NA,NA
"experimental",14,4,"ld","lower","nimp","nw","nw","h","h",1,0.626179976388812,NA,NA,NA
"experimental",14,5,"ld","lower","extruded","w","w","g","h",0,1.00758097041398,NA,NA,NA
"experimental",14,6,"ld","lower","gettle","nw","nw","h","h",1,0.501502064522356,NA,NA,NA
"experimental",14,7,"ld","lower","seeming","w","w","g","h",0,0.493916964158416,NA,NA,NA
"experimental",14,8,"ld","lower","meteoroid","w","w","g","g",1,0.848204146604985,NA,NA,NA
"experimental",14,9,"ld","lower","earmaff","nw","nw","h","h",1,0.607302476186305,NA,NA,NA
"experimental",14,10,"ld","lower","padicals","nw","nw","h","h",1,0.589361235965043,NA,NA,NA
"experimental",14,11,"ld","lower","except","w","w","g","g",1,0.588099204469472,NA,NA,NA
"experimental",14,12,"ld","lower","gures","nw","nw","h","h",1,0.562910553999245,NA,NA,NA
"experimental",14,13,"ld","lower","clypaper","nw","nw","h","h",1,0.514978521037847,NA,NA,NA
"experimental",14,14,"ld","lower","telecast","w","w","g","g",1,0.645607381127775,NA,NA,NA
"experimental",14,15,"ld","lower","leather","w","w","g","g",1,0.522310353815556,NA,NA,NA
"experimental",14,16,"ld","lower","arrested","w","w","g","g",1,0.491512747947127,NA,NA,NA
"experimental",14,17,"ld","lower","acroad","nw","nw","h","h",1,0.903000213205814,NA,NA,NA
"experimental",14,18,"ld","lower","scatter","w","w","g","g",1,0.608025528490543,NA,NA,NA
"experimental",14,19,"ld","lower","carony","nw","nw","h","h",1,0.590028338134289,NA,NA,NA
"experimental",14,20,"ld","lower","rearrange","w","w","g","g",1,0.532846594695002,NA,NA,NA
"experimental",14,21,"ld","lower","drobate","nw","nw","h","h",1,0.702685500029474,NA,NA,NA
"experimental",14,22,"ld","lower","castaway","w","w","g","g",1,0.688502213452011,NA,NA,NA
"experimental",14,23,"ld","lower","function","w","w","g","g",1,0.491207172162831,NA,NA,NA
"experimental",14,24,"ld","lower","fuintets","nw","nw","h","h",1,0.581952595151961,NA,NA,NA
"experimental",14,25,"ld","lower","micron","w","w","g","h",0,0.669293644838035,NA,NA,NA
"experimental",14,26,"ld","lower","churnad","nw","nw","h","h",1,0.583816508296877,NA,NA,NA
"experimental",14,27,"ld","lower","theles","nw","nw","h","h",1,0.455134659074247,NA,NA,NA
"experimental",14,28,"ld","lower","bumbo","nw","nw","h","h",1,0.643099209293723,NA,NA,NA
"experimental",14,29,"ld","lower","nopping","nw","nw","h","h",1,0.616051611490548,NA,NA,NA
"experimental",14,30,"ld","lower","icepick","w","w","g","g",1,0.670520914718509,NA,NA,NA
"experimental",15,1,"hd","upper","sullen","w","w","g","g",1,0.794289051555097,NA,NA,NA
"experimental",15,2,"hd","upper","edasion","nw","nw","h","h",1,0.5283881011419,NA,NA,NA
"experimental",15,3,"hd","upper","gremieres","nw","nw","h","h",1,0.489720676559955,NA,NA,NA
"experimental",15,4,"hd","upper","mixture","w","w","g","g",1,0.532503608148545,NA,NA,NA
"experimental",15,5,"hd","upper","splum","nw","nw","h","h",1,0.62192343454808,NA,NA,NA
"experimental",15,6,"hd","upper","etuip","nw","nw","h","h",1,0.563190637156367,NA,NA,NA
"experimental",15,7,"hd","upper","party","w","w","g","g",1,0.67529028095305,NA,NA,NA
"experimental",15,8,"hd","upper","sequence","w","w","g","g",1,0.598667559213936,NA,NA,NA
"experimental",15,9,"hd","upper","ahead","w","w","g","g",1,0.581254703458399,NA,NA,NA
"experimental",15,10,"hd","upper","glates","nw","nw","h","h",1,0.732739527244121,NA,NA,NA
"experimental",15,11,"hd","upper","fraft","nw","nw","h","h",1,0.565174728166312,NA,NA,NA
"experimental",15,12,"hd","upper","triangle","w","w","g","g",1,0.509202044922858,NA,NA,NA
"experimental",15,13,"hd","upper","plashed","nw","nw","h","h",1,0.63915155408904,NA,NA,NA
"experimental",15,14,"hd","upper","owner","w","w","g","g",1,0.563843172509223,NA,NA,NA
"experimental",15,15,"hd","upper","fonducts","nw","nw","h","h",1,0.667922692373395,NA,NA,NA
"experimental",15,16,"hd","upper","satisfies","w","w","g","g",1,0.503340816125274,NA,NA,NA
"experimental",15,17,"hd","upper","catgup","nw","nw","h","h",1,0.70531616685912,NA,NA,NA
"experimental",15,18,"hd","upper","gorilla","target","target","q","g",0,0.723343816120178,1,1,NA
"experimental",15,19,"hd","upper","filny","aftertar1","nw","h","h",1,0.556693757884204,NA,NA,NA
"experimental",15,20,"hd","upper","system","aftertar2","w","g","g",1,0.612754504662007,NA,NA,NA
"experimental",15,21,"hd","upper","surround","aftertar3","w","g","g",1,0.433921142481267,NA,NA,NA
"experimental",15,22,"hd","upper","diatonic","w","w","g","h",0,0.558474572841078,NA,NA,NA
"experimental",15,23,"hd","upper","terrify","w","w","g","g",1,0.43848988134414,NA,NA,NA
"experimental",15,24,"hd","upper","breiled","w","nw","h","h",1,0.539253754541278,NA,NA,NA
"experimental",15,25,"hd","upper","amplifier","nw","w","g","g",1,0.7078653909266,NA,NA,NA
"experimental",15,26,"hd","upper","lonnote","w","nw","h","h",1,0.645921564660966,NA,NA,NA
"experimental",15,27,"hd","upper","condensed","nw","w","g","g",1,0.538544276263565,NA,NA,NA
"experimental",15,28,"hd","upper","mennel","w","nw","h","h",1,0.561422402504832,NA,NA,NA
"experimental",15,29,"hd","upper","hanling","nw","nw","h","h",1,0.579444754403085,NA,NA,NA
"experimental",15,30,"hd","upper","elalt","nw","nw","h","h",1,0.521958428435028,NA,NA,NA
"experimental",16,1,"hd","upper","migmarole","nw","nw","h","h",1,0.595360520295799,NA,NA,NA
"experimental",16,2,"hd","upper","casino","w","w","g","g",1,0.59405180811882,NA,NA,NA
"experimental",16,3,"hd","upper","glattery","nw","nw","h","h",1,0.584764025174081,NA,NA,NA
"experimental",16,4,"hd","upper","unspoken","w","w","g","g",1,0.550679575651884,NA,NA,NA
"experimental",16,5,"hd","upper","glassware","w","w","g","g",1,0.583507621660829,NA,NA,NA
"experimental",16,6,"hd","upper","greakable","nw","nw","h","h",1,0.646152981091291,NA,NA,NA
"experimental",16,7,"hd","upper","kickoff","w","w","g","g",1,0.530621817335486,NA,NA,NA
"experimental",16,8,"hd","upper","digar","nw","nw","h","h",1,0.492161641363055,NA,NA,NA
"experimental",16,9,"hd","upper","reddar","nw","nw","h","h",1,0.462678044568747,NA,NA,NA
"experimental",16,10,"hd","upper","itfidels","nw","nw","h","h",1,0.530641681049019,NA,NA,NA
"experimental",16,11,"hd","upper","otiates","nw","nw","h","h",1,0.492802589200437,NA,NA,NA
"experimental",16,12,"hd","upper","visible","w","w","g","g",1,0.583483784459531,NA,NA,NA
"experimental",16,13,"hd","upper","antwers","nw","nw","h","h",1,0.486811912618577,NA,NA,NA
"experimental",16,14,"hd","upper","peanimate","nw","nw","h","h",1,0.625599944964051,NA,NA,NA
"experimental",16,15,"hd","upper","etber","nw","nw","h","h",1,0.422915447037667,NA,NA,NA
"experimental",16,16,"hd","upper","ethical","w","w","g","g",1,0.499446793925017,NA,NA,NA
"experimental",16,17,"hd","upper","porcupine","target","target","q","h",0,0.501959600485861,NA,NA,NA
"experimental",16,18,"hd","upper","bickering","aftertar1","w","g","g",1,0.743994185701013,NA,NA,NA
"experimental",16,19,"hd","upper","mandate","aftertar2","w","g","g",1,0.560662932228297,NA,NA,NA
"experimental",16,20,"hd","upper","fragment","aftertar3","w","g","g",1,0.552589837927371,NA,NA,NA
"experimental",16,21,"hd","upper","yearnungs","w","nw","h","h",1,1.12026726687327,NA,NA,NA
"experimental",16,22,"hd","upper","undue","nw","w","g","g",1,1.39422972407192,NA,NA,NA
"experimental",16,23,"hd","upper","trake","w","nw","h","h",1,0.680811833590269,NA,NA,NA
"experimental",16,24,"hd","upper","probable","nw","w","g","g",1,0.627314877696335,NA,NA,NA
"experimental",16,25,"hd","upper","kiner","w","nw","h","h",1,0.512715008575469,NA,NA,NA
"experimental",16,26,"hd","upper","senior","nw","w","g","h",0,0.67465463001281,NA,NA,NA
"experimental",16,27,"hd","upper","coupling","w","w","g","g",1,0.606164595112205,NA,NA,NA
"experimental",16,28,"hd","upper","revising","w","w","g","g",1,0.524049785453826,NA,NA,NA
"experimental",16,29,"hd","upper","footstep","w","w","g","g",1,0.445458532776684,NA,NA,NA
"experimental",16,30,"hd","upper","mubby","w","nw","h","h",1,0.690138352103531,NA,NA,NA
"experimental",17,1,"hd","upper","withep","nw","nw","h","h",1,0.56467878818512,NA,NA,NA
"experimental",17,2,"hd","upper","ascending","w","w","g","g",1,0.628728207666427,NA,NA,NA
"experimental",17,3,"hd","upper","consonant","w","w","g","g",1,0.59421701123938,NA,NA,NA
"experimental",17,4,"hd","upper","trecious","nw","nw","h","h",1,0.816873521078378,NA,NA,NA
"experimental",17,5,"hd","upper","absent","w","w","g","g",1,0.614856124855578,NA,NA,NA
"experimental",17,6,"hd","upper","contain","w","w","g","g",1,0.49293005047366,NA,NA,NA
"experimental",17,7,"hd","upper","bloves","nw","nw","h","h",1,0.559597886633128,NA,NA,NA
"experimental",17,8,"hd","upper","rarely","w","w","g","g",1,0.495697448495775,NA,NA,NA
"experimental",17,9,"hd","upper","sporidic","nw","nw","h","h",1,0.51341157592833,NA,NA,NA
"experimental",17,10,"hd","upper","resent","w","w","g","g",1,0.475604927632958,NA,NA,NA
"experimental",17,11,"hd","upper","susher","nw","nw","h","h",1,0.558787432033569,NA,NA,NA
"experimental",17,12,"hd","upper","frequency","w","w","g","g",1,0.48679436603561,NA,NA,NA
"experimental",17,13,"hd","upper","oginous","nw","nw","h","h",1,0.4893664335832,NA,NA,NA
"experimental",17,14,"hd","upper","tiery","nw","nw","h","h",1,0.700298499315977,NA,NA,NA
"experimental",17,15,"hd","upper","miracle","w","w","g","g",1,0.549885673914105,NA,NA,NA
"experimental",17,16,"hd","upper","daylight","w","w","g","g",1,1.30428581731394,NA,NA,NA
"experimental",17,17,"hd","upper","heuls","nw","nw","h","h",1,0.554276960901916,NA,NA,NA
"experimental",17,18,"hd","upper","tuckel","nw","nw","h","h",1,0.626338888891041,NA,NA,NA
"experimental",17,19,"hd","upper","contusiok","nw","nw","h","h",1,0.566910517867655,NA,NA,NA
"experimental",17,20,"hd","upper","monkey","target","target","q","g",0,0.551136118359864,NA,NA,NA
"experimental",17,21,"hd","upper","decant","aftertar1","w","g","h",0,0.606894931290299,NA,NA,NA
"experimental",17,22,"hd","upper","ugifies","aftertar2","nw","h","h",1,0.917029884178191,NA,NA,NA
"experimental",17,23,"hd","upper","derived","aftertar3","w","g","g",1,0.878653468564153,NA,NA,NA
"experimental",17,24,"hd","upper","rualify","w","nw","h","h",1,0.762308539822698,NA,NA,NA
"experimental",17,25,"hd","upper","preserve","nw","w","g","g",1,0.626386562827975,NA,NA,NA
"experimental",17,26,"hd","upper","slooping","w","nw","h","h",1,0.527724309824407,NA,NA,NA
"experimental",17,27,"hd","upper","ifling","nw","nw","h","h",1,0.561075774487108,NA,NA,NA
"experimental",17,28,"hd","upper","dredigest","nw","nw","h","h",1,0.632241501938552,NA,NA,NA
"experimental",17,29,"hd","upper","bother","nw","w","g","g",1,0.669492286164314,NA,NA,NA
"experimental",17,30,"hd","upper","module","w","w","g","g",1,0.56086819479242,NA,NA,NA
"experimental",18,1,"ld","lower","defensa","nw","nw","h","h",1,0.609717617742717,NA,NA,NA
"experimental",18,2,"ld","lower","metebing","nw","nw","h","h",1,0.487758435774595,NA,NA,NA
"experimental",18,3,"ld","lower","require","w","w","g","g",1,0.553654883988202,NA,NA,NA
"experimental",18,4,"ld","lower","fuestion","nw","nw","h","h",1,0.561568734701723,NA,NA,NA
"experimental",18,5,"ld","lower","colored","w","w","g","g",1,0.577501385007054,NA,NA,NA
"experimental",18,6,"ld","lower","intersect","w","w","g","g",1,0.472902419045568,NA,NA,NA
"experimental",18,7,"ld","lower","single","w","w","g","g",1,0.492050733882934,NA,NA,NA
"experimental",18,8,"ld","lower","machinery","w","w","g","g",1,0.510389255359769,NA,NA,NA
"experimental",18,9,"ld","lower","maintain","w","w","g","g",1,0.441051686182618,NA,NA,NA
"experimental",18,10,"ld","lower","refebs","nw","nw","h","h",1,0.468489281833172,NA,NA,NA
"experimental",18,11,"ld","lower","teliever","nw","nw","h","h",1,0.617026275955141,NA,NA,NA
"experimental",18,12,"ld","lower","gonesty","nw","nw","h","h",1,0.526944313198328,NA,NA,NA
"experimental",18,13,"ld","lower","plogging","nw","nw","h","h",1,0.591662489809096,NA,NA,NA
"experimental",18,14,"ld","lower","galashes","nw","nw","h","h",1,0.534315543714911,NA,NA,NA
"experimental",18,15,"ld","lower","despise","w","w","g","g",1,0.615001132711768,NA,NA,NA
"experimental",18,16,"ld","lower","harmful","w","w","g","g",1,0.493003878276795,NA,NA,NA
"experimental",18,17,"ld","lower","nostril","w","w","g","g",1,0.591704204678535,NA,NA,NA
"experimental",18,18,"ld","lower","portify","nw","nw","h","h",1,0.646421808283776,NA,NA,NA
"experimental",18,19,"ld","lower","huffle","nw","nw","h","h",1,0.635145961306989,NA,NA,NA
"experimental",18,20,"ld","lower","season","w","w","g","g",1,0.503829142078757,NA,NA,NA
"experimental",18,21,"ld","lower","sustain","w","w","g","g",1,0.4098647441715,NA,NA,NA
"experimental",18,22,"ld","lower","dabble","w","w","g","g",1,0.631919372361153,NA,NA,NA
"experimental",18,23,"ld","lower","vinegar","w","w","g","g",1,0.516521628946066,NA,NA,NA
"experimental",18,24,"ld","lower","coster","nw","nw","h","h",1,0.726344616618007,NA,NA,NA
"experimental",18,25,"ld","lower","encrusted","w","w","g","h",0,0.655387462582439,NA,NA,NA
"experimental",18,26,"ld","lower","clooped","nw","nw","h","h",1,0.523765066638589,NA,NA,NA
"experimental",18,27,"ld","lower","tasher","nw","nw","h","h",1,0.501134910155088,NA,NA,NA
"experimental",18,28,"ld","lower","poyride","nw","nw","h","h",1,0.455159489065409,NA,NA,NA
"experimental",18,29,"ld","lower","ottans","nw","nw","h","h",1,0.492019613273442,NA,NA,NA
"experimental",18,30,"ld","lower","vivid","w","w","g","g",1,0.982564475387335,NA,NA,NA
"experimental",19,1,"hd","upper","donastic","nw","nw","h","h",1,0.707680986262858,NA,NA,NA
"experimental",19,2,"hd","upper","vented","w","w","g","g",1,0.599737571086735,NA,NA,NA
"experimental",19,3,"hd","upper","hegacy","nw","nw","h","h",1,0.486422245856375,NA,NA,NA
"experimental",19,4,"hd","upper","vergas","nw","nw","h","h",1,0.53712498722598,NA,NA,NA
"experimental",19,5,"hd","upper","neally","nw","nw","h","h",1,0.617923801764846,NA,NA,NA
"experimental",19,6,"hd","upper","facienda","nw","nw","h","h",1,0.559303236193955,NA,NA,NA
"experimental",19,7,"hd","upper","statute","w","w","g","g",1,0.59043555194512,NA,NA,NA
"experimental",19,8,"hd","upper","student","w","w","g","g",1,0.52509927097708,NA,NA,NA
"experimental",19,9,"hd","upper","fatho","nw","nw","h","h",1,0.550521987024695,NA,NA,NA
"experimental",19,10,"hd","upper","cobalt","w","w","g","h",0,0.526429171673954,NA,NA,NA
"experimental",19,11,"hd","upper","dehydrate","w","w","g","g",1,0.591907480265945,NA,NA,NA
"experimental",19,12,"hd","upper","ulcer","w","w","g","h",0,0.502085075248033,NA,NA,NA
"experimental",19,13,"hd","upper","shazer","nw","nw","h","h",1,0.584500163793564,NA,NA,NA
"experimental",19,14,"hd","upper","cartles","nw","nw","h","h",1,0.544059538748115,NA,NA,NA
"experimental",19,15,"hd","upper","gepealed","nw","nw","h","h",1,0.504635954275727,NA,NA,NA
"experimental",19,16,"hd","upper","runabouk","nw","nw","h","h",1,0.475022579543293,NA,NA,NA
"experimental",19,17,"hd","upper","flicking","w","w","g","g",1,0.629775706678629,NA,NA,NA
"experimental",19,18,"hd","upper","louches","nw","nw","h","h",1,0.619311307556927,NA,NA,NA
"experimental",19,19,"hd","upper","lentils","w","w","g","g",1,0.568428134080023,NA,NA,NA
"experimental",19,20,"hd","upper","hubris","w","w","g","h",0,0.607795105315745,NA,NA,NA
"experimental",19,21,"hd","upper","ipiocy","nw","nw","h","h",1,0.741856479085982,NA,NA,NA
"experimental",19,22,"hd","upper","caloric","w","w","g","h",0,0.606554262340069,NA,NA,NA
"experimental",19,23,"hd","upper","numbled","nw","nw","h","g",0,0.588636528234929,NA,NA,NA
"experimental",19,24,"hd","upper","digested","w","w","g","g",1,0.451214813161641,NA,NA,NA
"experimental",19,25,"hd","upper","tucker","w","w","g","g",1,0.600266286637634,NA,NA,NA
"experimental",19,26,"hd","upper","igiom","nw","nw","h","h",1,1.02177915535867,NA,NA,NA
"experimental",19,27,"hd","upper","midday","w","w","g","g",1,0.651065369136631,NA,NA,NA
"experimental",19,28,"hd","upper","oldest","w","w","g","g",1,0.55109341070056,NA,NA,NA
"experimental",19,29,"hd","upper","sprea","nw","nw","h","h",1,0.751746806316078,NA,NA,NA
"experimental",19,30,"hd","upper","budget","w","w","g","g",1,0.544512770604342,NA,NA,NA
"experimental",20,1,"ld","lower","elpired","nw","nw","h","h",1,0.537416657898575,NA,NA,NA
"experimental",20,2,"ld","lower","spigat","nw","nw","h","h",1,0.465514636132866,NA,NA,NA
"experimental",20,3,"ld","lower","relaying","w","w","g","g",1,0.613183899782598,NA,NA,NA
"experimental",20,4,"ld","lower","ausht","nw","nw","h","h",1,0.467309024650604,NA,NA,NA
"experimental",20,5,"ld","lower","decency","w","w","g","g",1,0.510580612812191,NA,NA,NA
"experimental",20,6,"ld","lower","boutique","w","w","g","g",1,0.536583690904081,NA,NA,NA
"experimental",20,7,"ld","lower","drine","nw","nw","h","g",0,0.498025849461555,NA,NA,NA
"experimental",20,8,"ld","lower","funtair","nw","nw","h","h",1,0.652285686228424,NA,NA,NA
"experimental",20,9,"ld","lower","brimitive","nw","nw","h","h",1,0.464702194556594,NA,NA,NA
"experimental",20,10,"ld","lower","befriend","w","w","g","h",0,0.557002313435078,NA,NA,NA
"experimental",20,11,"ld","lower","pived","nw","nw","h","h",1,0.620783235877752,NA,NA,NA
"experimental",20,12,"ld","lower","razelle","nw","nw","h","h",1,0.497280284296721,NA,NA,NA
"experimental",20,13,"ld","lower","lecked","nw","nw","h","h",1,0.483893547672778,NA,NA,NA
"experimental",20,14,"ld","lower","blueberry","w","w","g","g",1,0.558599716518074,NA,NA,NA
"experimental",20,15,"ld","lower","moyeur","nw","nw","h","h",1,0.686642273329198,NA,NA,NA
"experimental",20,16,"ld","lower","female","w","w","g","g",1,0.521352243144065,NA,NA,NA
"experimental",20,17,"ld","lower","entertain","w","w","g","g",1,0.506641564890742,NA,NA,NA
"experimental",20,18,"ld","lower","misest","nw","nw","h","h",1,0.564679119270295,NA,NA,NA
"experimental",20,19,"ld","lower","kangaroo","target","target","q","g",0,0.652776659931988,1,1,NA
"experimental",20,20,"ld","lower","aviation","aftertar1","w","g","g",1,0.640776766929775,NA,NA,NA
"experimental",20,21,"ld","lower","stooping","aftertar2","w","g","g",1,0.708109057042748,NA,NA,NA
"experimental",20,22,"ld","lower","airbis","aftertar3","nw","h","h",1,0.877173263579607,NA,NA,NA
"experimental",20,23,"ld","lower","temelity","nw","nw","h","h",1,0.578557492233813,NA,NA,NA
"experimental",20,24,"ld","lower","shockwave","nw","w","g","g",1,0.850188568234444,NA,NA,NA
"experimental",20,25,"ld","lower","region","w","w","g","g",1,0.478622613009065,NA,NA,NA
"experimental",20,26,"ld","lower","rudder","w","w","g","h",0,0.62605450162664,NA,NA,NA
"experimental",20,27,"ld","lower","typical","w","w","g","g",1,0.455420701764524,NA,NA,NA
"experimental",20,28,"ld","lower","design","w","w","g","g",1,0.459523296914995,NA,NA,NA
"experimental",20,29,"ld","lower","gymnasium","w","w","g","g",1,0.607496813405305,NA,NA,NA
"experimental",20,30,"ld","lower","podges","w","nw","h","h",1,0.557567446492612,NA,NA,NA
"experimental",21,1,"ld","lower","butler","w","w","g","g",1,0.65345568023622,NA,NA,NA
"experimental",21,2,"ld","lower","legalosm","nw","nw","h","h",1,0.601481968536973,NA,NA,NA
"experimental",21,3,"ld","lower","throttle","w","w","g","h",0,0.487509473226964,NA,NA,NA
"experimental",21,4,"ld","lower","rumblos","nw","nw","h","h",1,0.506235013250262,NA,NA,NA
"experimental",21,5,"ld","lower","cessation","w","w","g","h",0,0.548286615405232,NA,NA,NA
"experimental",21,6,"ld","lower","pregs","nw","nw","h","h",1,0.556063734926283,NA,NA,NA
"experimental",21,7,"ld","lower","ignoble","w","w","g","h",0,0.668042538687587,NA,NA,NA
"experimental",21,8,"ld","lower","hangar","w","w","g","h",0,0.551317543257028,NA,NA,NA
"experimental",21,9,"ld","lower","disperse","w","w","g","h",0,0.535322983749211,NA,NA,NA
"experimental",21,10,"ld","lower","grieving","w","w","g","g",1,0.864015294704586,NA,NA,NA
"experimental",21,11,"ld","lower","nimono","nw","nw","h","h",1,0.532030842732638,NA,NA,NA
"experimental",21,12,"ld","lower","puggers","nw","nw","h","h",1,0.565397205762565,NA,NA,NA
"experimental",21,13,"ld","lower","quickel","nw","nw","h","h",1,0.669413160532713,NA,NA,NA
"experimental",21,14,"ld","lower","trallion","nw","nw","h","h",1,0.520712619181722,NA,NA,NA
"experimental",21,15,"ld","lower","punctual","w","w","g","g",1,0.681233283597976,NA,NA,NA
"experimental",21,16,"ld","lower","bloodless","w","w","g","g",1,0.852451418526471,NA,NA,NA
"experimental",21,17,"ld","lower","pracking","nw","nw","h","h",1,0.680611206684262,NA,NA,NA
"experimental",21,18,"ld","lower","legalize","w","w","g","g",1,0.50794895272702,NA,NA,NA
"experimental",21,19,"ld","lower","educate","w","w","g","g",1,0.469996634870768,NA,NA,NA
"experimental",21,20,"ld","lower","stelled","nw","nw","h","h",1,0.641404803376645,NA,NA,NA
"experimental",21,21,"ld","lower","inversion","w","w","g","h",0,0.702140562236309,NA,NA,NA
"experimental",21,22,"ld","lower","scrooner","nw","nw","h","h",1,0.520157418213785,NA,NA,NA
"experimental",21,23,"ld","lower","endgume","nw","nw","h","h",1,0.54566621221602,NA,NA,NA
"experimental",21,24,"ld","lower","optional","w","w","g","g",1,0.473436763044447,NA,NA,NA
"experimental",21,25,"ld","lower","birn","nw","nw","h","h",1,0.61246084747836,NA,NA,NA
"experimental",21,26,"ld","lower","alchemist","w","w","g","g",1,0.610640304163098,NA,NA,NA
"experimental",21,27,"ld","lower","veirs","nw","nw","h","h",1,0.592668605968356,NA,NA,NA
"experimental",21,28,"ld","lower","geissue","nw","nw","h","h",1,0.471342095639557,NA,NA,NA
"experimental",21,29,"ld","lower","nearsipe","nw","nw","h","h",1,0.538671405985951,NA,NA,NA
"experimental",21,30,"ld","lower","attract","w","w","g","h",0,0.499394154176116,NA,NA,NA
"experimental",22,1,"hd","upper","trocess","nw","nw","h","h",1,0.557867062743753,NA,NA,NA
"experimental",22,2,"hd","upper","pretzel","w","w","g","g",1,0.557879312429577,NA,NA,NA
"experimental",22,3,"hd","upper","efficient","w","w","g","g",1,0.461954330094159,NA,NA,NA
"experimental",22,4,"hd","upper","movie","w","w","g","g",1,0.473892975132912,NA,NA,NA
"experimental",22,5,"hd","upper","uncarled","nw","nw","h","h",1,0.533233282156289,NA,NA,NA
"experimental",22,6,"hd","upper","egect","nw","nw","h","h",1,0.50258896080777,NA,NA,NA
"experimental",22,7,"hd","upper","garment","w","w","g","g",1,0.728671363089234,NA,NA,NA
"experimental",22,8,"hd","upper","guivers","nw","nw","h","h",1,0.586065122392029,NA,NA,NA
"experimental",22,9,"hd","upper","tipoff","w","w","g","g",1,1.32799260737374,NA,NA,NA
"experimental",22,10,"hd","upper","expired","w","w","g","g",1,0.465237862896174,NA,NA,NA
"experimental",22,11,"hd","upper","lignpost","nw","nw","h","h",1,1.14914202922955,NA,NA,NA
"experimental",22,12,"hd","upper","jaguar","target","target","q","g",0,0.821925288531929,1,1,NA
"experimental",22,13,"hd","upper","twarfs","aftertar1","nw","h","h",1,0.659328165929765,NA,NA,NA
"experimental",22,14,"hd","upper","arpired","aftertar2","nw","h","h",1,0.719368350692093,NA,NA,NA
"experimental",22,15,"hd","upper","offonents","aftertar3","nw","h","h",1,0.577003790065646,NA,NA,NA
"experimental",22,16,"hd","upper","teamwork","nw","w","g","g",1,0.59209519578144,NA,NA,NA
"experimental",22,17,"hd","upper","number","w","w","g","g",1,0.590829522814602,NA,NA,NA
"experimental",22,18,"hd","upper","result","w","w","g","g",1,0.556700379122049,NA,NA,NA
"experimental",22,19,"hd","upper","target","w","w","g","g",1,0.460013939999044,NA,NA,NA
"experimental",22,20,"hd","upper","leuter","w","nw","h","h",1,0.592426263727248,NA,NA,NA
"experimental",22,21,"hd","upper","rillains","nw","nw","h","h",1,0.558932439889759,NA,NA,NA
"experimental",22,22,"hd","upper","tenpince","nw","nw","h","h",1,0.647108774632215,NA,NA,NA
"experimental",22,23,"hd","upper","unsmilung","nw","nw","h","h",1,0.507805269211531,NA,NA,NA
"experimental",22,24,"hd","upper","itself","nw","w","g","g",1,0.565878909546882,NA,NA,NA
"experimental",22,25,"hd","upper","posing","w","w","g","g",1,0.557862428016961,NA,NA,NA
"experimental",22,26,"hd","upper","pariah","w","w","g","h",0,0.797863262239844,NA,NA,NA
"experimental",22,27,"hd","upper","atble","w","nw","h","h",1,0.516594795044512,NA,NA,NA
"experimental",22,28,"hd","upper","stifle","nw","w","g","g",1,0.797708984464407,NA,NA,NA
"experimental",22,29,"hd","upper","ganter","w","nw","h","h",1,0.604288432281464,NA,NA,NA
"experimental",22,30,"hd","upper","glamorous","nw","w","g","g",1,0.554300135932863,NA,NA,NA
"experimental",23,1,"ld","lower","joses","nw","nw","h","h",1,0.499150819145143,NA,NA,NA
"experimental",23,2,"ld","lower","persona","w","w","g","g",1,0.677945446688682,NA,NA,NA
"experimental",23,3,"ld","lower","scrobby","nw","nw","h","h",1,0.60839003464207,NA,NA,NA
"experimental",23,4,"ld","lower","batire","nw","nw","h","h",1,0.662255469243973,NA,NA,NA
"experimental",23,5,"ld","lower","nogwhell","nw","nw","h","h",1,0.530345706734806,NA,NA,NA
"experimental",23,6,"ld","lower","sonnet","w","w","g","h",0,0.483788268174976,NA,NA,NA
"experimental",23,7,"ld","lower","equitable","w","w","g","g",1,0.510438253637403,NA,NA,NA
"experimental",23,8,"ld","lower","attrove","nw","nw","h","h",1,0.664493820630014,NA,NA,NA
"experimental",23,9,"ld","lower","vibrate","w","w","g","g",1,0.676608262583613,NA,NA,NA
"experimental",23,10,"ld","lower","rasuals","nw","nw","h","h",1,0.535794093739241,NA,NA,NA
"experimental",23,11,"ld","lower","bluads","nw","nw","h","h",1,0.528642361517996,NA,NA,NA
"experimental",23,12,"ld","lower","elpousal","nw","nw","h","h",1,0.505990023259073,NA,NA,NA
"experimental",23,13,"ld","lower","delegate","w","w","g","g",1,0.691122617572546,NA,NA,NA
"experimental",23,14,"ld","lower","cabinet","w","w","g","g",1,0.47772243944928,NA,NA,NA
"experimental",23,15,"ld","lower","ebuating","nw","nw","h","h",1,0.601063829381019,NA,NA,NA
"experimental",23,16,"ld","lower","bypassed","w","w","g","g",1,0.559098305180669,NA,NA,NA
"experimental",23,17,"ld","lower","remover","w","w","g","g",1,0.583209991455078,NA,NA,NA
"experimental",23,18,"ld","lower","veclors","nw","nw","h","h",1,0.606521817855537,NA,NA,NA
"experimental",23,19,"ld","lower","jungle","w","w","g","g",1,0.732613059226424,NA,NA,NA
"experimental",23,20,"ld","lower","ebciting","nw","nw","h","h",1,0.50993536086753,NA,NA,NA
"experimental",23,21,"ld","lower","presently","w","w","g","g",1,0.51201479928568,NA,NA,NA
"experimental",23,22,"ld","lower","grenavier","nw","nw","h","h",1,0.538050653412938,NA,NA,NA
"experimental",23,23,"ld","lower","chemical","w","w","g","g",1,0.433682773262262,NA,NA,NA
"experimental",23,24,"ld","lower","abraid","nw","nw","h","h",1,0.534922060091048,NA,NA,NA
"experimental",23,25,"ld","lower","remade","w","w","g","g",1,0.463737793266773,NA,NA,NA
"experimental",23,26,"ld","lower","riosk","nw","nw","h","h",1,0.523646213114262,NA,NA,NA
"experimental",23,27,"ld","lower","cavern","w","w","g","g",1,0.812987444456667,NA,NA,NA
"experimental",23,28,"ld","lower","plapping","nw","nw","h","h",1,0.563355840276927,NA,NA,NA
"experimental",23,29,"ld","lower","massacre","w","w","g","g",1,0.601972611155361,NA,NA,NA
"experimental",23,30,"ld","lower","apology","w","w","g","g",1,0.609816607087851,NA,NA,NA
"experimental",24,1,"ld","lower","prominent","w","w","g","g",1,0.543091826606542,NA,NA,NA
"experimental",24,2,"ld","lower","renown","w","w","g","g",1,0.59180518053472,NA,NA,NA
"experimental",24,3,"ld","lower","superstar","w","w","g","g",1,0.422536042984575,NA,NA,NA
"experimental",24,4,"ld","lower","laser","w","w","g","g",1,0.443848880007863,NA,NA,NA
"experimental",24,5,"ld","lower","sputter","w","w","g","g",1,0.888597098179162,NA,NA,NA
"experimental",24,6,"ld","lower","pepperoni","w","w","g","g",1,0.547295728698373,NA,NA,NA
"experimental",24,7,"ld","lower","frowsed","nw","nw","h","h",1,0.66708277259022,NA,NA,NA
"experimental",24,8,"ld","lower","culer","nw","nw","h","h",1,0.550557080190629,NA,NA,NA
"experimental",24,9,"ld","lower","blipover","nw","nw","h","h",1,0.478432248812169,NA,NA,NA
"experimental",24,10,"ld","lower","repayment","w","w","g","g",1,0.545826448593289,NA,NA,NA
"experimental",24,11,"ld","lower","tining","nw","nw","h","h",1,0.666616959962994,NA,NA,NA
"experimental",24,12,"ld","lower","define","w","w","g","g",1,0.478554082103074,NA,NA,NA
"experimental",24,13,"ld","lower","theery","nw","nw","h","h",1,0.577951306477189,NA,NA,NA
"experimental",24,14,"ld","lower","oppose","w","w","g","g",1,0.505365959368646,NA,NA,NA
"experimental",24,15,"ld","lower","partner","w","w","g","g",1,0.507344091311097,NA,NA,NA
"experimental",24,16,"ld","lower","affluent","w","w","g","g",1,0.469249083660543,NA,NA,NA
"experimental",24,17,"ld","lower","acoustic","w","w","g","g",1,0.520731821656227,NA,NA,NA
"experimental",24,18,"ld","lower","poars","nw","nw","h","h",1,0.649144843220711,NA,NA,NA
"experimental",24,19,"ld","lower","appain","nw","nw","h","h",1,0.685772226657718,NA,NA,NA
"experimental",24,20,"ld","lower","brudent","nw","nw","h","h",1,0.664446477778256,NA,NA,NA
"experimental",24,21,"ld","lower","image","w","w","g","g",1,0.523961389902979,NA,NA,NA
"experimental",24,22,"ld","lower","lovud","nw","nw","h","h",1,0.509753604419529,NA,NA,NA
"experimental",24,23,"ld","lower","joadbed","nw","nw","h","h",1,0.471839691046625,NA,NA,NA
"experimental",24,24,"ld","lower","tinion","nw","nw","h","h",1,0.483211878687143,NA,NA,NA
"experimental",24,25,"ld","lower","dishwater","w","w","g","g",1,0.614626363385469,NA,NA,NA
"experimental",24,26,"ld","lower","felevance","nw","nw","h","h",1,0.580667058005929,NA,NA,NA
"experimental",24,27,"ld","lower","urgent","w","w","g","g",1,0.571043571457267,NA,NA,NA
"experimental",24,28,"ld","lower","sonkers","nw","nw","h","h",1,0.594454387202859,NA,NA,NA
"experimental",24,29,"ld","lower","hodels","nw","nw","h","h",1,0.737213249783963,NA,NA,NA
"experimental",24,30,"ld","lower","hackal","nw","nw","h","h",1,0.513894604053348,NA,NA,NA
"experimental",25,1,"hd","upper","zears","nw","nw","h","h",1,0.540724690072238,NA,NA,NA
"experimental",25,2,"hd","upper","reason","w","w","g","g",1,0.493417051620781,NA,NA,NA
"experimental",25,3,"hd","upper","dileting","nw","nw","h","h",1,0.439218893181533,NA,NA,NA
"experimental",25,4,"hd","upper","snocks","nw","nw","h","h",1,0.579833759460598,NA,NA,NA
"experimental",25,5,"hd","upper","bengths","nw","nw","h","h",1,0.515260590706021,NA,NA,NA
"experimental",25,6,"hd","upper","schides","nw","nw","h","h",1,0.533304130658507,NA,NA,NA
"experimental",25,7,"hd","upper","usage","w","w","g","g",1,0.590586849953979,NA,NA,NA
"experimental",25,8,"hd","upper","gunrunker","nw","nw","h","h",1,0.605551126413047,NA,NA,NA
"experimental",25,9,"hd","upper","aligning","w","w","g","h",0,0.450813227333128,NA,NA,NA
"experimental",25,10,"hd","upper","senalize","nw","nw","h","h",1,0.495323672425002,NA,NA,NA
"experimental",25,11,"hd","upper","cervical","w","w","g","h",0,0.506014190614223,NA,NA,NA
"experimental",25,12,"hd","upper","lightels","nw","nw","h","h",1,0.499245173297822,NA,NA,NA
"experimental",25,13,"hd","upper","compose","w","w","g","g",1,0.525784912984818,NA,NA,NA
"experimental",25,14,"hd","upper","dialect","w","w","g","g",1,0.51899007242173,NA,NA,NA
"experimental",25,15,"hd","upper","pimorous","nw","nw","h","h",1,0.664411053527147,NA,NA,NA
"experimental",25,16,"hd","upper","gigglod","nw","nw","h","h",1,0.532175519969314,NA,NA,NA
"experimental",25,17,"hd","upper","suddenly","w","w","g","g",1,0.525848809164017,NA,NA,NA
"experimental",25,18,"hd","upper","mantos","nw","nw","h","h",1,0.543203396722674,NA,NA,NA
"experimental",25,19,"hd","upper","assent","w","w","g","g",1,0.640053714159876,NA,NA,NA
"experimental",25,20,"hd","upper","correct","w","w","g","g",1,0.468729306478053,NA,NA,NA
"experimental",25,21,"hd","upper","porghum","nw","nw","h","h",1,0.543648352380842,NA,NA,NA
"experimental",25,22,"hd","upper","walnut","w","w","g","g",1,0.679895437322557,NA,NA,NA
"experimental",25,23,"hd","upper","caterpillar","target","target","q","g",0,0.731200060807168,NA,NA,NA
"experimental",25,24,"hd","upper","chonemic","aftertar1","nw","h","h",1,0.604555604513735,NA,NA,NA
"experimental",25,25,"hd","upper","sliding","aftertar2","w","g","g",1,0.530592683237046,NA,NA,NA
"experimental",25,26,"hd","upper","plymie","aftertar3","nw","h","h",1,0.57995294360444,NA,NA,NA
"experimental",25,27,"hd","upper","entropy","nw","w","g","g",1,0.68333457224071,NA,NA,NA
"experimental",25,28,"hd","upper","official","w","w","g","g",1,0.438685211818665,NA,NA,NA
"experimental",25,29,"hd","upper","expensive","w","w","g","g",1,0.419542525429279,NA,NA,NA
"experimental",25,30,"hd","upper","standard","w","w","g","g",1,0.39280116558075,NA,NA,NA
"experimental",26,1,"hd","upper","flieves","nw","nw","h","h",1,0.567306806333363,NA,NA,NA
"experimental",26,2,"hd","upper","brongs","nw","nw","h","h",1,0.470649832393974,NA,NA,NA
"experimental",26,3,"hd","upper","currowing","nw","nw","h","h",1,0.490029894281179,NA,NA,NA
"experimental",26,4,"hd","upper","outrank","w","w","g","h",0,0.412708949763328,NA,NA,NA
"experimental",26,5,"hd","upper","mandlers","nw","nw","h","h",1,0.546785222366452,NA,NA,NA
"experimental",26,6,"hd","upper","dialogues","w","w","g","h",0,0.499496453907341,NA,NA,NA
"experimental",26,7,"hd","upper","ordinary","w","w","g","g",1,0.597325078211725,NA,NA,NA
"experimental",26,8,"hd","upper","urgency","w","w","g","g",1,0.411839896347374,NA,NA,NA
"experimental",26,9,"hd","upper","warden","w","w","g","g",1,0.585875420365483,NA,NA,NA
"experimental",26,10,"hd","upper","sunshine","w","w","g","g",1,0.440289567224681,NA,NA,NA
"experimental",26,11,"hd","upper","holdup","w","w","g","g",1,0.549688357394189,NA,NA,NA
"experimental",26,12,"hd","upper","contact","w","w","g","g",1,0.566695323679596,NA,NA,NA
"experimental",26,13,"hd","upper","dolphin","target","target","q","g",0,0.470674993470311,1,1,NA
"experimental",26,14,"hd","upper","stalemate","aftertar1","w","g","g",1,0.762264838907868,NA,NA,NA
"experimental",26,15,"hd","upper","favoting","aftertar2","nw","h","h",1,0.850256437435746,NA,NA,NA
"experimental",26,16,"hd","upper","hutting","aftertar3","nw","h","h",1,0.662857020273805,NA,NA,NA
"experimental",26,17,"hd","upper","turning","nw","w","g","g",1,0.698037304449826,NA,NA,NA
"experimental",26,18,"hd","upper","tracing","w","w","g","g",1,0.716714840382338,NA,NA,NA
"experimental",26,19,"hd","upper","manage","w","w","g","g",1,0.510676621925086,NA,NA,NA
"experimental",26,20,"hd","upper","bailmenz","w","nw","h","h",1,0.688714428339154,NA,NA,NA
"experimental",26,21,"hd","upper","imprives","nw","nw","h","h",1,0.811337732244283,NA,NA,NA
"experimental",26,22,"hd","upper","bureaug","nw","nw","h","h",1,0.729389118496329,NA,NA,NA
"experimental",26,23,"hd","upper","bettled","nw","nw","h","h",1,0.538790921680629,NA,NA,NA
"experimental",26,24,"hd","upper","hivinity","nw","nw","h","h",1,0.659502638503909,NA,NA,NA
"experimental",26,25,"hd","upper","tredits","nw","nw","h","h",1,0.623502960428596,NA,NA,NA
"experimental",26,26,"hd","upper","charcoal","nw","w","g","g",1,0.644023551605642,NA,NA,NA
"experimental",26,27,"hd","upper","prawls","w","nw","h","h",1,0.568601613864303,NA,NA,NA
"experimental",26,28,"hd","upper","preclude","nw","w","g","h",0,0.527556789107621,NA,NA,NA
"experimental",26,29,"hd","upper","passet","w","nw","h","h",1,0.593314519617707,NA,NA,NA
"experimental",26,30,"hd","upper","aggepting","nw","nw","h","h",1,0.536229116842151,NA,NA,NA
"experimental",27,1,"hd","upper","sequence","w","w","g","g",1,0.448586132377386,NA,NA,NA
"experimental",27,2,"hd","upper","static","w","w","g","g",1,0.54919142415747,NA,NA,NA
"experimental",27,3,"hd","upper","peadgear","nw","nw","h","h",1,0.509218598715961,NA,NA,NA
"experimental",27,4,"hd","upper","cemoir","nw","nw","h","h",1,0.855534655507654,NA,NA,NA
"experimental",27,5,"hd","upper","carnival","w","w","g","g",1,0.443926018662751,NA,NA,NA
"experimental",27,6,"hd","upper","phraining","nw","nw","h","h",1,0.664604065939784,NA,NA,NA
"experimental",27,7,"hd","upper","ireology","nw","nw","h","g",0,0.716810518875718,NA,NA,NA
"experimental",27,8,"hd","upper","fudden","nw","nw","h","h",1,0.59074774896726,NA,NA,NA
"experimental",27,9,"hd","upper","dontrite","nw","nw","h","h",1,0.501484517473727,NA,NA,NA
"experimental",27,10,"hd","upper","insole","w","w","g","h",0,0.535566980950534,NA,NA,NA
"experimental",27,11,"hd","upper","eggays","nw","nw","h","h",1,0.439317882992327,NA,NA,NA
"experimental",27,12,"hd","upper","stagger","w","w","g","g",1,0.683914272580296,NA,NA,NA
"experimental",27,13,"hd","upper","antique","w","w","g","g",1,0.510605773888528,NA,NA,NA
"experimental",27,14,"hd","upper","metrol","nw","nw","h","h",1,0.544603152666241,NA,NA,NA
"experimental",27,15,"hd","upper","army","w","w","g","g",1,0.545322563033551,NA,NA,NA
"experimental",27,16,"hd","upper","beartiset","nw","nw","h","h",1,0.570005011279136,NA,NA,NA
"experimental",27,17,"hd","upper","bedding","w","w","g","g",1,0.569349496159703,NA,NA,NA
"experimental",27,18,"hd","upper","cegalia","nw","nw","h","h",1,0.744760277215391,NA,NA,NA
"experimental",27,19,"hd","upper","sengry","nw","nw","h","h",1,0.545289456378669,NA,NA,NA
"experimental",27,20,"hd","upper","marinate","w","w","g","g",1,0.546148908790201,NA,NA,NA
"experimental",27,21,"hd","upper","flamingo","target","target","q","g",0,0.530192753300071,NA,NA,NA
"experimental",27,22,"hd","upper","sampling","aftertar1","w","g","g",1,0.60328893782571,NA,NA,NA
"experimental",27,23,"hd","upper","gontracts","aftertar2","nw","h","h",1,0.673284339252859,NA,NA,NA
"experimental",27,24,"hd","upper","gigoho","aftertar3","nw","h","h",1,0.628657689783722,NA,NA,NA
"experimental",27,25,"hd","upper","sefraud","nw","nw","h","h",1,0.513975053094327,NA,NA,NA
"experimental",27,26,"hd","upper","insertion","nw","w","g","g",1,0.636083215475082,NA,NA,NA
"experimental",27,27,"hd","upper","ready","w","w","g","g",1,0.456757885869592,NA,NA,NA
"experimental",27,28,"hd","upper","innocent","w","w","g","g",1,0.420740330126136,NA,NA,NA
"experimental",27,29,"hd","upper","divider","w","w","g","g",1,0.514056164771318,NA,NA,NA
"experimental",27,30,"hd","upper","sponto","w","nw","h","h",1,0.603146578650922,NA,NA,NA
"experimental",28,1,"ld","lower","ringlat","nw","nw","h","h",1,0.521408524364233,NA,NA,NA
"experimental",28,2,"ld","lower","rocket","w","w","g","g",1,0.554851694963872,NA,NA,NA
"experimental",28,3,"ld","lower","splatter","w","w","g","g",1,0.546400520484895,NA,NA,NA
"experimental",28,4,"ld","lower","hindsight","w","w","g","g",1,0.507544387597591,NA,NA,NA
"experimental",28,5,"ld","lower","ufionize","nw","nw","h","h",1,0.932837722357362,NA,NA,NA
"experimental",28,6,"ld","lower","dumult","nw","nw","h","h",1,0.478069398552179,NA,NA,NA
"experimental",28,7,"ld","lower","sorping","nw","nw","h","h",1,0.513358935713768,NA,NA,NA
"experimental",28,8,"ld","lower","houted","nw","nw","h","h",1,0.499398458283395,NA,NA,NA
"experimental",28,9,"ld","lower","sefine","nw","nw","h","h",1,0.414016668684781,NA,NA,NA
"experimental",28,10,"ld","lower","loneliest","w","w","g","g",1,0.708088200073689,NA,NA,NA
"experimental",28,11,"ld","lower","regiment","w","w","g","h",0,0.702102820388973,NA,NA,NA
"experimental",28,12,"ld","lower","mestowal","nw","nw","h","h",1,0.592038583476096,NA,NA,NA
"experimental",28,13,"ld","lower","tragedy","w","w","g","g",1,0.574850522913039,NA,NA,NA
"experimental",28,14,"ld","lower","curricula","w","w","g","g",1,0.670295787975192,NA,NA,NA
"experimental",28,15,"ld","lower","paranoid","w","w","g","g",1,0.456649295054376,NA,NA,NA
"experimental",28,16,"ld","lower","rantho","nw","nw","h","h",1,0.524674842134118,NA,NA,NA
"experimental",28,17,"ld","lower","dealer","w","w","g","g",1,0.57399007724598,NA,NA,NA
"experimental",28,18,"ld","lower","previous","w","w","g","g",1,0.429388158023357,NA,NA,NA
"experimental",28,19,"ld","lower","latter","w","w","g","g",1,0.514670627191663,NA,NA,NA
"experimental",28,20,"ld","lower","burrowing","w","w","g","g",1,0.628832493908703,NA,NA,NA
"experimental",28,21,"ld","lower","addma","nw","nw","h","h",1,0.570158957969397,NA,NA,NA
"experimental",28,22,"ld","lower","rarren","nw","nw","h","h",1,0.553454257082194,NA,NA,NA
"experimental",28,23,"ld","lower","orange","w","w","g","g",1,0.617525195237249,NA,NA,NA
"experimental",28,24,"ld","lower","serving","w","w","g","g",1,0.654914034996182,NA,NA,NA
"experimental",28,25,"ld","lower","geadpan","nw","nw","h","h",1,0.55402137665078,NA,NA,NA
"experimental",28,26,"ld","lower","glocked","nw","nw","h","h",1,0.698050547391176,NA,NA,NA
"experimental",28,27,"ld","lower","natch","nw","nw","h","h",1,0.764720370527357,NA,NA,NA
"experimental",28,28,"ld","lower","slears","nw","nw","h","h",1,0.564718847163022,NA,NA,NA
"experimental",28,29,"ld","lower","adok","nw","nw","h","h",1,0.508808736223727,NA,NA,NA
"experimental",28,30,"ld","lower","pester","w","w","g","h",0,0.614914061501622,NA,NA,NA
"experimental",29,1,"hd","upper","comply","w","w","g","h",0,0.477046067360789,NA,NA,NA
"experimental",29,2,"hd","upper","buttress","w","w","g","g",1,0.744134558364749,NA,NA,NA
"experimental",29,3,"hd","upper","dorth","nw","nw","h","h",1,0.824874442536384,NA,NA,NA
"experimental",29,4,"hd","upper","committed","w","w","g","g",1,0.485784939490259,NA,NA,NA
"experimental",29,5,"hd","upper","moisture","w","w","g","g",1,0.480907313991338,NA,NA,NA
"experimental",29,6,"hd","upper","emergence","w","w","g","g",1,0.500241687987,NA,NA,NA
"experimental",29,7,"hd","upper","nores","nw","nw","h","h",1,0.519045360852033,NA,NA,NA
"experimental",29,8,"hd","upper","fictional","w","w","g","g",1,0.496338395867497,NA,NA,NA
"experimental",29,9,"hd","upper","hemoter","nw","nw","h","h",1,0.499131948221475,NA,NA,NA
"experimental",29,10,"hd","upper","decantel","nw","nw","h","h",1,0.508874287828803,NA,NA,NA
"experimental",29,11,"hd","upper","frose","nw","nw","h","h",1,0.518761635292321,NA,NA,NA
"experimental",29,12,"hd","upper","causality","w","w","g","g",1,0.544118469115347,NA,NA,NA
"experimental",29,13,"hd","upper","outset","w","w","g","g",1,0.432879602070898,NA,NA,NA
"experimental",29,14,"hd","upper","hangar","w","w","g","g",1,0.870225138496608,NA,NA,NA
"experimental",29,15,"hd","upper","maximized","w","w","g","g",1,0.409585984889418,NA,NA,NA
"experimental",29,16,"hd","upper","apop","nw","nw","h","h",1,0.535568635910749,NA,NA,NA
"experimental",29,17,"hd","upper","threaded","w","w","g","g",1,0.552217386197299,NA,NA,NA
"experimental",29,18,"hd","upper","other","w","w","g","g",1,0.520982770714909,NA,NA,NA
"experimental",29,19,"hd","upper","traze","nw","nw","h","h",1,0.697724114172161,NA,NA,NA
"experimental",29,20,"hd","upper","professor","w","w","g","g",1,0.484244149178267,NA,NA,NA
"experimental",29,21,"hd","upper","veranpah","nw","nw","h","h",1,0.511466551106423,NA,NA,NA
"experimental",29,22,"hd","upper","afford","w","w","g","g",1,0.553426115773618,NA,NA,NA
"experimental",29,23,"hd","upper","noblin","nw","nw","h","h",1,0.601519378833473,NA,NA,NA
"experimental",29,24,"hd","upper","deserve","w","w","g","g",1,0.519614135380834,NA,NA,NA
"experimental",29,25,"hd","upper","peems","nw","nw","h","h",1,0.520966879557818,NA,NA,NA
"experimental",29,26,"hd","upper","gackpedal","nw","nw","h","h",1,0.554337546695024,NA,NA,NA
"experimental",29,27,"hd","upper","gablus","nw","nw","h","h",1,0.450274579692632,NA,NA,NA
"experimental",29,28,"hd","upper","asclibed","nw","nw","h","h",1,0.510572004597634,NA,NA,NA
"experimental",29,29,"hd","upper","pranny","nw","nw","h","h",1,0.511439072433859,NA,NA,NA
"experimental",29,30,"hd","upper","borrent","nw","nw","h","h",1,0.521236368920654,NA,NA,NA
"experimental",30,1,"ld","lower","frogmy","nw","nw","h","h",1,0.531626940239221,NA,NA,NA
"experimental",30,2,"ld","lower","rawhide","w","w","g","h",0,0.508976919110864,NA,NA,NA
"experimental",30,3,"ld","lower","border","w","w","g","h",0,0.32695768866688,NA,NA,NA
"experimental",30,4,"ld","lower","crudios","nw","nw","h","h",1,0.512329976074398,NA,NA,NA
"experimental",30,5,"ld","lower","kraums","nw","nw","h","h",1,0.505511960946023,NA,NA,NA
"experimental",30,6,"ld","lower","deficit","w","w","g","g",1,0.691391113679856,NA,NA,NA
"experimental",30,7,"ld","lower","tusied","nw","nw","h","h",1,0.52610737318173,NA,NA,NA
"experimental",30,8,"ld","lower","reprint","w","w","g","g",1,0.727445749100298,NA,NA,NA
"experimental",30,9,"ld","lower","chrayed","nw","nw","h","h",1,0.488841359969229,NA,NA,NA
"experimental",30,10,"ld","lower","glating","nw","nw","h","h",1,0.531409427989274,NA,NA,NA
"experimental",30,11,"ld","lower","giraffe","target","target","q","h",0,0.492947597056627,NA,NA,NA
"experimental",30,12,"ld","lower","mounting","aftertar1","w","g","g",1,0.069054018240422,NA,NA,NA
"experimental",30,13,"ld","lower","chiffol","aftertar2","nw","h","h",1,0.832971705123782,NA,NA,NA
"experimental",30,14,"ld","lower","trembla","aftertar3","nw","h","h",1,0.638236812781543,NA,NA,NA
"experimental",30,15,"ld","lower","childhood","nw","w","g","g",1,0.49808246223256,NA,NA,NA
"experimental",30,16,"ld","lower","fuack","w","nw","h","h",1,0.676710231695324,NA,NA,NA
"experimental",30,17,"ld","lower","odacles","nw","nw","h","h",1,0.808139945846051,NA,NA,NA
"experimental",30,18,"ld","lower","erlighten","nw","nw","h","h",1,0.694341592025012,NA,NA,NA
"experimental",30,19,"ld","lower","addition","nw","w","g","g",1,0.744927135296166,NA,NA,NA
"experimental",30,20,"ld","lower","exit","w","w","g","g",1,0.601624989882112,NA,NA,NA
"experimental",30,21,"ld","lower","welayed","w","nw","h","h",1,0.606529101263732,NA,NA,NA
"experimental",30,22,"ld","lower","observer","nw","w","g","g",1,0.525016503874213,NA,NA,NA
"experimental",30,23,"ld","lower","potent","w","w","g","g",1,0.60655757272616,NA,NA,NA
"experimental",30,24,"ld","lower","thaken","w","nw","h","h",1,0.64344285801053,NA,NA,NA
"experimental",30,25,"ld","lower","pircus","nw","nw","h","h",1,0.592090892139822,NA,NA,NA
"experimental",30,26,"ld","lower","solidity","nw","w","g","h",0,0.526731436606497,NA,NA,NA
"experimental",30,27,"ld","lower","religious","w","w","g","g",1,0.496115918271244,NA,NA,NA
"experimental",30,28,"ld","lower","fission","w","w","g","g",1,0.586827903054655,NA,NA,NA
"experimental",30,29,"ld","lower","dislokes","w","nw","h","h",1,0.657524837646633,NA,NA,NA
"experimental",30,30,"ld","lower","abstain","nw","w","g","g",1,0.693579473067075,NA,NA,NA
"experimental",31,1,"ld","lower","unstatle","nw","nw","h","h",1,0.576055941637605,NA,NA,NA
"experimental",31,2,"ld","lower","swatches","w","w","g","g",1,0.575499747414142,NA,NA,NA
"experimental",31,3,"ld","lower","greft","nw","nw","h","h",1,0.622843141667545,NA,NA,NA
"experimental",31,4,"ld","lower","railway","w","w","g","g",1,0.52420075237751,NA,NA,NA
"experimental",31,5,"ld","lower","puyer","nw","nw","h","h",1,0.565645838156343,NA,NA,NA
"experimental",31,6,"ld","lower","achieve","w","w","g","g",1,0.637635924387723,NA,NA,NA
"experimental",31,7,"ld","lower","retreat","w","w","g","g",1,0.626329619437456,NA,NA,NA
"experimental",31,8,"ld","lower","colicky","w","w","g","h",0,0.527676304802299,NA,NA,NA
"experimental",31,9,"ld","lower","figure","w","w","g","g",1,0.560184208210558,NA,NA,NA
"experimental",31,10,"ld","lower","rebool","nw","nw","h","h",1,0.536183760501444,NA,NA,NA
"experimental",31,11,"ld","lower","shurk","nw","nw","h","h",1,0.768895138520747,NA,NA,NA
"experimental",31,12,"ld","lower","halents","nw","nw","h","h",1,0.512222710065544,NA,NA,NA
"experimental",31,13,"ld","lower","bookend","w","w","g","h",0,0.514272021129727,NA,NA,NA
"experimental",31,14,"ld","lower","squadroim","nw","nw","h","h",1,0.604327167384326,NA,NA,NA
"experimental",31,15,"ld","lower","chone","nw","nw","h","h",1,0.570339389611036,NA,NA,NA
"experimental",31,16,"ld","lower","handle","w","w","g","g",1,0.793632874730974,NA,NA,NA
"experimental",31,17,"ld","lower","shamrock","w","w","g","g",1,0.728370090946555,NA,NA,NA
"experimental",31,18,"ld","lower","gradielts","nw","nw","h","h",1,1.15291918441653,NA,NA,NA
"experimental",31,19,"ld","lower","alarm","w","w","g","g",1,0.608455586247146,NA,NA,NA
"experimental",31,20,"ld","lower","baseline","w","w","g","h",0,0.734805391635746,NA,NA,NA
"experimental",31,21,"ld","lower","sludding","nw","nw","h","h",1,1.30355581175536,NA,NA,NA
"experimental",31,22,"ld","lower","surdens","nw","nw","h","h",1,0.681566338054836,NA,NA,NA
"experimental",31,23,"ld","lower","ubefully","nw","nw","h","h",1,0.613031277898699,NA,NA,NA
"experimental",31,24,"ld","lower","stranded","w","w","g","g",1,0.947031933814287,NA,NA,NA
"experimental",31,25,"ld","lower","halms","nw","nw","h","h",1,0.659767824225128,NA,NA,NA
"experimental",31,26,"ld","lower","sunhess","nw","nw","h","h",1,0.582956393249333,NA,NA,NA
"experimental",31,27,"ld","lower","skiing","w","w","g","g",1,0.710140490438789,NA,NA,NA
"experimental",31,28,"ld","lower","coverall","w","w","g","h",0,0.640079868491739,NA,NA,NA
"experimental",31,29,"ld","lower","cooray","nw","nw","h","h",1,0.501192516181618,NA,NA,NA
"experimental",31,30,"ld","lower","volume","w","w","g","g",1,0.630212716758251,NA,NA,NA
"experimental",32,1,"hd","upper","kettle","w","w","g","h",0,0.491736880969256,NA,NA,NA
"experimental",32,2,"hd","upper","subber","nw","nw","h","h",1,0.549686702433974,NA,NA,NA
"experimental",32,3,"hd","upper","uncle","w","w","g","g",1,0.534166894387454,NA,NA,NA
"experimental",32,4,"hd","upper","unburnid","nw","nw","h","h",1,0.582964007742703,NA,NA,NA
"experimental",32,5,"hd","upper","picnic","w","w","g","g",1,0.486313986591995,NA,NA,NA
"experimental",32,6,"hd","upper","roughly","w","w","g","g",1,0.512969268951565,NA,NA,NA
"experimental",32,7,"hd","upper","handed","w","w","g","g",1,0.419010499492288,NA,NA,NA
"experimental",32,8,"hd","upper","supplier","w","w","g","g",1,0.552340543828905,NA,NA,NA
"experimental",32,9,"hd","upper","gund","nw","nw","h","h",1,1.15970707312226,NA,NA,NA
"experimental",32,10,"hd","upper","schinter","nw","nw","h","h",1,0.591728041414171,NA,NA,NA
"experimental",32,11,"hd","upper","ounwit","nw","nw","h","h",1,0.534454592037946,NA,NA,NA
"experimental",32,12,"hd","upper","chesume","nw","nw","h","h",1,0.614225109107792,NA,NA,NA
"experimental",32,13,"hd","upper","epthuse","nw","nw","h","h",1,0.484376906882972,NA,NA,NA
"experimental",32,14,"hd","upper","alomalous","nw","nw","h","h",1,0.50317660626024,NA,NA,NA
"experimental",32,15,"hd","upper","roaned","nw","nw","h","h",1,0.488942997530103,NA,NA,NA
"experimental",32,16,"hd","upper","failure","w","w","g","g",1,0.587637695483863,NA,NA,NA
"experimental",32,17,"hd","upper","even","w","w","g","g",1,0.698322354350239,NA,NA,NA
"experimental",32,18,"hd","upper","fallacy","w","w","g","g",1,0.50097367959097,NA,NA,NA
"experimental",32,19,"hd","upper","infested","w","w","g","g",1,0.406352443154901,NA,NA,NA
"experimental",32,20,"hd","upper","detrabe","nw","nw","h","h",1,0.547755913343281,NA,NA,NA
"experimental",32,21,"hd","upper","gewer","nw","nw","h","h",1,0.500330083072186,NA,NA,NA
"experimental",32,22,"hd","upper","antonym","w","w","g","g",1,0.582882233895361,NA,NA,NA
"experimental",32,23,"hd","upper","gairs","nw","nw","h","h",1,0.582084360066801,NA,NA,NA
"experimental",32,24,"hd","upper","abhorrent","w","w","g","g",1,0.555160912685096,NA,NA,NA
"experimental",32,25,"hd","upper","finstrel","nw","nw","h","h",1,0.60503598395735,NA,NA,NA
"experimental",32,26,"hd","upper","elephant","target","target","q","g",0,0.611558686941862,NA,NA,NA
"experimental",32,27,"hd","upper","cogantly","aftertar1","nw","h","h",1,0.657586085610092,NA,NA,NA
"experimental",32,28,"hd","upper","seldom","aftertar2","w","g","g",1,0.525676984805614,NA,NA,NA
"experimental",32,29,"hd","upper","butled","aftertar3","nw","h","h",1,0.670981761068106,NA,NA,NA
"experimental",32,30,"hd","upper","truthful","nw","w","g","g",1,0.530441054143012,NA,NA,NA
"experimental",33,1,"ld","lower","landing","w","w","g","g",1,0.579659286420792,NA,NA,NA
"experimental",33,2,"ld","lower","tapling","nw","nw","h","h",1,0.579076937865466,NA,NA,NA
"experimental",33,3,"ld","lower","resonant","w","w","g","g",1,0.554424286354333,NA,NA,NA
"experimental",33,4,"ld","lower","urique","nw","nw","h","g",0,0.458420178387314,NA,NA,NA
"experimental",33,5,"ld","lower","fisco","nw","nw","h","g",0,0.478451451286674,NA,NA,NA
"experimental",33,6,"ld","lower","series","w","w","g","g",1,0.464995852205902,NA,NA,NA
"experimental",33,7,"ld","lower","infancy","w","w","g","g",1,0.540882278699428,NA,NA,NA
"experimental",33,8,"ld","lower","slightly","w","w","g","g",1,0.437783712986857,NA,NA,NA
"experimental",33,9,"ld","lower","bullet","w","w","g","g",1,0.466357534751296,NA,NA,NA
"experimental",33,10,"ld","lower","prama","nw","nw","h","h",1,0.598315633367747,NA,NA,NA
"experimental",33,11,"ld","lower","sopes","nw","nw","h","h",1,0.589125846512616,NA,NA,NA
"experimental",33,12,"ld","lower","exemplify","w","w","g","g",1,0.498102326411754,NA,NA,NA
"experimental",33,13,"ld","lower","harder","w","w","g","g",1,0.422340381424874,NA,NA,NA
"experimental",33,14,"ld","lower","atch","nw","nw","h","h",1,0.571654061321169,NA,NA,NA
"experimental",33,15,"ld","lower","presence","w","w","g","g",1,0.387003501411527,NA,NA,NA
"experimental",33,16,"ld","lower","unlined","w","w","g","h",0,0.496827052440494,NA,NA,NA
"experimental",33,17,"ld","lower","worps","nw","nw","h","h",1,0.611456056125462,NA,NA,NA
"experimental",33,18,"ld","lower","humanize","w","w","g","g",1,0.569459410849959,NA,NA,NA
"experimental",33,19,"ld","lower","unrealon","nw","nw","h","h",1,0.560334844514728,NA,NA,NA
"experimental",33,20,"ld","lower","enacted","w","w","g","h",0,0.760880643036216,NA,NA,NA
"experimental",33,21,"ld","lower","purport","w","w","g","h",0,0.576942873653024,NA,NA,NA
"experimental",33,22,"ld","lower","elormity","nw","nw","h","h",1,0.560283528640866,NA,NA,NA
"experimental",33,23,"ld","lower","engineer","w","w","g","g",1,0.584322711452842,NA,NA,NA
"experimental",33,24,"ld","lower","begut","nw","nw","h","h",1,0.879073263145983,NA,NA,NA
"experimental",33,25,"ld","lower","reses","nw","nw","h","h",1,0.450032237917185,NA,NA,NA
"experimental",33,26,"ld","lower","unamufed","nw","nw","h","h",1,0.630240195430815,NA,NA,NA
"experimental",33,27,"ld","lower","amkles","nw","nw","h","h",1,0.475801913067698,NA,NA,NA
"experimental",33,28,"ld","lower","mitten","w","w","g","h",0,0.49505318980664,NA,NA,NA
"experimental",33,29,"ld","lower","tunneg","nw","nw","h","h",1,0.817633984144777,NA,NA,NA
"experimental",33,30,"ld","lower","treenery","nw","nw","h","h",1,0.503015376627445,NA,NA,NA
"experimental",34,1,"ld","lower","dentures","w","w","g","h",0,0.504892863333225,NA,NA,NA
"experimental",34,2,"ld","lower","cutout","w","w","g","g",1,0.642910169903189,NA,NA,NA
"experimental",34,3,"ld","lower","racile","nw","nw","h","h",1,0.671447904780507,NA,NA,NA
"experimental",34,4,"ld","lower","chight","nw","nw","h","h",1,0.442945726215839,NA,NA,NA
"experimental",34,5,"ld","lower","newstrint","nw","nw","h","h",1,0.591858813539147,NA,NA,NA
"experimental",34,6,"ld","lower","twenties","w","w","g","g",1,0.574319820851088,NA,NA,NA
"experimental",34,7,"ld","lower","chrik","nw","nw","h","h",1,0.52566341124475,NA,NA,NA
"experimental",34,8,"ld","lower","treason","w","w","g","g",1,0.567222052719444,NA,NA,NA
"experimental",34,9,"ld","lower","nameplate","w","w","g","g",1,0.582483958918601,NA,NA,NA
"experimental",34,10,"ld","lower","guffy","nw","nw","h","h",1,0.581686747726053,NA,NA,NA
"experimental",34,11,"ld","lower","rodeo","w","w","g","g",1,0.708225924056023,NA,NA,NA
"experimental",34,12,"ld","lower","incidonts","nw","nw","h","h",1,0.66147447982803,NA,NA,NA
"experimental",34,13,"ld","lower","nollow","nw","nw","h","h",1,0.466231398284435,NA,NA,NA
"experimental",34,14,"ld","lower","huests","nw","nw","h","h",1,0.438252836465836,NA,NA,NA
"experimental",34,15,"ld","lower","listless","w","w","g","h",0,0.490998930297792,NA,NA,NA
"experimental",34,16,"ld","lower","afternoon","w","w","g","g",1,0.68574706511572,NA,NA,NA
"experimental",34,17,"ld","lower","permute","w","w","g","h",0,0.54449290689081,NA,NA,NA
"experimental",34,18,"ld","lower","fravity","nw","nw","h","h",1,0.569002205971628,NA,NA,NA
"experimental",34,19,"ld","lower","ghists","nw","nw","h","h",1,0.464531032834202,NA,NA,NA
"experimental",34,20,"ld","lower","yellep","nw","nw","h","h",1,0.47652695234865,NA,NA,NA
"experimental",34,21,"ld","lower","trophy","w","w","g","g",1,0.678947258275002,NA,NA,NA
"experimental",34,22,"ld","lower","gounts","nw","nw","h","h",1,0.55406507756561,NA,NA,NA
"experimental",34,23,"ld","lower","restock","w","w","g","g",1,0.890413999557495,NA,NA,NA
"experimental",34,24,"ld","lower","moozy","nw","nw","h","h",1,0.637031394522637,NA,NA,NA
"experimental",34,25,"ld","lower","roodies","nw","nw","h","h",1,0.457284283824265,NA,NA,NA
"experimental",34,26,"ld","lower","practice","w","w","g","g",1,0.5177445942536,NA,NA,NA
"experimental",34,27,"ld","lower","govern","w","w","g","g",1,0.527113820426166,NA,NA,NA
"experimental",34,28,"ld","lower","anonymous","w","w","g","g",1,0.496483734808862,NA,NA,NA
"experimental",34,29,"ld","lower","helpful","w","w","g","g",1,0.387185920029879,NA,NA,NA
"experimental",34,30,"ld","lower","lindo","nw","nw","h","h",1,0.537993047386408,NA,NA,NA
"experimental",35,1,"hd","upper","extend","w","w","g","g",1,0.522358027752489,NA,NA,NA
"experimental",35,2,"hd","upper","togglo","nw","nw","h","h",1,0.531732881441712,NA,NA,NA
"experimental",35,3,"hd","upper","patio","w","w","g","g",1,0.485142667777836,NA,NA,NA
"experimental",35,4,"hd","upper","lancos","nw","nw","h","h",1,0.463778514415026,NA,NA,NA
"experimental",35,5,"hd","upper","brials","nw","nw","h","h",1,0.474997749086469,NA,NA,NA
"experimental",35,6,"hd","upper","medium","w","w","g","g",1,0.501909940037876,NA,NA,NA
"experimental",35,7,"hd","upper","earnest","w","w","g","g",1,0.416983369272202,NA,NA,NA
"experimental",35,8,"hd","upper","anterior","w","w","g","g",1,0.543013363610953,NA,NA,NA
"experimental",35,9,"hd","upper","servant","w","w","g","g",1,0.527676966972649,NA,NA,NA
"experimental",35,10,"hd","upper","inverted","w","w","g","g",1,0.512945431750268,NA,NA,NA
"experimental",35,11,"hd","upper","managed","w","w","g","g",1,0.411043346393853,NA,NA,NA
"experimental",35,12,"hd","upper","ifkling","nw","nw","h","h",1,0.521100299898535,NA,NA,NA
"experimental",35,13,"hd","upper","binder","w","w","g","h",0,0.450487125664949,NA,NA,NA
"experimental",35,14,"hd","upper","octopus","target","target","q","g",0,0.429805966094136,NA,NA,NA
"experimental",35,15,"hd","upper","fashing","aftertar1","nw","h","h",1,0.843238787725568,NA,NA,NA
"experimental",35,16,"hd","upper","blocking","aftertar2","w","g","g",1,0.542942515108734,NA,NA,NA
"experimental",35,17,"hd","upper","stuggard","aftertar3","nw","h","h",1,0.527654123026878,NA,NA,NA
"experimental",35,18,"hd","upper","lanthers","nw","nw","h","h",1,0.689004112966359,NA,NA,NA
"experimental",35,19,"hd","upper","anemic","nw","w","g","g",1,0.747640900313854,NA,NA,NA
"experimental",35,20,"hd","upper","slimped","w","nw","h","g",0,0.652571066748351,NA,NA,NA
"experimental",35,21,"hd","upper","entitle","nw","w","g","g",1,0.655669532716274,NA,NA,NA
"experimental",35,22,"hd","upper","esdings","w","nw","h","h",1,0.475682397838682,NA,NA,NA
"experimental",35,23,"hd","upper","chyme","nw","nw","h","h",1,0.74307712726295,NA,NA,NA
"experimental",35,24,"hd","upper","arbitrary","nw","w","g","g",1,0.631833625491709,NA,NA,NA
"experimental",35,25,"hd","upper","unversed","w","w","g","h",0,0.596277247648686,NA,NA,NA
"experimental",35,26,"hd","upper","bellicove","w","nw","h","h",1,0.538899511564523,NA,NA,NA
"experimental",35,27,"hd","upper","farochial","nw","nw","h","h",1,0.466960079036653,NA,NA,NA
"experimental",35,28,"hd","upper","ameld","nw","nw","h","h",1,0.614884265698493,NA,NA,NA
"experimental",35,29,"hd","upper","collute","nw","nw","h","h",1,0.78880259161815,NA,NA,NA
"experimental",35,30,"hd","upper","peahem","nw","nw","h","h",1,0.531678255647421,NA,NA,NA
"experimental",36,1,"hd","upper","sheerio","nw","nw","h","h",1,0.428861429449171,NA,NA,NA
"experimental",36,2,"hd","upper","phonology","w","w","g","h",0,0.51423858338967,NA,NA,NA
"experimental",36,3,"hd","upper","aefated","nw","nw","h","h",1,0.540179752279073,NA,NA,NA
"experimental",36,4,"hd","upper","deakers","nw","nw","h","h",1,0.517120861914009,NA,NA,NA
"experimental",36,5,"hd","upper","suburb","w","w","g","g",1,0.646325467620045,NA,NA,NA
"experimental",36,6,"hd","upper","fomrade","nw","nw","h","h",1,0.651113705243915,NA,NA,NA
"experimental",36,7,"hd","upper","noils","nw","nw","h","h",1,0.510755085386336,NA,NA,NA
"experimental",36,8,"hd","upper","suspect","w","w","g","g",1,0.545160009060055,NA,NA,NA
"experimental",36,9,"hd","upper","dazid","nw","nw","h","h",1,0.49761002836749,NA,NA,NA
"experimental",36,10,"hd","upper","prohibit","w","w","g","g",1,0.540575047489256,NA,NA,NA
"experimental",36,11,"hd","upper","athcan","nw","nw","h","h",1,0.652311840094626,NA,NA,NA
"experimental",36,12,"hd","upper","century","w","w","g","g",1,0.479609527159482,NA,NA,NA
"experimental",36,13,"hd","upper","retona","nw","nw","h","h",1,0.619235824327916,NA,NA,NA
"experimental",36,14,"hd","upper","browting","nw","nw","h","h",1,0.703944220673293,NA,NA,NA
"experimental",36,15,"hd","upper","inducing","w","w","g","h",0,0.810402796138078,NA,NA,NA
"experimental",36,16,"hd","upper","hotplate","w","w","g","h",0,0.632525558117777,NA,NA,NA
"experimental",36,17,"hd","upper","mullet","w","w","g","h",0,0.509833723306656,NA,NA,NA
"experimental",36,18,"hd","upper","goltish","nw","nw","h","h",1,0.543839378282428,NA,NA,NA
"experimental",36,19,"hd","upper","markot","nw","nw","h","h",1,0.464553876314312,NA,NA,NA
"experimental",36,20,"hd","upper","yash","nw","nw","h","h",1,0.787707418669015,NA,NA,NA
"experimental",36,21,"hd","upper","measure","w","w","g","g",1,0.746254718396813,NA,NA,NA
"experimental",36,22,"hd","upper","omission","w","w","g","g",1,0.674971793312579,NA,NA,NA
"experimental",36,23,"hd","upper","ladybug","target","target","q","g",0,0.614448911044747,NA,NA,NA
"experimental",36,24,"hd","upper","ensues","aftertar1","w","g","g",1,0.756330774631351,NA,NA,NA
"experimental",36,25,"hd","upper","mamps","aftertar2","nw","h","h",1,0.48428056621924,NA,NA,NA
"experimental",36,26,"hd","upper","jiggling","aftertar3","w","g","g",1,0.72705773729831,NA,NA,NA
"experimental",36,27,"hd","upper","eaglot","w","nw","h","h",1,0.928632164839655,NA,NA,NA
"experimental",36,28,"hd","upper","outflow","nw","w","g","g",1,0.720932647585869,NA,NA,NA
"experimental",36,29,"hd","upper","axis","w","w","g","g",1,0.690306534525007,NA,NA,NA
"experimental",36,30,"hd","upper","retain","w","w","g","g",1,0.540911081247032,NA,NA,NA
"experimental",37,1,"hd","upper","preight","nw","nw","h","h",1,0.670513300225139,NA,NA,NA
"experimental",37,2,"hd","upper","airline","w","w","g","g",1,0.537928158417344,NA,NA,NA
"experimental",37,3,"hd","upper","duries","nw","nw","h","g",0,0.474587555509061,NA,NA,NA
"experimental",37,4,"hd","upper","forecast","w","w","g","g",1,0.525103243999183,NA,NA,NA
"experimental",37,5,"hd","upper","nauling","nw","nw","h","h",1,0.621869139373302,NA,NA,NA
"experimental",37,6,"hd","upper","paterways","nw","nw","h","h",1,0.739724400918931,NA,NA,NA
