"procedure","block","trial","PMdemand","context","stim","role","word_type","correct_key","response","correct","reaction_time","pressedQ","pressedQ_blank","pressedQ_fix"
"LDTpractice",1,1,NA,"upper","unscrew","","w","g","g",1,0.80637310934253,NA,NA,NA
"LDTpractice",2,1,NA,"upper","sponsor","","w","g","g",1,0.619058445328847,NA,NA,NA
"LDTpractice",3,1,NA,"upper","reputable","","w","g","h",0,1.10415260284208,NA,NA,NA
"LDTpractice",4,1,NA,"upper","umpire","","w","g","g",1,0.72809471632354,NA,NA,NA
"LDTpractice",5,1,NA,"upper","turative","","nw","h","h",1,0.931631383718923,NA,NA,NA
"LDTpractice",6,1,NA,"upper","hiring","","w","g","g",1,0.521710532251745,NA,NA,NA
"LDTpractice",7,1,NA,"upper","trotch","","nw","h","h",1,0.885249080369249,NA,NA,NA
"LDTpractice",8,1,NA,"upper","revival","","w","g","g",1,0.760085160378367,NA,NA,NA
"LDTpractice",9,1,NA,"upper","lurshing","","nw","h","g",0,0.90316813881509,NA,NA,NA
"LDTpractice",10,1,NA,"upper","alolition","","nw","h","h",1,0.929255970520899,NA,NA,NA
"LDTpractice",11,1,NA,"upper","raestro","","nw","h","h",1,0.610678119817749,NA,NA,NA
"LDTpractice",12,1,NA,"upper","busted","","w","g","g",1,0.656856485409662,NA,NA,NA
"LDTpractice",13,1,NA,"upper","lumbigo","","nw","h","h",1,0.804680689470842,NA,NA,NA
"LDTpractice",14,1,NA,"upper","grocus","","nw","h","h",1,0.52976641128771,NA,NA,NA
"LDTpractice",1,2,NA,"lower","grimace","","w","g","h",0,0.860035930527374,NA,NA,NA
"LDTpractice",2,2,NA,"lower","slumber","","w","g","g",1,0.520039631752297,NA,NA,NA
"LDTpractice",3,2,NA,"lower","summary","","w","g","g",1,0.61659231944941,NA,NA,NA
"LDTpractice",4,2,NA,"lower","picture","","w","g","g",1,0.462433790322393,NA,NA,NA
"LDTpractice",5,2,NA,"lower","hasking","","nw","h","g",0,0.522155156591907,NA,NA,NA
"LDTpractice",6,2,NA,"lower","tricycle","","w","g","g",1,0.89971145731397,NA,NA,NA
"LDTpractice",7,2,NA,"lower","crinklo","","nw","h","h",1,0.783354940824211,NA,NA,NA
"LDTpractice",8,2,NA,"lower","infinity","","w","g","g",1,0.518039649818093,NA,NA,NA
"LDTpractice",9,2,NA,"lower","julled","","nw","h","h",1,0.703443720005453,NA,NA,NA
"LDTpractice",10,2,NA,"lower","latador","","nw","h","g",0,0.761256479192525,NA,NA,NA
"LDTpractice",11,2,NA,"lower","treeps","","nw","h","h",1,0.825355889508501,NA,NA,NA
"LDTpractice",12,2,NA,"lower","overshoot","","w","g","g",1,0.606691067339852,NA,NA,NA
"LDTpractice",13,2,NA,"lower","curlecs","","nw","h","h",1,0.668781225569546,NA,NA,NA
"LDTpractice",14,2,NA,"lower","grutch","","nw","h","h",1,0.744024055777118,NA,NA,NA
"experimental",1,1,"hd","upper","mixture","w","w","g","g",1,0.930226330878213,NA,NA,NA
"experimental",1,2,"hd","upper","lenie","nw","nw","h","h",1,0.955892051104456,NA,NA,NA
"experimental",1,3,"hd","upper","welayed","nw","nw","h","h",1,1.41260341298766,NA,NA,NA
"experimental",1,4,"hd","upper","seldom","w","w","g","g",1,0.98729220055975,NA,NA,NA
"experimental",1,5,"hd","upper","purpose","w","w","g","g",1,0.818679240066558,NA,NA,NA
"experimental",1,6,"hd","upper","natch","nw","nw","h","h",1,1.09679329115897,NA,NA,NA
"experimental",1,7,"hd","upper","perishing","w","w","g","g",1,0.804118535947055,NA,NA,NA
"experimental",1,8,"hd","upper","sequence","w","w","g","g",1,0.713054625783116,NA,NA,NA
"experimental",1,9,"hd","upper","curricula","w","w","g","h",0,1.70081305317581,NA,NA,NA
"experimental",1,10,"hd","upper","binder","w","w","g","g",1,0.647338278591633,NA,NA,NA
"experimental",1,11,"hd","upper","resonant","w","w","g","h",0,1.57269335747696,NA,NA,NA
"experimental",1,12,"hd","upper","publish","w","w","g","g",1,0.64472482749261,NA,NA,NA
"experimental",1,13,"hd","upper","company","w","w","g","g",1,0.610029888339341,NA,NA,NA
"experimental",1,14,"hd","upper","erithets","nw","nw","h","h",1,1.04872982413508,NA,NA,NA
"experimental",1,15,"hd","upper","assent","w","w","g","g",1,0.590107206022367,NA,NA,NA
"experimental",1,16,"hd","upper","pranny","nw","nw","h","h",1,0.645430664531887,NA,NA,NA
"experimental",1,17,"hd","upper","potter","w","w","g","g",1,1.24965403345414,NA,NA,NA
"experimental",1,18,"hd","upper","cemoir","nw","nw","h","h",1,1.0308905527927,NA,NA,NA
"experimental",1,19,"hd","upper","latpin","nw","nw","h","h",1,0.90935513866134,NA,NA,NA
"experimental",1,20,"hd","upper","gremieres","nw","nw","h","h",1,0.895923707634211,NA,NA,NA
"experimental",1,21,"hd","upper","spider","target","target","q","q",1,1.68345681019127,1,NA,NA
"experimental",1,22,"hd","upper","movie","aftertar1","w","g","g",1,0.927508593536913,NA,NA,NA
"experimental",1,23,"hd","upper","pimorous","aftertar2","nw","h","h",1,0.785557536408305,NA,NA,NA
"experimental",1,24,"hd","upper","ounwit","aftertar3","nw","h","h",1,0.880575392628089,NA,NA,NA
"experimental",1,25,"hd","upper","neliefs","nw","nw","h","h",1,0.844001973513514,NA,NA,NA
"experimental",1,26,"hd","upper","roaned","nw","nw","h","h",1,0.95340572972782,NA,NA,NA
"experimental",1,27,"hd","upper","worps","nw","nw","h","g",0,1.17811022675596,NA,NA,NA
"experimental",1,28,"hd","upper","hangar","nw","w","g","h",0,1.33024758566171,NA,NA,NA
"experimental",1,29,"hd","upper","chyme","w","nw","h","h",1,2.02032848866656,NA,NA,NA
"experimental",1,30,"hd","upper","lignpost","nw","nw","h","h",1,1.02628340991214,NA,NA,NA
"experimental",2,1,"hd","upper","gunrunker","nw","nw","h","h",1,0.783599931048229,NA,NA,NA
"experimental",2,2,"hd","upper","daylight","w","w","g","g",1,0.591427836567163,NA,NA,NA
"experimental",2,3,"hd","upper","railway","w","w","g","g",1,0.590815360657871,NA,NA,NA
"experimental",2,4,"hd","upper","catacomb","w","w","g","h",0,0.838206296321005,NA,NA,NA
"experimental",2,5,"hd","upper","typical","w","w","g","g",1,0.611944455187768,NA,NA,NA
"experimental",2,6,"hd","upper","gettle","nw","nw","h","g",0,0.658311860635877,NA,NA,NA
"experimental",2,7,"hd","upper","borrent","nw","nw","h","h",1,0.708883499260992,NA,NA,NA
"experimental",2,8,"hd","upper","telecast","w","w","g","h",0,1.24079663865268,NA,NA,NA
"experimental",2,9,"hd","upper","tycoon","w","w","g","h",0,0.565234063193202,NA,NA,NA
"experimental",2,10,"hd","upper","etuip","nw","nw","h","h",1,1.03881632210687,NA,NA,NA
"experimental",2,11,"hd","upper","lovud","nw","nw","h","h",1,0.628182349959388,NA,NA,NA
"experimental",2,12,"hd","upper","tuckel","nw","nw","h","h",1,1.14637238765135,NA,NA,NA
"experimental",2,13,"hd","upper","porcupine","target","target","q","q",1,0.915711314417422,1,NA,NA
"experimental",2,14,"hd","upper","compose","aftertar1","w","g","g",1,1.11060611251742,NA,NA,NA
"experimental",2,15,"hd","upper","result","aftertar2","w","g","g",1,0.72815993684344,NA,NA,NA
"experimental",2,16,"hd","upper","even","aftertar3","w","g","g",1,0.458099778275937,NA,NA,NA
"experimental",2,17,"hd","upper","poughest","w","nw","h","h",1,0.782897404627874,NA,NA,NA
"experimental",2,18,"hd","upper","caution","nw","w","g","g",1,0.654851537197828,NA,NA,NA
"experimental",2,19,"hd","upper","valif","w","nw","h","h",1,0.67560354503803,NA,NA,NA
"experimental",2,20,"hd","upper","zears","nw","nw","h","h",1,0.917435516603291,NA,NA,NA
"experimental",2,21,"hd","upper","ezulated","nw","nw","h","h",1,0.969215553952381,NA,NA,NA
"experimental",2,22,"hd","upper","subber","nw","nw","h","h",1,0.913700737990439,NA,NA,NA
"experimental",2,23,"hd","upper","terrify","nw","w","g","g",1,0.732484678737819,NA,NA,NA
"experimental",2,24,"hd","upper","comply","w","w","g","g",1,0.837513370672241,NA,NA,NA
"experimental",2,25,"hd","upper","rillains","w","nw","h","h",1,0.786884457338601,NA,NA,NA
"experimental",2,26,"hd","upper","prominent","nw","w","g","g",1,0.922221105312929,NA,NA,NA
"experimental",2,27,"hd","upper","reason","w","w","g","g",1,0.748180615017191,NA,NA,NA
"experimental",2,28,"hd","upper","sludding","w","nw","h","h",1,1.05366704193875,NA,NA,NA
"experimental",2,29,"hd","upper","iolize","nw","nw","h","h",1,0.994318126933649,NA,NA,NA
"experimental",2,30,"hd","upper","arcients","nw","nw","h","h",1,0.673697917256504,NA,NA,NA
"experimental",3,1,"hd","upper","undimmec","nw","nw","h","h",1,0.773510301019996,NA,NA,NA
"experimental",3,2,"hd","upper","nomma","nw","nw","h","h",1,0.597639666637406,NA,NA,NA
"experimental",3,3,"hd","upper","parody","w","w","g","g",1,0.692618125583977,NA,NA,NA
"experimental",3,4,"hd","upper","midday","w","w","g","g",1,0.712419305928051,NA,NA,NA
"experimental",3,5,"hd","upper","crimb","nw","nw","h","h",1,1.17115382477641,NA,NA,NA
"experimental",3,6,"hd","upper","prawls","nw","nw","h","h",1,1.61922199302353,NA,NA,NA
"experimental",3,7,"hd","upper","erony","nw","nw","h","h",1,1.12024151696824,NA,NA,NA
"experimental",3,8,"hd","upper","warden","w","w","g","g",1,2.11418495816179,NA,NA,NA
"experimental",3,9,"hd","upper","arranged","w","w","g","g",1,0.588252893881872,NA,NA,NA
"experimental",3,10,"hd","upper","offonents","nw","nw","h","h",1,1.19642954645678,NA,NA,NA
"experimental",3,11,"hd","upper","number","w","w","g","g",1,0.531805459409952,NA,NA,NA
"experimental",3,12,"hd","upper","airline","w","w","g","g",1,0.725849743699655,NA,NA,NA
"experimental",3,13,"hd","upper","elderly","w","w","g","g",1,0.999936351785436,NA,NA,NA
"experimental",3,14,"hd","upper","veirs","nw","nw","h","h",1,1.00632629636675,NA,NA,NA
"experimental",3,15,"hd","upper","mopping","w","w","g","g",1,0.709028506884351,NA,NA,NA
"experimental",3,16,"hd","upper","gontracts","nw","nw","h","h",1,0.759600807679817,NA,NA,NA
"experimental",3,17,"hd","upper","drauns","nw","nw","h","h",1,0.640285867033526,NA,NA,NA
"experimental",3,18,"hd","upper","giraffe","target","target","q","q",1,0.957702993182465,1,NA,NA
"experimental",3,19,"hd","upper","alber","aftertar1","nw","h","h",1,0.902418600860983,NA,NA,NA
"experimental",3,20,"hd","upper","childhood","aftertar2","w","g","g",1,1.4170930266846,NA,NA,NA
"experimental",3,21,"hd","upper","integral","aftertar3","w","g","g",1,1.04759955755435,NA,NA,NA
"experimental",3,22,"hd","upper","advantage","w","w","g","g",1,0.572344742715359,NA,NA,NA
"experimental",3,23,"hd","upper","pircus","w","nw","h","h",1,0.636241539614275,NA,NA,NA
"experimental",3,24,"hd","upper","penalize","nw","w","g","g",1,0.753624698380008,NA,NA,NA
"experimental",3,25,"hd","upper","despise","w","w","g","g",1,0.762574791908264,NA,NA,NA
"experimental",3,26,"hd","upper","gepealed","w","nw","h","h",1,0.667196071706712,NA,NA,NA
"experimental",3,27,"hd","upper","alchemist","nw","w","g","g",1,0.703170257853344,NA,NA,NA
"experimental",3,28,"hd","upper","insertion","w","w","g","g",1,0.62586685991846,NA,NA,NA
"experimental",3,29,"hd","upper","egpended","w","nw","h","h",1,0.719892174238339,NA,NA,NA
"experimental",3,30,"hd","upper","clooped","nw","nw","h","h",1,0.873949396656826,NA,NA,NA
"experimental",4,1,"ld","lower","virulent","w","w","g","h",0,0.805182919604704,NA,NA,NA
"experimental",4,2,"ld","lower","column","w","w","g","g",1,0.635901863919571,NA,NA,NA
"experimental",4,3,"ld","lower","handed","w","w","g","g",1,0.465213437564671,NA,NA,NA
"experimental",4,4,"ld","lower","quickel","nw","nw","h","h",1,1.3102745807264,NA,NA,NA
"experimental",4,5,"ld","lower","saturate","w","w","g","g",1,0.928679912118241,NA,NA,NA
"experimental",4,6,"ld","lower","halter","w","w","g","g",1,0.88165632984601,NA,NA,NA
"experimental",4,7,"ld","lower","veranpah","nw","nw","h","h",1,1.29330072179437,NA,NA,NA
"experimental",4,8,"ld","lower","sequence","w","w","g","g",1,0.641118172090501,NA,NA,NA
"experimental",4,9,"ld","lower","redefloy","nw","nw","h","h",1,1.11046706372872,NA,NA,NA
"experimental",4,10,"ld","lower","outflow","w","w","g","g",1,0.617201153654605,NA,NA,NA
"experimental",4,11,"ld","lower","eightiech","nw","nw","h","h",1,1.01309531368315,NA,NA,NA
"experimental",4,12,"ld","lower","plashed","nw","nw","h","h",1,0.637414844706655,NA,NA,NA
"experimental",4,13,"ld","lower","blueberry","w","w","g","g",1,0.699281863402575,NA,NA,NA
"experimental",4,14,"ld","lower","pigned","nw","nw","h","h",1,1.70967309665866,NA,NA,NA
"experimental",4,15,"ld","lower","aefated","nw","nw","h","h",1,0.736471069278196,NA,NA,NA
"experimental",4,16,"ld","lower","harder","w","w","g","g",1,0.553924116306007,NA,NA,NA
"experimental",4,17,"ld","lower","butler","w","w","g","g",1,0.826584814116359,NA,NA,NA
"experimental",4,18,"ld","lower","deadly","w","w","g","g",1,0.552601168164983,NA,NA,NA
"experimental",4,19,"ld","lower","living","w","w","g","g",1,0.545319326454774,NA,NA,NA
"experimental",4,20,"ld","lower","oldest","w","w","g","g",1,0.51465249247849,NA,NA,NA
"experimental",4,21,"ld","lower","flieves","nw","nw","h","h",1,0.845399411628023,NA,NA,NA
"experimental",4,22,"ld","lower","dorte","nw","nw","h","h",1,0.754691068548709,NA,NA,NA
"experimental",4,23,"ld","lower","gairs","nw","nw","h","g",0,0.786413016263396,NA,NA,NA
"experimental",4,24,"ld","lower","hegacy","nw","nw","h","h",1,0.961826114682481,NA,NA,NA
"experimental",4,25,"ld","lower","professor","w","w","g","g",1,0.866560288472101,NA,NA,NA
"experimental",4,26,"ld","lower","fisco","nw","nw","h","h",1,0.799239917192608,NA,NA,NA
"experimental",4,27,"ld","lower","walsams","nw","nw","h","h",1,0.622571739600971,NA,NA,NA
"experimental",4,28,"ld","lower","mitro","nw","nw","h","h",1,0.580618464620784,NA,NA,NA
"experimental",4,29,"ld","lower","ordinary","w","w","g","g",1,0.716684786835685,NA,NA,NA
"experimental",4,30,"ld","lower","lecked","nw","nw","h","h",1,1.0393890698906,NA,NA,NA
"experimental",5,1,"ld","lower","index","w","w","g","g",1,0.715848177904263,NA,NA,NA
"experimental",5,2,"ld","lower","crundle","nw","nw","h","h",1,0.798579105176032,NA,NA,NA
"experimental",5,3,"ld","lower","potent","w","w","g","g",1,0.934009445598349,NA,NA,NA
"experimental",5,4,"ld","lower","hanling","nw","nw","h","h",1,0.790900643682107,NA,NA,NA
"experimental",5,5,"ld","lower","tinion","nw","nw","h","h",1,0.679374078987166,NA,NA,NA
"experimental",5,6,"ld","lower","micron","w","w","g","h",0,0.666529300622642,NA,NA,NA
"experimental",5,7,"ld","lower","huzzles","nw","nw","h","h",1,0.646993305766955,NA,NA,NA
"experimental",5,8,"ld","lower","glocked","nw","nw","h","g",0,1.17263237480074,NA,NA,NA
"experimental",5,9,"ld","lower","truthful","w","w","g","g",1,0.620570433326066,NA,NA,NA
"experimental",5,10,"ld","lower","rapport","w","w","g","g",1,0.794651644770056,NA,NA,NA
"experimental",5,11,"ld","lower","preclude","w","w","g","g",1,1.546248965431,NA,NA,NA
"experimental",5,12,"ld","lower","aicline","nw","nw","h","h",1,0.835397514747456,NA,NA,NA
"experimental",5,13,"ld","lower","tibs","nw","nw","h","h",1,0.744784850161523,NA,NA,NA
"experimental",5,14,"ld","lower","loneliest","w","w","g","g",1,0.697200438473374,NA,NA,NA
"experimental",5,15,"ld","lower","plunging","w","w","g","g",1,1.02054136549123,NA,NA,NA
"experimental",5,16,"ld","lower","paranoid","w","w","g","g",1,0.826566274277866,NA,NA,NA
"experimental",5,17,"ld","lower","rantho","nw","nw","h","h",1,0.69664424401708,NA,NA,NA
"experimental",5,18,"ld","lower","grummer","nw","nw","h","h",1,0.859551578061655,NA,NA,NA
"experimental",5,19,"ld","lower","couple","w","w","g","g",1,0.712733158376068,NA,NA,NA
"experimental",5,20,"ld","lower","chesume","nw","nw","h","h",1,0.803447129903361,NA,NA,NA
"experimental",5,21,"ld","lower","crudios","nw","nw","h","h",1,1.53019547555596,NA,NA,NA
"experimental",5,22,"ld","lower","explosion","w","w","g","g",1,0.612155014183372,NA,NA,NA
"experimental",5,23,"ld","lower","dishwater","w","w","g","g",1,0.561800887342542,NA,NA,NA
"experimental",5,24,"ld","lower","irregular","w","w","g","g",1,0.67455372819677,NA,NA,NA
"experimental",5,25,"ld","lower","gradielts","nw","nw","h","h",1,0.726503272075206,NA,NA,NA
"experimental",5,26,"ld","lower","seartfelt","nw","nw","h","h",1,0.752872842829674,NA,NA,NA
"experimental",5,27,"ld","lower","drobate","nw","nw","h","h",1,0.793326710583642,NA,NA,NA
"experimental",5,28,"ld","lower","figure","w","w","g","g",1,0.600737470202148,NA,NA,NA
"experimental",5,29,"ld","lower","heaviest","w","w","g","g",1,0.64722472243011,NA,NA,NA
"experimental",5,30,"ld","lower","hivinity","nw","nw","h","h",1,0.677491626236588,NA,NA,NA
"experimental",6,1,"hd","upper","surdens","nw","nw","h","h",1,0.744724264834076,NA,NA,NA
"experimental",6,2,"hd","upper","pypecast","nw","nw","h","h",1,0.562094213673845,NA,NA,NA
"experimental",6,3,"hd","upper","emission","w","w","g","g",1,0.77082004211843,NA,NA,NA
"experimental",6,4,"hd","upper","lawsuit","w","w","g","g",1,0.586815065471455,NA,NA,NA
"experimental",6,5,"hd","upper","previous","w","w","g","g",1,1.28222649521194,NA,NA,NA
"experimental",6,6,"hd","upper","sength","nw","nw","h","h",1,0.78939627064392,NA,NA,NA
"experimental",6,7,"hd","upper","fission","w","w","g","g",1,0.700572366826236,NA,NA,NA
"experimental",6,8,"hd","upper","phambled","nw","nw","h","h",1,0.742860020371154,NA,NA,NA
"experimental",6,9,"hd","upper","nearsipe","nw","nw","h","h",1,0.792790711391717,NA,NA,NA
"experimental",6,10,"hd","upper","trembla","nw","nw","h","h",1,0.576221218565479,NA,NA,NA
"experimental",6,11,"hd","upper","duries","nw","nw","h","h",1,0.863424411974847,NA,NA,NA
"experimental",6,12,"hd","upper","system","w","w","g","g",1,0.588205551262945,NA,NA,NA
"experimental",6,13,"hd","upper","arrow","w","w","g","g",1,0.699857259634882,NA,NA,NA
"experimental",6,14,"hd","upper","shamrock","w","w","g","h",0,1.01489930367097,NA,NA,NA
"experimental",6,15,"hd","upper","grested","nw","nw","h","h",1,0.844652522355318,NA,NA,NA
"experimental",6,16,"hd","upper","hardest","w","w","g","g",1,0.67401044536382,NA,NA,NA
"experimental",6,17,"hd","upper","subpoena","w","w","g","h",0,0.701993641909212,NA,NA,NA
"experimental",6,18,"hd","upper","ascending","w","w","g","g",1,0.744410081068054,NA,NA,NA
"experimental",6,19,"hd","upper","buzzer","w","w","g","g",1,0.810122786322609,NA,NA,NA
"experimental",6,20,"hd","upper","patio","w","w","g","g",1,0.608786728000268,NA,NA,NA
"experimental",6,21,"hd","upper","trecious","nw","nw","h","h",1,1.15901852538809,NA,NA,NA
"experimental",6,22,"hd","upper","ringlat","nw","nw","h","h",1,0.77625353098847,NA,NA,NA
"experimental",6,23,"hd","upper","volition","w","w","g","g",1,0.800565844634548,NA,NA,NA
"experimental",6,24,"hd","upper","dests","nw","nw","h","h",1,1.19817030243576,NA,NA,NA
"experimental",6,25,"hd","upper","collute","nw","nw","h","h",1,1.05354719539173,NA,NA,NA
"experimental",6,26,"hd","upper","filny","nw","nw","h","h",1,0.690260590054095,NA,NA,NA
"experimental",6,27,"hd","upper","punctual","w","w","g","g",1,0.701552990358323,NA,NA,NA
"experimental",6,28,"hd","upper","rumblos","nw","nw","h","h",1,0.864264662843198,NA,NA,NA
"experimental",6,29,"hd","upper","ignoble","w","w","g","h",0,0.87707070610486,NA,NA,NA
"experimental",6,30,"hd","upper","rowel","nw","nw","h","h",1,0.745046062860638,NA,NA,NA
"experimental",7,1,"ld","lower","iflaid","nw","nw","h","h",1,0.769513316452503,NA,NA,NA
"experimental",7,2,"ld","lower","bloodless","w","w","g","g",1,1.04972071060911,NA,NA,NA
"experimental",7,3,"ld","lower","rebool","nw","nw","h","h",1,0.799021081067622,NA,NA,NA
"experimental",7,4,"ld","lower","gensions","nw","nw","h","h",1,0.822273314930499,NA,NA,NA
"experimental",7,5,"ld","lower","knowledge","w","w","g","g",1,0.660343625117093,NA,NA,NA
"experimental",7,6,"ld","lower","imotope","nw","nw","h","h",1,0.585109071806073,NA,NA,NA
"experimental",7,7,"ld","lower","dariner","nw","nw","h","h",1,0.847324241418391,NA,NA,NA
"experimental",7,8,"ld","lower","dislokes","nw","nw","h","h",1,0.916771394200623,NA,NA,NA
"experimental",7,9,"ld","lower","scrooner","nw","nw","h","h",1,1.01329991384409,NA,NA,NA
"experimental",7,10,"ld","lower","rainfall","w","w","g","g",1,0.662180390674621,NA,NA,NA
"experimental",7,11,"ld","lower","tenpince","nw","nw","h","h",1,0.610930724767968,NA,NA,NA
"experimental",7,12,"ld","lower","dominion","w","w","g","h",0,1.33762047113851,NA,NA,NA
"experimental",7,13,"ld","lower","border","w","w","g","h",0,2.89921353105456,NA,NA,NA
"experimental",7,14,"ld","lower","elvisages","nw","nw","h","h",1,0.669440381927416,NA,NA,NA
"experimental",7,15,"ld","lower","encounter","w","w","g","g",1,0.625566912349313,NA,NA,NA
"experimental",7,16,"ld","lower","pammed","nw","nw","h","h",1,0.60753694595769,NA,NA,NA
"experimental",7,17,"ld","lower","unbridled","w","w","g","h",0,1.12627159059048,NA,NA,NA
"experimental",7,18,"ld","lower","eugenifs","nw","nw","h","h",1,0.640283218584955,NA,NA,NA
"experimental",7,19,"ld","lower","birn","nw","nw","h","h",1,0.629688378656283,NA,NA,NA
"experimental",7,20,"ld","lower","neuran","nw","nw","h","h",1,1.15580716496333,NA,NA,NA
"experimental",7,21,"ld","lower","pretzel","w","w","g","g",1,0.652466191677377,NA,NA,NA
"experimental",7,22,"ld","lower","cessation","w","w","g","h",0,0.904206699458882,NA,NA,NA
"experimental",7,23,"ld","lower","graveyard","w","w","g","g",1,0.770821697311476,NA,NA,NA
"experimental",7,24,"ld","lower","dredigest","nw","nw","h","h",1,0.810879276599735,NA,NA,NA
"experimental",7,25,"ld","lower","moral","w","w","g","g",1,0.697600037790835,NA,NA,NA
"experimental",7,26,"ld","lower","alarm","w","w","g","g",1,0.668946759775281,NA,NA,NA
"experimental",7,27,"ld","lower","mustled","nw","nw","h","g",0,1.67302849749103,NA,NA,NA
"experimental",7,28,"ld","lower","upstairs","w","w","g","g",1,0.628708085976541,NA,NA,NA
"experimental",7,29,"ld","lower","pocket","w","w","g","g",1,0.603052960243076,NA,NA,NA
"experimental",7,30,"ld","lower","personify","w","w","g","g",1,1.08173896442167,NA,NA,NA
"experimental",8,1,"hd","upper","latirizes","nw","nw","h","h",1,0.789504860993475,NA,NA,NA
"experimental",8,2,"hd","upper","contusiok","nw","nw","h","h",1,1.25235753529705,NA,NA,NA
"experimental",8,3,"hd","upper","restock","w","w","g","g",1,0.833198891719803,NA,NA,NA
"experimental",8,4,"hd","upper","resent","w","w","g","g",1,1.50226657441817,NA,NA,NA
"experimental",8,5,"hd","upper","innocent","w","w","g","g",1,0.64095098269172,NA,NA,NA
"experimental",8,6,"hd","upper","kickoff","w","w","g","g",1,0.750279917847365,NA,NA,NA
"experimental",8,7,"hd","upper","castaway","w","w","g","g",1,0.791653492487967,NA,NA,NA
"experimental",8,8,"hd","upper","marinate","w","w","g","g",1,0.823046689853072,NA,NA,NA
"experimental",8,9,"hd","upper","carony","nw","nw","h","h",1,0.797100224299356,NA,NA,NA
"experimental",8,10,"hd","upper","begut","nw","nw","h","h",1,0.516479988116771,NA,NA,NA
"experimental",8,11,"hd","upper","inversion","w","w","g","g",1,0.710484544280916,NA,NA,NA
"experimental",8,12,"hd","upper","goltish","nw","nw","h","h",1,0.713228105334565,NA,NA,NA
"experimental",8,13,"hd","upper","gund","nw","nw","h","h",1,1.03497328399681,NA,NA,NA
"experimental",8,14,"hd","upper","axis","w","w","g","g",1,0.75233055325225,NA,NA,NA
"experimental",8,15,"hd","upper","mantos","nw","nw","h","h",1,1.32109520910308,NA,NA,NA
"experimental",8,16,"hd","upper","ensues","w","w","g","g",1,1.21850516460836,NA,NA,NA
"experimental",8,17,"hd","upper","artifact","w","w","g","g",1,0.728427108610049,NA,NA,NA
"experimental",8,18,"hd","upper","peadgear","nw","nw","h","h",1,0.833886188920587,NA,NA,NA
"experimental",8,19,"hd","upper","defensa","nw","nw","h","h",1,0.727181630441919,NA,NA,NA
"experimental",8,20,"hd","upper","racile","nw","nw","h","h",1,0.552606796612963,NA,NA,NA
"experimental",8,21,"hd","upper","bullet","w","w","g","g",1,0.745231129927561,NA,NA,NA
"experimental",8,22,"hd","upper","dialect","w","w","g","g",1,1.00955321686342,NA,NA,NA
"experimental",8,23,"hd","upper","endgume","nw","nw","h","h",1,1.25571191683412,NA,NA,NA
"experimental",8,24,"hd","upper","sefraud","nw","nw","h","h",1,0.811747999396175,NA,NA,NA
"experimental",8,25,"hd","upper","golemic","nw","nw","h","h",1,0.961793339112774,NA,NA,NA
"experimental",8,26,"hd","upper","retona","nw","nw","h","h",1,0.793874628143385,NA,NA,NA
"experimental",8,27,"hd","upper","kettle","w","w","g","g",1,0.832664216868579,NA,NA,NA
"experimental",8,28,"hd","upper","coyote","target","target","q","q",1,1.16666785255075,1,NA,NA
"experimental",8,29,"hd","upper","insole","aftertar1","w","g","h",0,0.605740901781246,NA,NA,NA
"experimental",8,30,"hd","upper","beartiset","aftertar2","nw","h","h",1,1.26768731046468,NA,NA,NA
"experimental",9,1,"ld","lower","felevance","nw","nw","h","h",1,1.02397189266048,NA,NA,NA
"experimental",9,2,"ld","lower","sazer","nw","nw","h","h",1,0.68534919526428,NA,NA,NA
"experimental",9,3,"ld","lower","ufionize","nw","nw","h","h",1,0.816944443620741,NA,NA,NA
"experimental",9,4,"ld","lower","frader","nw","nw","h","h",1,0.645764712244272,NA,NA,NA
"experimental",9,5,"ld","lower","chrayed","nw","nw","h","h",1,0.570479174377397,NA,NA,NA
"experimental",9,6,"ld","lower","mounting","w","w","g","g",1,0.721830246504396,NA,NA,NA
"experimental",9,7,"ld","lower","bamps","nw","nw","h","h",1,0.707140757003799,NA,NA,NA
"experimental",9,8,"ld","lower","tucker","w","w","g","g",1,1.32523819478229,NA,NA,NA
"experimental",9,9,"ld","lower","urgent","w","w","g","g",1,1.39069465338252,NA,NA,NA
"experimental",9,10,"ld","lower","serfume","nw","nw","h","h",1,0.733233885839581,NA,NA,NA
"experimental",9,11,"ld","lower","cartles","nw","nw","h","h",1,0.75865494646132,NA,NA,NA
"experimental",9,12,"ld","lower","gallon","w","w","g","g",1,0.837725916411728,NA,NA,NA
"experimental",9,13,"ld","lower","nauling","nw","nw","h","h",1,0.810364465694875,NA,NA,NA
"experimental",9,14,"ld","lower","inducing","w","w","g","g",1,0.848254211712629,NA,NA,NA
"experimental",9,15,"ld","lower","disease","w","w","g","g",1,0.565266838762909,NA,NA,NA
"experimental",9,16,"ld","lower","flamingo","target","target","q","q",1,0.837830865057185,1,NA,NA
"experimental",9,17,"ld","lower","swatches","aftertar1","w","g","q",0,0.882604839745909,NA,NA,1
"experimental",9,18,"ld","lower","primal","aftertar2","w","g","g",1,1.23059312137775,NA,NA,NA
"experimental",9,19,"ld","lower","fatho","aftertar3","nw","h","h",1,0.835956688737497,NA,NA,NA
"experimental",9,20,"ld","lower","brudent","nw","nw","h","h",1,1.67182539636269,NA,NA,NA
"experimental",9,21,"ld","lower","deakers","nw","nw","h","h",1,0.955155424540862,NA,NA,NA
"experimental",9,22,"ld","lower","acoustic","nw","w","g","g",1,1.21117035183124,NA,NA,NA
"experimental",9,23,"ld","lower","eyesight","w","w","g","g",1,0.673147351015359,NA,NA,NA
"experimental",9,24,"ld","lower","overcoat","w","w","g","g",1,0.732611477840692,NA,NA,NA
"experimental",9,25,"ld","lower","greft","w","nw","h","h",1,0.685924922814593,NA,NA,NA
"experimental",9,26,"ld","lower","sording","nw","nw","h","h",1,0.593299033120275,NA,NA,NA
"experimental",9,27,"ld","lower","railroad","nw","w","g","g",1,0.824011091142893,NA,NA,NA
"experimental",9,28,"ld","lower","deficit","w","w","g","g",1,0.812460126588121,NA,NA,NA
"experimental",9,29,"ld","lower","fuack","w","nw","h","h",1,0.65844826051034,NA,NA,NA
"experimental",9,30,"ld","lower","statute","nw","w","g","g",1,0.92649022792466,NA,NA,NA
"experimental",10,1,"ld","lower","joadbed","nw","nw","h","h",1,0.630311117507517,NA,NA,NA
"experimental",10,2,"ld","lower","fassed","nw","nw","h","h",1,0.582041064044461,NA,NA,NA
"experimental",10,3,"ld","lower","trocess","nw","nw","h","h",1,0.716413642046973,NA,NA,NA
"experimental",10,4,"ld","lower","odacles","nw","nw","h","h",1,0.774424379924312,NA,NA,NA
"experimental",10,5,"ld","lower","scrobby","nw","nw","h","h",1,0.893833675188944,NA,NA,NA
"experimental",10,6,"ld","lower","peags","nw","nw","h","h",1,0.6252494181972,NA,NA,NA
"experimental",10,7,"ld","lower","apticle","nw","nw","h","h",1,0.655528902541846,NA,NA,NA
"experimental",10,8,"ld","lower","mandate","w","w","g","g",1,0.747337715933099,NA,NA,NA
"experimental",10,9,"ld","lower","ragtam","nw","nw","h","h",1,0.683953081257641,NA,NA,NA
"experimental",10,10,"ld","lower","removable","w","w","g","g",1,0.726541676092893,NA,NA,NA
"experimental",10,11,"ld","lower","derived","w","w","g","g",1,0.752813250292093,NA,NA,NA
"experimental",10,12,"ld","lower","strenuous","w","w","g","g",1,0.767826524563134,NA,NA,NA
"experimental",10,13,"ld","lower","ifling","nw","nw","h","h",1,0.639907125150785,NA,NA,NA
"experimental",10,14,"ld","lower","sarlock","nw","nw","h","h",1,0.692601572256535,NA,NA,NA
"experimental",10,15,"ld","lower","standard","w","w","g","g",1,0.951312055345625,NA,NA,NA
"experimental",10,16,"ld","lower","fracture","w","w","g","g",1,0.888030051952228,NA,NA,NA
"experimental",10,17,"ld","lower","contain","w","w","g","g",1,0.618727046297863,NA,NA,NA
"experimental",10,18,"ld","lower","walnut","w","w","g","g",1,1.07281336979941,NA,NA,NA
"experimental",10,19,"ld","lower","tipoff","w","w","g","g",1,1.34811764606275,NA,NA,NA
"experimental",10,20,"ld","lower","trake","nw","nw","h","h",1,0.676841739565134,NA,NA,NA
"experimental",10,21,"ld","lower","sooled","nw","nw","h","h",1,0.615987127181143,NA,NA,NA
"experimental",10,22,"ld","lower","allained","nw","nw","h","h",1,1.08593525202014,NA,NA,NA
"experimental",10,23,"ld","lower","enabled","w","w","g","g",1,0.641296286601573,NA,NA,NA
"experimental",10,24,"ld","lower","apology","w","w","g","g",1,0.822067059576511,NA,NA,NA
"experimental",10,25,"ld","lower","religious","w","w","g","g",1,0.603278748923913,NA,NA,NA
"experimental",10,26,"ld","lower","corduroy","w","w","g","h",0,1.21686670859344,NA,NA,NA
"experimental",10,27,"ld","lower","troven","nw","nw","h","h",1,0.927493032999337,NA,NA,NA
"experimental",10,28,"ld","lower","slooping","nw","nw","h","h",1,0.743957842234522,NA,NA,NA
"experimental",10,29,"ld","lower","parent","w","w","g","g",1,0.640094178495929,NA,NA,NA
"experimental",10,30,"ld","lower","oppose","w","w","g","g",1,0.709303955547512,NA,NA,NA
"experimental",11,1,"hd","upper","splinging","nw","nw","h","h",1,0.93618390080519,NA,NA,NA
"experimental",11,2,"hd","upper","boutique","w","w","g","g",1,0.912882006727159,NA,NA,NA
"experimental",11,3,"hd","upper","scarlet","w","w","g","g",1,0.697928788373247,NA,NA,NA
"experimental",11,4,"hd","upper","duplex","w","w","g","g",1,0.676580526866019,NA,NA,NA
"experimental",11,5,"hd","upper","hecture","nw","nw","h","h",1,1.3441726390738,NA,NA,NA
"experimental",11,6,"hd","upper","uncorked","w","w","g","g",1,1.44955226313323,NA,NA,NA
"experimental",11,7,"hd","upper","farochial","nw","nw","h","h",1,0.974119995953515,NA,NA,NA
"experimental",11,8,"hd","upper","mullet","w","w","g","g",1,0.701496046502143,NA,NA,NA
"experimental",11,9,"hd","upper","arpired","nw","nw","h","h",1,1.13627977808937,NA,NA,NA
"experimental",11,10,"hd","upper","reses","nw","nw","h","h",1,0.840703542344272,NA,NA,NA
"experimental",11,11,"hd","upper","ebince","nw","nw","h","h",1,0.820196856046095,NA,NA,NA
"experimental",11,12,"hd","upper","trallion","nw","nw","h","h",1,1.03331165364943,NA,NA,NA
"experimental",11,13,"hd","upper","huntry","nw","nw","h","h",1,1.27076856093481,NA,NA,NA
"experimental",11,14,"hd","upper","infancy","w","w","g","g",1,0.922026106156409,NA,NA,NA
"experimental",11,15,"hd","upper","educate","w","w","g","g",1,0.633637358201668,NA,NA,NA
"experimental",11,16,"hd","upper","monkey","target","target","q","q",1,0.840847226092592,1,NA,NA
"experimental",11,17,"hd","upper","omission","aftertar1","w","g","g",1,0.741560247261077,NA,NA,NA
"experimental",11,18,"hd","upper","hasks","aftertar2","nw","h","h",1,1.09435596805997,NA,NA,NA
"experimental",11,19,"hd","upper","athcan","aftertar3","nw","h","h",1,0.808052286505699,NA,NA,NA
"experimental",11,20,"hd","upper","prillway","nw","nw","h","h",1,0.725927544757724,NA,NA,NA
"experimental",11,21,"hd","upper","epic","nw","w","g","g",1,1.59941319795325,NA,NA,NA
"experimental",11,22,"hd","upper","trophy","w","w","g","g",1,1.18198703369126,NA,NA,NA
"experimental",11,23,"hd","upper","inverted","w","w","g","g",1,0.709397316677496,NA,NA,NA
"experimental",11,24,"hd","upper","acting","w","w","g","g",1,0.519400008255616,NA,NA,NA
"experimental",11,25,"hd","upper","podges","w","nw","h","h",1,0.680741721298546,NA,NA,NA
"experimental",11,26,"hd","upper","posing","nw","w","g","g",1,0.86907905433327,NA,NA,NA
"experimental",11,27,"hd","upper","incidonts","w","nw","h","h",1,1.59994423133321,NA,NA,NA
"experimental",11,28,"hd","upper","nopping","nw","nw","h","h",1,0.838576761307195,NA,NA,NA
"experimental",11,29,"hd","upper","gaining","nw","w","g","g",1,0.931299322517589,NA,NA,NA
"experimental",11,30,"hd","upper","function","w","w","g","g",1,0.812708758749068,NA,NA,NA
"experimental",12,1,"hd","upper","riosk","nw","nw","h","h",1,0.818448154721409,NA,NA,NA
"experimental",12,2,"hd","upper","fonducts","nw","nw","h","h",1,1.64052556012757,NA,NA,NA
"experimental",12,3,"hd","upper","computer","w","w","g","g",1,0.605235029943287,NA,NA,NA
"experimental",12,4,"hd","upper","chraps","nw","nw","h","h",1,0.674847385613248,NA,NA,NA
"experimental",12,5,"hd","upper","intended","w","w","g","g",1,0.638546435395256,NA,NA,NA
"experimental",12,6,"hd","upper","handcuff","w","w","g","g",1,0.771316312951967,NA,NA,NA
"experimental",12,7,"hd","upper","showdown","w","w","g","g",1,0.86693505756557,NA,NA,NA
"experimental",12,8,"hd","upper","chappef","nw","nw","h","h",1,0.726586039178073,NA,NA,NA
"experimental",12,9,"hd","upper","bengths","nw","nw","h","h",1,0.91096412949264,NA,NA,NA
"experimental",12,10,"hd","upper","thamp","nw","nw","h","h",1,0.904946636641398,NA,NA,NA
"experimental",12,11,"hd","upper","elpousal","nw","nw","h","h",1,0.93903207918629,NA,NA,NA
"experimental",12,12,"hd","upper","sustain","w","w","g","g",1,0.651452130405232,NA,NA,NA
"experimental",12,13,"hd","upper","ements","nw","nw","h","h",1,0.896173001732677,NA,NA,NA
"experimental",12,14,"hd","upper","achieve","w","w","g","g",1,0.619281916180626,NA,NA,NA
"experimental",12,15,"hd","upper","fomes","nw","nw","h","h",1,0.600979811977595,NA,NA,NA
"experimental",12,16,"hd","upper","season","w","w","g","g",1,0.54359744139947,NA,NA,NA
"experimental",12,17,"hd","upper","plogging","nw","nw","h","h",1,0.656352930702269,NA,NA,NA
"experimental",12,18,"hd","upper","supplier","w","w","g","g",1,0.739297065883875,NA,NA,NA
"experimental",12,19,"hd","upper","presently","w","w","g","g",1,1.11649448866956,NA,NA,NA
"experimental",12,20,"hd","upper","gazes","w","w","g","g",1,0.663000777363777,NA,NA,NA
"experimental",12,21,"hd","upper","surround","w","w","g","g",1,0.562843420775607,NA,NA,NA
"experimental",12,22,"hd","upper","cooray","nw","nw","h","h",1,0.874844935722649,NA,NA,NA
"experimental",12,23,"hd","upper","burning","w","w","g","g",1,0.598464688286185,NA,NA,NA
"experimental",12,24,"hd","upper","tharcely","nw","nw","h","h",1,0.797016795026138,NA,NA,NA
"experimental",12,25,"hd","upper","butterfly","target","target","q","q",1,1.05960143683478,1,NA,NA
"experimental",12,26,"hd","upper","gerby","aftertar1","nw","h","h",1,0.918672387022525,NA,NA,NA
"experimental",12,27,"hd","upper","cogantly","aftertar2","nw","h","h",1,1.28881011460908,NA,NA,NA
"experimental",12,28,"hd","upper","chemical","aftertar3","w","g","g",1,0.691110110608861,NA,NA,NA
"experimental",12,29,"hd","upper","warmer","w","w","g","g",1,0.854129345389083,NA,NA,NA
"experimental",12,30,"hd","upper","refebs","w","nw","h","h",1,0.714153109351173,NA,NA,NA
"experimental",13,1,"hd","upper","soluced","nw","nw","h","h",1,2.64356377185322,NA,NA,NA
"experimental",13,2,"hd","upper","squadroim","nw","nw","h","h",1,0.880242007086053,NA,NA,NA
"experimental",13,3,"hd","upper","party","w","w","g","g",1,0.659590114140883,NA,NA,NA
"experimental",13,4,"hd","upper","imprives","nw","nw","h","h",1,1.90372300893068,NA,NA,NA
"experimental",13,5,"hd","upper","unversed","w","w","g","g",1,2.20978218340315,NA,NA,NA
"experimental",13,6,"hd","upper","graciap","nw","nw","h","h",1,0.95886073820293,NA,NA,NA
"experimental",13,7,"hd","upper","amms","nw","nw","h","h",1,0.6548478952609,NA,NA,NA
"experimental",13,8,"hd","upper","atsless","nw","nw","h","h",1,0.754912884207442,NA,NA,NA
"experimental",13,9,"hd","upper","favoting","nw","nw","h","h",1,1.21901103644632,NA,NA,NA
"experimental",13,10,"hd","upper","robbery","w","w","g","g",1,0.720750964712352,NA,NA,NA
"experimental",13,11,"hd","upper","sunshine","w","w","g","g",1,0.562133941799402,NA,NA,NA
"experimental",13,12,"hd","upper","twarfs","nw","nw","h","h",1,0.77808797894977,NA,NA,NA
"experimental",13,13,"hd","upper","aggepting","nw","nw","h","h",1,0.849515249719843,NA,NA,NA
"experimental",13,14,"hd","upper","stalemate","w","w","g","h",0,1.990202619927,NA,NA,NA
"experimental",13,15,"hd","upper","unlined","w","w","g","g",1,1.27630964689888,NA,NA,NA
"experimental",13,16,"hd","upper","joses","nw","nw","h","h",1,0.76793643925339,NA,NA,NA
"experimental",13,17,"hd","upper","implode","w","w","g","g",1,0.920067838858813,NA,NA,NA
"experimental",13,18,"hd","upper","emotion","w","w","g","g",1,0.665456308983266,NA,NA,NA
"experimental",13,19,"hd","upper","airmen","w","w","g","g",1,0.773541752481833,NA,NA,NA
"experimental",13,20,"hd","upper","togglo","nw","nw","h","h",1,0.724888653028756,NA,NA,NA
"experimental",13,21,"hd","upper","grolific","nw","nw","h","h",1,1.02226258814335,NA,NA,NA
"experimental",13,22,"hd","upper","fraft","nw","nw","h","h",1,0.715645233169198,NA,NA,NA
"experimental",13,23,"hd","upper","regional","w","w","g","g",1,1.02868431527168,NA,NA,NA
"experimental",13,24,"hd","upper","expired","w","w","g","g",1,0.634044240927324,NA,NA,NA
"experimental",13,25,"hd","upper","dolphin","target","target","q","q",1,0.799569661030546,1,NA,NA
"experimental",13,26,"hd","upper","dialogues","aftertar1","w","g","g",1,0.910791642963886,NA,NA,NA
"experimental",13,27,"hd","upper","entropy","aftertar2","w","g","g",1,2.61758618569002,NA,NA,NA
"experimental",13,28,"hd","upper","cabinet","aftertar3","w","g","g",1,0.695015720557421,NA,NA,NA
"experimental",13,29,"hd","upper","elormity","w","nw","h","h",1,0.977660768898204,NA,NA,NA
"experimental",13,30,"hd","upper","porghum","nw","nw","h","h",1,0.520086312433705,NA,NA,NA
"experimental",14,1,"ld","lower","thorifies","nw","nw","h","h",1,0.738100585993379,NA,NA,NA
"experimental",14,2,"ld","lower","afford","w","w","g","g",1,0.554791514528915,NA,NA,NA
"experimental",14,3,"ld","lower","gablus","nw","nw","h","h",1,0.770766740199178,NA,NA,NA
"experimental",14,4,"ld","lower","hostade","nw","nw","h","h",1,0.994232380297035,NA,NA,NA
"experimental",14,5,"ld","lower","rodeo","w","w","g","g",1,0.999942311085761,NA,NA,NA
"experimental",14,6,"ld","lower","sopes","nw","nw","h","h",1,0.774651161395013,NA,NA,NA
"experimental",14,7,"ld","lower","sonnet","w","w","g","g",1,1.83770903176628,NA,NA,NA
"experimental",14,8,"ld","lower","cripet","nw","nw","h","h",1,0.898844390176237,NA,NA,NA
"experimental",14,9,"ld","lower","carbled","nw","nw","h","h",1,1.0615808928851,NA,NA,NA
"experimental",14,10,"ld","lower","yash","nw","nw","h","h",1,1.65769673604518,NA,NA,NA
"experimental",14,11,"ld","lower","entitle","w","w","g","g",1,0.89378533908166,NA,NA,NA
"experimental",14,12,"ld","lower","army","w","w","g","g",1,0.783411222277209,NA,NA,NA
"experimental",14,13,"ld","lower","curtail","w","w","g","h",0,2.2068042261526,NA,NA,NA
"experimental",14,14,"ld","lower","brials","nw","nw","h","g",0,2.84491108637303,NA,NA,NA
"experimental",14,15,"ld","lower","peanimate","nw","nw","h","h",1,0.729565982706845,NA,NA,NA
"experimental",14,16,"ld","lower","fravity","nw","nw","h","h",1,0.650797939859331,NA,NA,NA
"experimental",14,17,"ld","lower","ebciting","nw","nw","h","h",1,0.630688866134733,NA,NA,NA
"experimental",14,18,"ld","lower","pressures","w","w","g","g",1,0.867171771358699,NA,NA,NA
"experimental",14,19,"ld","lower","ireology","nw","nw","h","h",1,1.64644538797438,NA,NA,NA
"experimental",14,20,"ld","lower","enacted","w","w","g","g",1,0.739111336879432,NA,NA,NA
"experimental",14,21,"ld","lower","revising","w","w","g","h",0,4.46799440938048,NA,NA,NA
"experimental",14,22,"ld","lower","roughly","w","w","g","g",1,2.54335311311297,NA,NA,NA
"experimental",14,23,"ld","lower","monopoly","w","w","g","g",1,1.30411539063789,NA,NA,NA
"experimental",14,24,"ld","lower","ronvince","nw","nw","h","h",1,0.865107893012464,NA,NA,NA
"experimental",14,25,"ld","lower","jiggling","w","w","g","g",1,1.86118572996929,NA,NA,NA
"experimental",14,26,"ld","lower","anonymous","w","w","g","g",1,1.0735437059775,NA,NA,NA
"experimental",14,27,"ld","lower","acidic","w","w","g","g",1,0.772753810510039,NA,NA,NA
"experimental",14,28,"ld","lower","yellep","nw","nw","h","h",1,0.748013756703585,NA,NA,NA
"experimental",14,29,"ld","lower","finstrel","nw","nw","h","h",1,0.756769844796509,NA,NA,NA
"experimental",14,30,"ld","lower","calcify","w","w","g","h",0,1.22083555255085,NA,NA,NA
"experimental",15,1,"ld","lower","congraks","nw","nw","h","h",1,0.657952651847154,NA,NA,NA
"experimental",15,2,"ld","lower","atch","nw","nw","h","h",1,0.5580502175726,NA,NA,NA
"experimental",15,3,"ld","lower","mabit","nw","nw","h","h",1,0.670124368742108,NA,NA,NA
"experimental",15,4,"ld","lower","snocks","nw","nw","h","h",1,1.43352360324934,NA,NA,NA
"experimental",15,5,"ld","lower","ubefully","nw","nw","h","h",1,0.662893180269748,NA,NA,NA
"experimental",15,6,"ld","lower","suddenly","w","w","g","g",1,0.689987789839506,NA,NA,NA
"experimental",15,7,"ld","lower","rootsie","nw","nw","h","h",1,0.924569371156394,NA,NA,NA
"experimental",15,8,"ld","lower","colicky","w","w","g","h",0,0.685941145056859,NA,NA,NA
"experimental",15,9,"ld","lower","cookbook","w","w","g","g",1,1.09676912310533,NA,NA,NA
"experimental",15,10,"ld","lower","recollect","w","w","g","g",1,0.731296144425869,NA,NA,NA
"experimental",15,11,"ld","lower","glates","nw","nw","h","h",1,0.908790667541325,NA,NA,NA
"experimental",15,12,"ld","lower","addma","nw","nw","h","h",1,0.766844576690346,NA,NA,NA
"experimental",15,13,"ld","lower","splatter","w","w","g","g",1,0.686811523046345,NA,NA,NA
"experimental",15,14,"ld","lower","gigglod","nw","nw","h","h",1,0.967953853541985,NA,NA,NA
"experimental",15,15,"ld","lower","befriend","w","w","g","g",1,0.799796442501247,NA,NA,NA
"experimental",15,16,"ld","lower","comment","w","w","g","g",1,0.75872016674839,NA,NA,NA
"experimental",15,17,"ld","lower","intrude","w","w","g","g",1,0.78281099582091,NA,NA,NA
"experimental",15,18,"ld","lower","alticles","nw","nw","h","h",1,2.37416872917674,NA,NA,NA
"experimental",15,19,"ld","lower","combat","w","w","g","g",1,0.677554197842255,NA,NA,NA
"experimental",15,20,"ld","lower","reconcile","w","w","g","g",1,0.760926073184237,NA,NA,NA
"experimental",15,21,"ld","lower","spigat","nw","nw","h","h",1,0.944973757490516,NA,NA,NA
"experimental",15,22,"ld","lower","aligning","w","w","g","g",1,0.776703452458605,NA,NA,NA
"experimental",15,23,"ld","lower","maunches","nw","nw","h","h",1,1.09613910061307,NA,NA,NA
"experimental",15,24,"ld","lower","triangle","w","w","g","g",1,0.730800204444677,NA,NA,NA
"experimental",15,25,"ld","lower","susher","nw","nw","h","h",1,0.988178469939157,NA,NA,NA
"experimental",15,26,"ld","lower","presence","w","w","g","g",1,0.674855000106618,NA,NA,NA
"experimental",15,27,"ld","lower","bother","w","w","g","g",1,0.942243770230562,NA,NA,NA
"experimental",15,28,"ld","lower","scack","nw","nw","h","h",1,1.03098424524069,NA,NA,NA
"experimental",15,29,"ld","lower","paying","w","w","g","g",1,0.844362506410107,NA,NA,NA
"experimental",15,30,"ld","lower","efcorted","nw","nw","h","h",1,0.960005240514874,NA,NA,NA
"experimental",16,1,"hd","upper","amkles","nw","nw","h","h",1,0.904566570417956,NA,NA,NA
"experimental",16,2,"hd","upper","actively","w","w","g","g",1,0.754696696531028,NA,NA,NA
"experimental",16,3,"hd","upper","egcused","nw","nw","h","h",1,0.690821750322357,NA,NA,NA
"experimental",16,4,"hd","upper","migmarole","nw","nw","h","h",1,0.693566304398701,NA,NA,NA
"experimental",16,5,"hd","upper","nores","nw","nw","h","h",1,0.615214745281264,NA,NA,NA
"experimental",16,6,"hd","upper","fidelity","w","w","g","g",1,1.19730290398002,NA,NA,NA
"experimental",16,7,"hd","upper","jinds","nw","nw","h","h",1,0.700003591831774,NA,NA,NA
"experimental",16,8,"hd","upper","deserve","w","w","g","g",1,0.662664412287995,NA,NA,NA
"experimental",16,9,"hd","upper","pexts","nw","nw","h","h",1,0.698726662201807,NA,NA,NA
"experimental",16,10,"hd","upper","dileting","nw","nw","h","h",1,0.973439319990575,NA,NA,NA
"experimental",16,11,"hd","upper","manage","w","w","g","g",1,0.676758641609922,NA,NA,NA
"experimental",16,12,"hd","upper","shockwave","w","w","g","g",1,1.75223421235569,NA,NA,NA
"experimental",16,13,"hd","upper","dusmy","nw","nw","h","h",1,0.559865132439882,NA,NA,NA
"experimental",16,14,"hd","upper","series","w","w","g","g",1,0.815938327694312,NA,NA,NA
"experimental",16,15,"hd","upper","threaded","w","w","g","g",1,0.717676997650415,NA,NA,NA
"experimental",16,16,"hd","upper","matter","w","w","g","g",1,0.50305418507196,NA,NA,NA
"experimental",16,17,"hd","upper","mortgage","w","w","g","g",1,0.617326959501952,NA,NA,NA
"experimental",16,18,"hd","upper","schinter","nw","nw","h","h",1,0.630515386583284,NA,NA,NA
"experimental",16,19,"hd","upper","infested","w","w","g","g",1,1.22792603704147,NA,NA,NA
"experimental",16,20,"hd","upper","sliding","w","w","g","g",1,0.79320752620697,NA,NA,NA
"experimental",16,21,"hd","upper","ausht","nw","nw","h","h",1,0.671934979967773,NA,NA,NA
"experimental",16,22,"hd","upper","pakened","nw","nw","h","h",1,0.914278782904148,NA,NA,NA
"experimental",16,23,"hd","upper","permeable","w","w","g","g",1,0.900260699214414,NA,NA,NA
"experimental",16,24,"hd","upper","release","w","w","g","g",1,0.567042025737464,NA,NA,NA
"experimental",16,25,"hd","upper","setwixt","nw","nw","h","h",1,0.702668689657003,NA,NA,NA
"experimental",16,26,"hd","upper","decantel","nw","nw","h","h",1,0.8333177450113,NA,NA,NA
"experimental",16,27,"hd","upper","vorm","nw","nw","h","h",1,0.951196843991056,NA,NA,NA
"experimental",16,28,"hd","upper","hutting","nw","nw","h","g",0,0.631238770205528,NA,NA,NA
"experimental",16,29,"hd","upper","resume","w","w","g","g",1,0.796527145430446,NA,NA,NA
"experimental",16,30,"hd","upper","ethical","w","w","g","g",1,0.690706538502127,NA,NA,NA
"experimental",17,1,"ld","lower","caloric","w","w","g","g",1,1.18193273874931,NA,NA,NA
"experimental",17,2,"ld","lower","pived","nw","nw","h","h",1,0.677359530003741,NA,NA,NA
"experimental",17,3,"ld","lower","cheathe","nw","nw","h","h",1,0.760761532234028,NA,NA,NA
"experimental",17,4,"ld","lower","balign","nw","nw","h","h",1,1.22373968153261,NA,NA,NA
"experimental",17,5,"ld","lower","giving","w","w","g","g",1,0.629932375624776,NA,NA,NA
"experimental",17,6,"ld","lower","uncounted","w","w","g","g",1,0.795223730383441,NA,NA,NA
"experimental",17,7,"ld","lower","treenery","nw","nw","h","h",1,0.841957628261298,NA,NA,NA
"experimental",17,8,"ld","lower","rawhide","w","w","g","h",0,0.742612050613388,NA,NA,NA
"experimental",17,9,"ld","lower","thaken","nw","nw","h","h",1,0.69539744197391,NA,NA,NA
"experimental",17,10,"ld","lower","reddar","nw","nw","h","h",1,0.690023876260966,NA,NA,NA
"experimental",17,11,"ld","lower","boulder","w","w","g","g",1,0.852624640800059,NA,NA,NA
"experimental",17,12,"ld","lower","pamine","nw","nw","h","h",1,0.632934169610962,NA,NA,NA
"experimental",17,13,"ld","lower","mitten","w","w","g","g",1,0.637732670176774,NA,NA,NA
"experimental",17,14,"ld","lower","hotplate","w","w","g","g",1,1.05052686133422,NA,NA,NA
"experimental",17,15,"ld","lower","gaioty","nw","nw","h","h",1,0.59035616950132,NA,NA,NA
"experimental",17,16,"ld","lower","bluads","nw","nw","h","h",1,0.589044146705419,NA,NA,NA
"experimental",17,17,"ld","lower","casino","w","w","g","g",1,0.691854351665825,NA,NA,NA
"experimental",17,18,"ld","lower","gymnasium","w","w","g","g",1,0.7338923800271,NA,NA,NA
"experimental",17,19,"ld","lower","jungle","w","w","g","g",1,0.919297774555162,NA,NA,NA
"experimental",17,20,"ld","lower","acorn","w","w","g","g",1,0.792723835678771,NA,NA,NA
"experimental",17,21,"ld","lower","bropic","nw","nw","h","h",1,0.831454825121909,NA,NA,NA
"experimental",17,22,"ld","lower","mamps","nw","nw","h","h",1,1.28397221723571,NA,NA,NA
"experimental",17,23,"ld","lower","donastic","nw","nw","h","h",1,0.91846944228746,NA,NA,NA
"experimental",17,24,"ld","lower","derisury","nw","nw","h","h",1,0.9439368522726,NA,NA,NA
"experimental",17,25,"ld","lower","ottans","nw","nw","h","h",1,0.69663662975654,NA,NA,NA
"experimental",17,26,"ld","lower","maintain","w","w","g","g",1,0.891374832484871,NA,NA,NA
"experimental",17,27,"ld","lower","forgive","w","w","g","g",1,0.590059532318264,NA,NA,NA
"experimental",17,28,"ld","lower","huests","nw","nw","h","h",1,0.844808786408976,NA,NA,NA
"experimental",17,29,"ld","lower","practice","w","w","g","g",1,0.825741583947092,NA,NA,NA
"experimental",17,30,"ld","lower","organize","w","w","g","g",1,0.822498772293329,NA,NA,NA
"experimental",18,1,"hd","upper","noblin","nw","nw","h","h",1,0.964678928256035,NA,NA,NA
"experimental",18,2,"hd","upper","flooted","nw","nw","h","h",1,1.21278695715591,NA,NA,NA
"experimental",18,3,"hd","upper","arrive","w","w","g","g",1,0.658873020904139,NA,NA,NA
"experimental",18,4,"hd","upper","carnival","w","w","g","g",1,0.669865473406389,NA,NA,NA
"experimental",18,5,"hd","upper","prame","nw","nw","h","h",1,0.705216920468956,NA,NA,NA
"experimental",18,6,"hd","upper","antonym","w","w","g","h",0,1.71555650676601,NA,NA,NA
"experimental",18,7,"hd","upper","shurk","nw","nw","h","h",1,0.749949180753902,NA,NA,NA
"experimental",18,8,"hd","upper","fards","nw","nw","h","h",1,1.6226770193316,NA,NA,NA
"experimental",18,9,"hd","upper","incorrect","w","w","g","g",1,0.636020055040717,NA,NA,NA
"experimental",18,10,"hd","upper","glaims","nw","nw","h","h",1,0.552781269187108,NA,NA,NA
"experimental",18,11,"hd","upper","mandlers","nw","nw","h","h",1,0.832904572132975,NA,NA,NA
"experimental",18,12,"hd","upper","gelfry","nw","nw","h","h",1,0.557307300623506,NA,NA,NA
"experimental",18,13,"hd","upper","loached","nw","nw","h","h",1,1.56531020859256,NA,NA,NA
"experimental",18,14,"hd","upper","amplifier","w","w","g","g",1,0.797338924370706,NA,NA,NA
"experimental",18,15,"hd","upper","remade","w","w","g","g",1,0.556064802221954,NA,NA,NA
"experimental",18,16,"hd","upper","epthuse","nw","nw","h","h",1,0.796089804498479,NA,NA,NA
"experimental",18,17,"hd","upper","plapping","nw","nw","h","h",1,1.06686440762132,NA,NA,NA
"experimental",18,18,"hd","upper","volume","w","w","g","g",1,0.614827726734802,NA,NA,NA
"experimental",18,19,"hd","upper","parlayid","nw","nw","h","h",1,1.3320389946457,NA,NA,NA
"experimental",18,20,"hd","upper","foster","w","w","g","g",1,0.805313029559329,NA,NA,NA
"experimental",18,21,"hd","upper","overwork","w","w","g","g",1,0.563328766496852,NA,NA,NA
"experimental",18,22,"hd","upper","maximized","w","w","g","g",1,0.779278830857947,NA,NA,NA
"experimental",18,23,"hd","upper","geadpan","nw","nw","h","h",1,0.658963402500376,NA,NA,NA
"experimental",18,24,"hd","upper","mennel","nw","nw","h","h",1,0.63147449074313,NA,NA,NA
"experimental",18,25,"hd","upper","hatred","w","w","g","g",1,0.756760574877262,NA,NA,NA
"experimental",18,26,"hd","upper","pester","w","w","g","g",1,1.08492880500853,NA,NA,NA
"experimental",18,27,"hd","upper","itself","w","w","g","g",1,0.911614678101614,NA,NA,NA
"experimental",18,28,"hd","upper","caterpillar","target","target","q","q",1,1.40955262072384,1,NA,NA
"experimental",18,29,"hd","upper","angry","aftertar1","w","g","g",1,1.56663613626733,NA,NA,NA
"experimental",18,30,"hd","upper","sengry","aftertar2","nw","h","h",1,0.742649130057544,NA,NA,NA
"experimental",19,1,"ld","lower","gounts","nw","nw","h","h",1,0.687594167888165,NA,NA,NA
"experimental",19,2,"ld","lower","otoist","nw","nw","h","h",1,0.658276436151937,NA,NA,NA
"experimental",19,3,"ld","lower","elbalm","nw","nw","h","h",1,0.893338728230447,NA,NA,NA
"experimental",19,4,"ld","lower","dumult","nw","nw","h","h",1,0.712053144816309,NA,NA,NA
"experimental",19,5,"ld","lower","runabouk","nw","nw","h","h",1,0.738108862889931,NA,NA,NA
"experimental",19,6,"ld","lower","lofty","w","w","g","g",1,1.13082079682499,NA,NA,NA
"experimental",19,7,"ld","lower","buaint","nw","nw","h","h",1,0.62020725151524,NA,NA,NA
"experimental",19,8,"ld","lower","student","w","w","g","g",1,0.545576566364616,NA,NA,NA
"experimental",19,9,"ld","lower","labitable","nw","nw","h","h",1,1.10629626829177,NA,NA,NA
"experimental",19,10,"ld","lower","helpful","w","w","g","g",1,0.796347044408321,NA,NA,NA
"experimental",19,11,"ld","lower","lizard","target","target","q","g",0,0.570197766413912,NA,NA,NA
"experimental",19,12,"ld","lower","gigoho","aftertar1","nw","h","h",1,1.68925050133839,NA,NA,NA
"experimental",19,13,"ld","lower","hindsight","aftertar2","w","g","g",1,1.38793255249038,NA,NA,NA
"experimental",19,14,"ld","lower","metebing","aftertar3","nw","h","h",1,0.842675052816048,NA,NA,NA
"experimental",19,15,"ld","lower","puyer","nw","nw","h","h",1,0.831308824243024,NA,NA,NA
"experimental",19,16,"ld","lower","gumdrep","nw","nw","h","h",1,1.14063530927524,NA,NA,NA
"experimental",19,17,"ld","lower","icepick","nw","w","g","g",1,1.20527369854972,NA,NA,NA
"experimental",19,18,"ld","lower","skiing","w","w","g","g",1,0.874414216028526,NA,NA,NA
"experimental",19,19,"ld","lower","bumbo","w","nw","h","h",1,0.965776749886572,NA,NA,NA
"experimental",19,20,"ld","lower","decency","nw","w","g","g",1,0.909844457404688,NA,NA,NA
"experimental",19,21,"ld","lower","outset","w","w","g","g",1,1.05588321154937,NA,NA,NA
"experimental",19,22,"ld","lower","oppose","w","w","g","g",1,0.635990259004757,NA,NA,NA
"experimental",19,23,"ld","lower","intersect","w","w","g","g",1,0.864685781300068,NA,NA,NA
"experimental",19,24,"ld","lower","fetching","w","w","g","g",1,0.812779276166111,NA,NA,NA
"experimental",19,25,"ld","lower","ready","w","w","g","g",1,0.594802744453773,NA,NA,NA
"experimental",19,26,"ld","lower","frose","w","nw","h","h",1,2.26457593287341,NA,NA,NA
"experimental",19,27,"ld","lower","moyeur","nw","nw","h","h",1,0.732693913625553,NA,NA,NA
"experimental",19,28,"ld","lower","confined","nw","w","g","g",1,0.781987629598007,NA,NA,NA
"experimental",19,29,"ld","lower","cassette","w","w","g","g",1,0.957345770904794,NA,NA,NA
"experimental",19,30,"ld","lower","aqueduct","w","w","g","g",1,2.61348292836919,NA,NA,NA
"experimental",20,1,"ld","lower","create","w","w","g","g",1,0.795337287010625,NA,NA,NA
"experimental",20,2,"ld","lower","earterner","nw","nw","h","h",1,1.44200192531571,NA,NA,NA
"experimental",20,3,"ld","lower","lifetime","w","w","g","g",1,0.6307001223322,NA,NA,NA
"experimental",20,4,"ld","lower","chiffol","nw","nw","h","h",1,0.58806021232158,NA,NA,NA
"experimental",20,5,"ld","lower","managed","w","w","g","g",1,1.05875986185856,NA,NA,NA
"experimental",20,6,"ld","lower","menarthe","nw","nw","h","h",1,0.806839915225282,NA,NA,NA
"experimental",20,7,"ld","lower","prohibit","w","w","g","g",1,0.707634379388765,NA,NA,NA
"experimental",20,8,"ld","lower","smallash","nw","nw","h","h",1,0.694585663033649,NA,NA,NA
"experimental",20,9,"ld","lower","become","w","w","g","g",1,0.553337794728577,NA,NA,NA
"experimental",20,10,"ld","lower","sweeping","w","w","g","g",1,0.649327997816727,NA,NA,NA
"experimental",20,11,"ld","lower","lancos","nw","nw","h","h",1,0.60603555245325,NA,NA,NA
"experimental",20,12,"ld","lower","forbid","w","w","g","g",1,0.780129344668239,NA,NA,NA
"experimental",20,13,"ld","lower","traze","nw","nw","h","h",1,0.643504510633647,NA,NA,NA
"experimental",20,14,"ld","lower","elpired","nw","nw","h","h",1,0.704162468668073,NA,NA,NA
"experimental",20,15,"ld","lower","quittint","nw","nw","h","h",1,0.538402983685955,NA,NA,NA
"experimental",20,16,"ld","lower","rocket","w","w","g","g",1,0.586993511067703,NA,NA,NA
"experimental",20,17,"ld","lower","causality","w","w","g","g",1,0.792646365705878,NA,NA,NA
"experimental",20,18,"ld","lower","usage","w","w","g","g",1,0.599424454383552,NA,NA,NA
"experimental",20,19,"ld","lower","eaglot","nw","nw","h","h",1,0.734047982143238,NA,NA,NA
"experimental",20,20,"ld","lower","plymie","nw","nw","h","h",1,0.598706698743626,NA,NA,NA
"experimental",20,21,"ld","lower","violate","w","w","g","g",1,0.725449482677504,NA,NA,NA
"experimental",20,22,"ld","lower","blerapies","nw","nw","h","h",1,0.6948180727195,NA,NA,NA
"experimental",20,23,"ld","lower","brouhuha","nw","nw","h","h",1,0.649611392058432,NA,NA,NA
"experimental",20,24,"ld","lower","ludictous","nw","nw","h","h",1,0.582265859236941,NA,NA,NA
"experimental",20,25,"ld","lower","arrival","w","w","g","g",1,0.581612661946565,NA,NA,NA
"experimental",20,26,"ld","lower","solidity","w","w","g","g",1,1.17207386298105,NA,NA,NA
"experimental",20,27,"ld","lower","stooping","w","w","g","g",1,0.987297166604549,NA,NA,NA
"experimental",20,28,"ld","lower","disuse","w","w","g","h",0,1.71410742192529,NA,NA,NA
"experimental",20,29,"ld","lower","trewl","nw","nw","h","h",1,0.844158899737522,NA,NA,NA
"experimental",20,30,"ld","lower","sorping","nw","nw","h","h",1,0.696757469326258,NA,NA,NA
"experimental",21,1,"hd","upper","leather","w","w","g","g",1,1.13937460212037,NA,NA,NA
"experimental",21,2,"hd","upper","digest","w","w","g","g",1,0.812045960687101,NA,NA,NA
"experimental",21,3,"hd","upper","argue","w","w","g","g",1,0.810216478304937,NA,NA,NA
"experimental",21,4,"hd","upper","unrealon","nw","nw","h","h",1,0.672261412953958,NA,NA,NA
"experimental",21,5,"hd","upper","exemplify","w","w","g","g",1,0.579606058541685,NA,NA,NA
"experimental",21,6,"hd","upper","gelented","nw","nw","h","h",1,0.578936307691038,NA,NA,NA
"experimental",21,7,"hd","upper","located","w","w","g","g",1,0.666457458864897,NA,NA,NA
"experimental",21,8,"hd","upper","draze","nw","nw","h","h",1,0.662435312988237,NA,NA,NA
"experimental",21,9,"hd","upper","naxis","nw","nw","h","h",1,1.40145800681785,NA,NA,NA
"experimental",21,10,"hd","upper","egect","nw","nw","h","h",1,1.05558558134362,NA,NA,NA
"experimental",21,11,"hd","upper","inside","w","w","g","g",1,0.571549848420545,NA,NA,NA
"experimental",21,12,"hd","upper","inforl","nw","nw","h","g",0,0.570924460887909,NA,NA,NA
"experimental",21,13,"hd","upper","hinsome","nw","nw","h","h",1,0.578294035745785,NA,NA,NA
"experimental",21,14,"hd","upper","neally","nw","nw","h","h",1,0.60167472390458,NA,NA,NA
"experimental",21,15,"hd","upper","obviously","w","w","g","g",1,0.663730451371521,NA,NA,NA
"experimental",21,16,"hd","upper","audience","w","w","g","g",1,0.579676575958729,NA,NA,NA
"experimental",21,17,"hd","upper","abraid","nw","nw","h","h",1,0.68359585874714,NA,NA,NA
"experimental",21,18,"hd","upper","tritical","nw","nw","h","h",1,0.677439317340031,NA,NA,NA
"experimental",21,19,"hd","upper","elephant","target","target","q","q",1,0.776816015597433,1,NA,NA
"experimental",21,20,"hd","upper","rander","aftertar1","nw","h","h",1,0.624499548925087,NA,NA,NA
"experimental",21,21,"hd","upper","mestowal","aftertar2","nw","h","h",1,0.541526610730216,NA,NA,NA
"experimental",21,22,"hd","upper","unwose","aftertar3","nw","h","h",1,0.830182199599221,NA,NA,NA
"experimental",21,23,"hd","upper","lentils","nw","w","g","g",1,0.731547093950212,NA,NA,NA
"experimental",21,24,"hd","upper","encrusted","w","w","g","g",1,0.885028257966042,NA,NA,NA
"experimental",21,25,"hd","upper","graiking","w","nw","h","h",1,0.688137450488284,NA,NA,NA
"experimental",21,26,"hd","upper","efficient","nw","w","g","g",1,0.563016900559887,NA,NA,NA
"experimental",21,27,"hd","upper","spaceship","w","w","g","g",1,0.650049726013094,NA,NA,NA
"experimental",21,28,"hd","upper","mystery","w","w","g","g",1,0.598840450402349,NA,NA,NA
"experimental",21,29,"hd","upper","gonesty","w","nw","h","h",1,0.63755256915465,NA,NA,NA
"experimental",21,30,"hd","upper","serving","nw","w","g","g",1,0.634211430326104,NA,NA,NA
"experimental",22,1,"hd","upper","fomrade","nw","nw","h","h",1,0.679815724026412,NA,NA,NA
"experimental",22,2,"hd","upper","greakable","nw","nw","h","h",1,0.602182913338766,NA,NA,NA
"experimental",22,3,"hd","upper","brother","w","w","g","g",1,0.600221997359768,NA,NA,NA
"experimental",22,4,"hd","upper","meteoroid","w","w","g","g",1,2.07099050888792,NA,NA,NA
"experimental",22,5,"hd","upper","fivalve","nw","nw","h","h",1,0.754370925482363,NA,NA,NA
"experimental",22,6,"hd","upper","ucility","nw","nw","h","h",1,0.87440560827963,NA,NA,NA
"experimental",22,7,"hd","upper","ofsters","nw","nw","h","h",1,0.829767371527851,NA,NA,NA
"experimental",22,8,"hd","upper","undue","w","w","g","g",1,1.05110424407758,NA,NA,NA
"experimental",22,9,"hd","upper","glating","nw","nw","h","h",1,0.727155476110056,NA,NA,NA
"experimental",22,10,"hd","upper","coupling","w","w","g","g",1,0.51947118784301,NA,NA,NA
"experimental",22,11,"hd","upper","vibrate","w","w","g","g",1,0.57700452557765,NA,NA,NA
"experimental",22,12,"hd","upper","glapula","nw","nw","h","h",1,0.880261540180072,NA,NA,NA
"experimental",22,13,"hd","upper","obtuse","w","w","g","g",1,0.915675889933482,NA,NA,NA
"experimental",22,14,"hd","upper","committed","w","w","g","g",1,0.725017769727856,NA,NA,NA
"experimental",22,15,"hd","upper","oalis","nw","nw","h","h",1,0.589932402130216,NA,NA,NA
"experimental",22,16,"hd","upper","theles","nw","nw","h","h",1,0.549722531577572,NA,NA,NA
"experimental",22,17,"hd","upper","rearrange","w","w","g","g",1,0.646539742592722,NA,NA,NA
"experimental",22,18,"hd","upper","suspect","w","w","g","g",1,0.483250687364489,NA,NA,NA
"experimental",22,19,"hd","upper","fictional","w","w","g","g",1,0.525597602128983,NA,NA,NA
"experimental",22,20,"hd","upper","edasion","nw","nw","h","h",1,0.61499160551466,NA,NA,NA
"experimental",22,21,"hd","upper","reborn","w","w","g","g",1,0.661026287591085,NA,NA,NA
"experimental",22,22,"hd","upper","otiates","nw","nw","h","h",1,0.697045167675242,NA,NA,NA
"experimental",22,23,"hd","upper","abstain","w","w","g","g",1,0.563739622011781,NA,NA,NA
"experimental",22,24,"hd","upper","gackpedal","nw","nw","h","h",1,0.868053736863658,NA,NA,NA
"experimental",22,25,"hd","upper","surfaced","w","w","g","g",1,0.679166499525309,NA,NA,NA
"experimental",22,26,"hd","upper","mining","w","w","g","g",1,0.930580242769793,NA,NA,NA
"experimental",22,27,"hd","upper","attrove","nw","nw","h","h",1,0.747946550138295,NA,NA,NA
"experimental",22,28,"hd","upper","chicken","target","target","q","g",0,0.587692395783961,NA,NA,NA
"experimental",22,29,"hd","upper","sullen","aftertar1","w","g","g",1,0.850562087027356,NA,NA,NA
"experimental",22,30,"hd","upper","acroad","aftertar2","nw","h","h",1,0.735409333836287,NA,NA,NA
"experimental",23,1,"hd","upper","absent","w","w","g","g",1,0.631233473075554,NA,NA,NA
"experimental",23,2,"hd","upper","moozy","nw","nw","h","h",1,0.844960084417835,NA,NA,NA
"experimental",23,3,"hd","upper","kilotin","nw","nw","h","h",1,0.552231696201488,NA,NA,NA
"experimental",23,4,"hd","upper","withep","nw","nw","h","h",1,0.496317943325266,NA,NA,NA
"experimental",23,5,"hd","upper","protest","w","w","g","g",1,0.522939788177609,NA,NA,NA
"experimental",23,6,"hd","upper","senior","w","w","g","g",1,0.500371871748939,NA,NA,NA
"experimental",23,7,"hd","upper","ifkling","nw","nw","h","h",1,0.782322670565918,NA,NA,NA
"experimental",23,8,"hd","upper","country","w","w","g","g",1,0.614396014017984,NA,NA,NA
"experimental",23,9,"hd","upper","oginous","nw","nw","h","h",1,0.748495792038739,NA,NA,NA
"experimental",23,10,"hd","upper","volder","nw","nw","h","h",1,0.684439420234412,NA,NA,NA
"experimental",23,11,"hd","upper","numbled","nw","nw","h","h",1,1.60727242263965,NA,NA,NA
"experimental",23,12,"hd","upper","flicking","w","w","g","g",1,0.88504845299758,NA,NA,NA
"experimental",23,13,"hd","upper","crocodile","target","target","q","g",0,0.663800969021395,NA,NA,NA
"experimental",23,14,"hd","upper","praiged","aftertar1","nw","h","h",1,0.979838865576312,NA,NA,NA
"experimental",23,15,"hd","upper","unspoken","aftertar2","w","g","g",1,1.28327432554215,NA,NA,NA
"experimental",23,16,"hd","upper","dentures","aftertar3","w","g","g",1,0.918756809318438,NA,NA,NA
"experimental",23,17,"hd","upper","halents","w","nw","h","h",1,0.887984695844352,NA,NA,NA
"experimental",23,18,"hd","upper","etber","nw","nw","h","h",1,0.626695854356512,NA,NA,NA
"experimental",23,19,"hd","upper","rarren","nw","nw","h","h",1,0.608047784073278,NA,NA,NA
"experimental",23,20,"hd","upper","regiment","nw","w","g","h",0,2.27629872178659,NA,NA,NA
"experimental",23,21,"hd","upper","nameplate","w","w","g","h",0,0.672552752774209,NA,NA,NA
"experimental",23,22,"hd","upper","ghists","w","nw","h","h",1,0.619877838995308,NA,NA,NA
"experimental",23,23,"hd","upper","batire","nw","nw","h","h",1,0.953302767593414,NA,NA,NA
"experimental",23,24,"hd","upper","medium","nw","w","g","g",1,0.63334303884767,NA,NA,NA
"experimental",23,25,"hd","upper","module","w","w","g","g",1,0.622625041753054,NA,NA,NA
"experimental",23,26,"hd","upper","stranded","w","w","g","g",1,0.588104906491935,NA,NA,NA
"experimental",23,27,"hd","upper","omners","w","nw","h","h",1,0.633892611833289,NA,NA,NA
"experimental",23,28,"hd","upper","cavern","nw","w","g","h",0,2.00654943613335,NA,NA,NA
"experimental",23,29,"hd","upper","embrace","w","w","g","g",1,0.548478046664968,NA,NA,NA
"experimental",23,30,"hd","upper","vaporize","w","w","g","g",1,0.651422665221617,NA,NA,NA
"experimental",24,1,"ld","lower","haurded","nw","nw","h","h",1,0.977514767786488,NA,NA,NA
"experimental",24,2,"ld","lower","marvel","w","w","g","g",1,0.775874789105728,NA,NA,NA
"experimental",24,3,"ld","lower","brighten","w","w","g","g",1,0.575242912629619,NA,NA,NA
"experimental",24,4,"ld","lower","horks","nw","nw","h","h",1,1.24666846194305,NA,NA,NA
"experimental",24,5,"ld","lower","brimitar","nw","nw","h","h",1,0.595382113475353,NA,NA,NA
"experimental",24,6,"ld","lower","summon","w","w","g","g",1,0.858070048270747,NA,NA,NA
"experimental",24,7,"ld","lower","usually","w","w","g","g",1,0.590103233233094,NA,NA,NA
"experimental",24,8,"ld","lower","laser","w","w","g","g",1,0.66081639030017,NA,NA,NA
"experimental",24,9,"ld","lower","priant","nw","nw","h","h",1,0.720867831492797,NA,NA,NA
"experimental",24,10,"ld","lower","tasher","nw","nw","h","h",1,0.71329365670681,NA,NA,NA
"experimental",24,11,"ld","lower","submit","w","w","g","g",1,0.54724846011959,NA,NA,NA
"experimental",24,12,"ld","lower","clume","nw","nw","h","h",1,0.636035946430638,NA,NA,NA
"experimental",24,13,"ld","lower","whirling","w","w","g","g",1,0.752782461000606,NA,NA,NA
"experimental",24,14,"ld","lower","reloant","nw","nw","h","h",1,0.568681474775076,NA,NA,NA
"experimental",24,15,"ld","lower","lavilion","nw","nw","h","h",1,0.776195594109595,NA,NA,NA
"experimental",24,16,"ld","lower","calming","w","w","g","g",1,0.56747042783536,NA,NA,NA
"experimental",24,17,"ld","lower","earmaff","nw","nw","h","h",1,1.07886132085696,NA,NA,NA
"experimental",24,18,"ld","lower","whirlpool","w","w","g","g",1,0.85818857094273,NA,NA,NA
"experimental",24,19,"ld","lower","clypaper","nw","nw","h","h",1,0.789276093011722,NA,NA,NA
"experimental",24,20,"ld","lower","daining","nw","nw","h","h",1,1.16416795784608,NA,NA,NA
"experimental",24,21,"ld","lower","sonkers","nw","nw","h","h",1,0.69955631881021,NA,NA,NA
"experimental",24,22,"ld","lower","etcess","nw","nw","h","h",1,0.630682907067239,NA,NA,NA
"experimental",24,23,"ld","lower","seeming","w","w","g","g",1,0.628063165582716,NA,NA,NA
"experimental",24,24,"ld","lower","clattest","nw","nw","h","h",1,0.792540423804894,NA,NA,NA
"experimental",24,25,"ld","lower","harmful","w","w","g","g",1,1.09617949090898,NA,NA,NA
"experimental",24,26,"ld","lower","slears","nw","nw","h","h",1,0.746962615754455,NA,NA,NA
"experimental",24,27,"ld","lower","bamboo","w","w","g","g",1,0.779682733817026,NA,NA,NA
"experimental",24,28,"ld","lower","extruded","w","w","g","g",1,2.49812524416484,NA,NA,NA
"experimental",24,29,"ld","lower","orange","w","w","g","g",1,1.10099917952903,NA,NA,NA
"experimental",24,30,"ld","lower","attended","w","w","g","g",1,0.5588633203879,NA,NA,NA
"experimental",25,1,"ld","lower","mebase","nw","nw","h","h",1,1.23875990812667,NA,NA,NA
"experimental",25,2,"ld","lower","except","w","w","g","g",1,0.555481129325926,NA,NA,NA
"experimental",25,3,"ld","lower","rualify","nw","nw","h","h",1,0.627468567341566,NA,NA,NA
"experimental",25,4,"ld","lower","glassware","w","w","g","g",1,0.768841579323635,NA,NA,NA
"experimental",25,5,"ld","lower","rangel","nw","nw","h","h",1,0.688208299223334,NA,NA,NA
"experimental",25,6,"ld","lower","rejoiced","w","w","g","g",1,0.714835109654814,NA,NA,NA
"experimental",25,7,"ld","lower","mubby","nw","nw","h","h",1,0.812916669528931,NA,NA,NA
"experimental",25,8,"ld","lower","ergonomic","w","w","g","h",0,0.922964022029191,NA,NA,NA
"experimental",25,9,"ld","lower","downtrund","nw","nw","h","h",1,0.732358872890472,NA,NA,NA
"experimental",25,10,"ld","lower","forgery","w","w","g","g",1,0.788685136474669,NA,NA,NA
"experimental",25,11,"ld","lower","newstrint","nw","nw","h","h",1,1.03553212690167,NA,NA,NA
"experimental",25,12,"ld","lower","staircase","w","w","g","g",1,0.51267634704709,NA,NA,NA
"experimental",25,13,"ld","lower","fuintets","nw","nw","h","h",1,0.650829722406343,NA,NA,NA
"experimental",25,14,"ld","lower","scatter","w","w","g","g",1,0.687532589305192,NA,NA,NA
"experimental",25,15,"ld","lower","vopings","nw","nw","h","h",1,0.73025460424833,NA,NA,NA
"experimental",25,16,"ld","lower","germeated","nw","nw","h","h",1,1.3798157570418,NA,NA,NA
"experimental",25,17,"ld","lower","nimp","nw","nw","h","h",1,0.73109485488385,NA,NA,NA
"experimental",25,18,"ld","lower","tinker","w","w","g","g",1,1.82748233969323,NA,NA,NA
"experimental",25,19,"ld","lower","brank","nw","nw","h","h",1,1.25690243765712,NA,NA,NA
"experimental",25,20,"ld","lower","bickering","w","w","g","g",1,0.741176870418712,NA,NA,NA
"experimental",25,21,"ld","lower","armada","w","w","g","h",0,0.78968065790832,NA,NA,NA
"experimental",25,22,"ld","lower","baults","nw","nw","h","h",1,0.724348349962384,NA,NA,NA
"experimental",25,23,"ld","lower","plartly","nw","nw","h","h",1,0.717730961740017,NA,NA,NA
"experimental",25,24,"ld","lower","snorls","nw","nw","h","h",1,1.17512134439312,NA,NA,NA
"experimental",25,25,"ld","lower","frequency","w","w","g","g",1,0.574476490030065,NA,NA,NA
"experimental",25,26,"ld","lower","cutout","w","w","g","g",1,1.20492044906132,NA,NA,NA
"experimental",25,27,"ld","lower","populace","w","w","g","g",1,1.08302582614124,NA,NA,NA
"experimental",25,28,"ld","lower","recount","w","w","g","g",1,0.574321219231933,NA,NA,NA
"experimental",25,29,"ld","lower","yearnungs","nw","nw","h","h",1,0.933361545670778,NA,NA,NA
"experimental",25,30,"ld","lower","enunciate","w","w","g","h",0,0.727126342011616,NA,NA,NA
"experimental",26,1,"hd","upper","brongs","nw","nw","h","h",1,0.968001527246088,NA,NA,NA
"experimental",26,2,"hd","upper","turning","w","w","g","g",1,0.824289850424975,NA,NA,NA
"experimental",26,3,"hd","upper","visible","w","w","g","g",1,0.57364352280274,NA,NA,NA
"experimental",26,4,"hd","upper","lanthers","nw","nw","h","h",1,1.06103926547803,NA,NA,NA
"experimental",26,5,"hd","upper","mosary","nw","nw","h","h",1,1.017218435416,NA,NA,NA
"experimental",26,6,"hd","upper","currowing","nw","nw","h","h",1,0.894547457806766,NA,NA,NA
"experimental",26,7,"hd","upper","goblet","w","w","g","g",1,0.769254090031609,NA,NA,NA
"experimental",26,8,"hd","upper","brimitive","nw","nw","h","h",1,0.983628270449117,NA,NA,NA
"experimental",26,9,"hd","upper","stuggard","nw","nw","h","h",1,0.902483821380884,NA,NA,NA
"experimental",26,10,"hd","upper","prison","w","w","g","g",1,0.66504876432009,NA,NA,NA
"experimental",26,11,"hd","upper","tiery","nw","nw","h","h",1,0.781116258585826,NA,NA,NA
"experimental",26,12,"hd","upper","preserve","w","w","g","g",1,0.580459220800549,NA,NA,NA
"experimental",26,13,"hd","upper","detrabe","nw","nw","h","h",1,0.891848590923473,NA,NA,NA
"experimental",26,14,"hd","upper","kiner","nw","nw","h","h",1,1.21460054791532,NA,NA,NA
"experimental",26,15,"hd","upper","relaying","w","w","g","g",1,0.996598854893818,NA,NA,NA
"experimental",26,16,"hd","upper","extend","w","w","g","g",1,0.459333999780938,NA,NA,NA
"experimental",26,17,"hd","upper","tunneg","nw","nw","h","h",1,0.622550882399082,NA,NA,NA
"experimental",26,18,"hd","upper","describe","w","w","g","g",1,0.611769982380792,NA,NA,NA
"experimental",26,19,"hd","upper","footstep","w","w","g","g",1,0.929798259865493,NA,NA,NA
"experimental",26,20,"hd","upper","failure","w","w","g","g",1,0.667324194917455,NA,NA,NA
"experimental",26,21,"hd","upper","chight","nw","nw","h","h",1,0.710516326595098,NA,NA,NA
"experimental",26,22,"hd","upper","glattery","nw","nw","h","h",1,1.10454657371156,NA,NA,NA
"experimental",26,23,"hd","upper","actual","w","w","g","g",1,0.490534515818581,NA,NA,NA
"experimental",26,24,"hd","upper","govern","w","w","g","g",1,0.733232230413705,NA,NA,NA
"experimental",26,25,"hd","upper","slowning","nw","nw","h","h",1,0.902440782170743,NA,NA,NA
"experimental",26,26,"hd","upper","engineer","w","w","g","g",1,0.599562509916723,NA,NA,NA
"experimental",26,27,"hd","upper","pastnoss","nw","nw","h","h",1,0.686318231513724,NA,NA,NA
"experimental",26,28,"hd","upper","earnest","w","w","g","g",1,0.793066491140053,NA,NA,NA
"experimental",26,29,"hd","upper","urgency","w","w","g","g",1,0.551737080560997,NA,NA,NA
"experimental",26,30,"hd","upper","snays","nw","nw","h","h",1,0.751942872535437,NA,NA,NA
"experimental",27,1,"ld","lower","befin","nw","nw","h","h",1,0.719041991513222,NA,NA,NA
"experimental",27,2,"ld","lower","teliever","nw","nw","h","h",1,0.712408049730584,NA,NA,NA
"experimental",27,3,"ld","lower","planar","w","w","g","h",0,0.858505734009668,NA,NA,NA
"experimental",27,4,"ld","lower","stretches","w","w","g","g",1,0.622569090919569,NA,NA,NA
"experimental",27,5,"ld","lower","fuhrek","nw","nw","h","h",1,0.707967102760449,NA,NA,NA
"experimental",27,6,"ld","lower","fuestion","nw","nw","h","h",1,0.733600378036499,NA,NA,NA
"experimental",27,7,"ld","lower","peahem","nw","nw","h","h",1,0.518672982696444,NA,NA,NA
"experimental",27,8,"ld","lower","crazy","w","w","g","g",1,0.648054047720507,NA,NA,NA
"experimental",27,9,"ld","lower","vinegar","w","w","g","g",1,0.843859945423901,NA,NA,NA
"experimental",27,10,"ld","lower","misest","nw","nw","h","h",1,0.984452629927546,NA,NA,NA
"experimental",27,11,"ld","lower","spiud","nw","nw","h","h",1,0.663180547300726,NA,NA,NA
"experimental",27,12,"ld","lower","dabble","w","w","g","g",1,0.843200788833201,NA,NA,NA
"experimental",27,13,"ld","lower","trembles","w","w","g","g",1,0.671439039986581,NA,NA,NA
"experimental",27,14,"ld","lower","colored","w","w","g","g",1,0.667274534935132,NA,NA,NA
"experimental",27,15,"ld","lower","itfidels","nw","nw","h","h",1,0.606567578855902,NA,NA,NA
"experimental",27,16,"ld","lower","fragment","w","w","g","g",1,0.56471726577729,NA,NA,NA
"experimental",27,17,"ld","lower","atble","nw","nw","h","h",1,0.643771351547912,NA,NA,NA
"experimental",27,18,"ld","lower","entertain","w","w","g","g",1,0.544197005685419,NA,NA,NA
"experimental",27,19,"ld","lower","checkout","w","w","g","g",1,1.03312923526391,NA,NA,NA
"experimental",27,20,"ld","lower","wrestle","w","w","g","g",1,0.598493159981444,NA,NA,NA
"experimental",27,21,"ld","lower","blanned","nw","nw","h","g",0,0.549589442322031,NA,NA,NA
"experimental",27,22,"ld","lower","vintnel","nw","nw","h","h",1,1.1661212593317,NA,NA,NA
"experimental",27,23,"ld","lower","coster","nw","nw","h","g",0,0.774043651530519,NA,NA,NA
"experimental",27,24,"ld","lower","stifle","w","w","g","g",1,1.14141464349814,NA,NA,NA
"experimental",27,25,"ld","lower","undertake","w","w","g","g",1,0.582145681604743,NA,NA,NA
"experimental",27,26,"ld","lower","bellicove","nw","nw","h","h",1,0.869784229202196,NA,NA,NA
"experimental",27,27,"ld","lower","miability","nw","nw","h","h",1,0.935897857882082,NA,NA,NA
"experimental",27,28,"ld","lower","blocking","w","w","g","g",1,0.67260539275594,NA,NA,NA
"experimental",27,29,"ld","lower","smolvers","nw","nw","h","h",1,0.71602596133016,NA,NA,NA
"experimental",27,30,"ld","lower","rewrite","w","w","g","g",1,0.59804456285201,NA,NA,NA
"experimental",28,1,"hd","upper","condensed","w","w","g","g",1,1.00463354540989,NA,NA,NA
"experimental",28,2,"hd","upper","repayment","w","w","g","g",1,0.59463224443607,NA,NA,NA
"experimental",28,3,"hd","upper","amidst","w","w","g","g",1,0.769292494049296,NA,NA,NA
"experimental",28,4,"hd","upper","demise","w","w","g","g",1,0.576733049936593,NA,NA,NA
"experimental",28,5,"hd","upper","facienda","nw","nw","h","h",1,0.711978323291987,NA,NA,NA
"experimental",28,6,"hd","upper","pegend","nw","nw","h","h",1,0.857997213490307,NA,NA,NA
"experimental",28,7,"hd","upper","dehydrate","w","w","g","g",1,0.813969796989113,NA,NA,NA
"experimental",28,8,"hd","upper","ecistle","nw","nw","h","h",1,0.819282446056604,NA,NA,NA
"experimental",28,9,"hd","upper","awful","w","w","g","g",1,0.681411802768707,NA,NA,NA
"experimental",28,10,"hd","upper","churnad","nw","nw","h","h",1,0.787995190592483,NA,NA,NA
"experimental",28,11,"hd","upper","terming","w","w","g","h",0,0.762500301701948,NA,NA,NA
"experimental",28,12,"hd","upper","exploit","w","w","g","g",1,0.562554067000747,NA,NA,NA
"experimental",28,13,"hd","upper","happen","w","w","g","g",1,0.474734292831272,NA,NA,NA
"experimental",28,14,"hd","upper","region","w","w","g","g",1,0.534038513433188,NA,NA,NA
"experimental",28,15,"hd","upper","hodels","nw","nw","h","h",1,0.646737721282989,NA,NA,NA
"experimental",28,16,"hd","upper","louches","nw","nw","h","h",1,0.859450933290645,NA,NA,NA
"experimental",28,17,"hd","upper","stelled","nw","nw","h","h",1,0.679493925534189,NA,NA,NA
"experimental",28,18,"hd","upper","pleamed","nw","nw","h","h",1,0.586878630332649,NA,NA,NA
"experimental",28,19,"hd","upper","breiled","nw","nw","h","h",1,0.88062803237699,NA,NA,NA
"experimental",28,20,"hd","upper","jaguar","target","target","q","g",0,0.723946764599532,1,1,NA
"experimental",28,21,"hd","upper","wimpid","aftertar1","nw","h","h",1,1.64535782975145,NA,NA,NA
"experimental",28,22,"hd","upper","funtair","aftertar2","nw","h","h",1,0.914053325541318,NA,NA,NA
"experimental",28,23,"hd","upper","cobalt","aftertar3","w","g","h",0,1.29212940274738,NA,NA,NA
"experimental",28,24,"hd","upper","preight","w","nw","h","h",1,0.630820962367579,NA,NA,NA
"experimental",28,25,"hd","upper","ciping","nw","nw","h","h",1,0.788221309892833,NA,NA,NA
"experimental",28,26,"hd","upper","maroon","nw","w","g","g",1,0.97877050889656,NA,NA,NA
"experimental",28,27,"hd","upper","nostril","w","w","g","g",1,0.59332849830389,NA,NA,NA
"experimental",28,28,"hd","upper","hangar","w","w","g","g",1,0.495900135720149,NA,NA,NA
"experimental",28,29,"hd","upper","baladroit","w","nw","h","h",1,0.514605811797082,NA,NA,NA
"experimental",28,30,"hd","upper","poyride","nw","nw","h","h",1,0.804706512950361,NA,NA,NA
"experimental",29,1,"ld","lower","martial","w","w","g","h",0,1.62670545536093,NA,NA,NA
"experimental",29,2,"ld","lower","thesis","w","w","g","g",1,0.743976050755009,NA,NA,NA
"experimental",29,3,"ld","lower","design","w","w","g","g",1,0.568757620407268,NA,NA,NA
"experimental",29,4,"ld","lower","corg","nw","nw","h","h",1,1.57614275556989,NA,NA,NA
"experimental",29,5,"ld","lower","opert","nw","nw","h","h",1,1.00753701222129,NA,NA,NA
"experimental",29,6,"ld","lower","ignore","w","w","g","g",1,0.613636874826625,NA,NA,NA
"experimental",29,7,"ld","lower","miracle","w","w","g","g",1,0.587607311084867,NA,NA,NA
"experimental",29,8,"ld","lower","portify","nw","nw","h","h",1,0.850375033449382,NA,NA,NA
"experimental",29,9,"ld","lower","fallacy","w","w","g","g",1,1.15903805824928,NA,NA,NA
"experimental",29,10,"ld","lower","slogan","w","w","g","g",1,0.654034130042419,NA,NA,NA
"experimental",29,11,"ld","lower","temelity","nw","nw","h","h",1,0.682131213834509,NA,NA,NA
"experimental",29,12,"ld","lower","drine","nw","nw","h","h",1,1.13353952765465,NA,NA,NA
"experimental",29,13,"ld","lower","doads","nw","nw","h","h",1,0.886907069245353,NA,NA,NA
"experimental",29,14,"ld","lower","surface","w","w","g","g",1,0.641601531533524,NA,NA,NA
"experimental",29,15,"ld","lower","ladybug","target","target","q","g",0,0.765948706772178,1,1,NA
"experimental",29,16,"ld","lower","vivid","aftertar1","w","g","g",1,1.11036443267949,NA,NA,NA
"experimental",29,17,"ld","lower","chone","aftertar2","nw","h","h",1,1.47245753766038,NA,NA,NA
"experimental",29,18,"ld","lower","deceit","aftertar3","w","g","h",0,1.7627290696837,NA,NA,NA
"experimental",29,19,"ld","lower","scrib","w","nw","h","h",1,0.970842753071338,NA,NA,NA
"experimental",29,20,"ld","lower","heuls","nw","nw","h","h",1,0.690095718251541,NA,NA,NA
"experimental",29,21,"ld","lower","female","nw","w","g","g",1,1.62088362360373,NA,NA,NA
"experimental",29,22,"ld","lower","ilterfere","w","nw","h","h",1,0.560426623793319,NA,NA,NA
"experimental",29,23,"ld","lower","handle","nw","w","g","g",1,0.490307071711868,NA,NA,NA
"experimental",29,24,"ld","lower","painter","w","w","g","g",1,0.572551329387352,NA,NA,NA
"experimental",29,25,"ld","lower","cills","w","nw","h","h",1,0.939439955167472,NA,NA,NA
"experimental",29,26,"ld","lower","ebuating","nw","nw","h","h",1,0.948139761341736,NA,NA,NA
"experimental",29,27,"ld","lower","talate","nw","nw","h","h",1,0.796866490039974,NA,NA,NA
"experimental",29,28,"ld","lower","rivet","nw","w","g","g",1,1.70760888722725,NA,NA,NA
"experimental",29,29,"ld","lower","butled","w","nw","h","h",1,0.749704190297052,NA,NA,NA
"experimental",29,30,"ld","lower","bypassed","nw","w","g","g",1,2.11836369917728,NA,NA,NA
"experimental",30,1,"ld","lower","vergas","nw","nw","h","h",1,0.814918307121843,NA,NA,NA
"experimental",30,2,"ld","lower","hustle","w","w","g","g",1,0.748995042638853,NA,NA,NA
"experimental",30,3,"ld","lower","decant","w","w","g","h",0,2.08572270628065,NA,NA,NA
"experimental",30,4,"ld","lower","digar","nw","nw","h","h",1,0.840471794828773,NA,NA,NA
"experimental",30,5,"ld","lower","lindo","nw","nw","h","h",1,0.925054385792464,NA,NA,NA
"experimental",30,6,"ld","lower","turntable","w","w","g","h",0,0.958463456481695,NA,NA,NA
"experimental",30,7,"ld","lower","ulcer","w","w","g","g",1,0.797487573930994,NA,NA,NA
"experimental",30,8,"ld","lower","geborn","nw","nw","h","h",1,0.643867692444474,NA,NA,NA
"experimental",30,9,"ld","lower","listless","w","w","g","g",1,2.20891610928811,NA,NA,NA
"experimental",30,10,"ld","lower","dazid","nw","nw","h","h",1,0.830355348298326,NA,NA,NA
"experimental",30,11,"ld","lower","flougy","nw","nw","h","h",1,0.836365226656199,NA,NA,NA
"experimental",30,12,"ld","lower","collision","w","w","g","g",1,0.689158133463934,NA,NA,NA
"experimental",30,13,"ld","lower","planofoad","nw","nw","h","h",1,0.795777607243508,NA,NA,NA
"experimental",30,14,"ld","lower","sporidic","nw","nw","h","h",1,0.809690742287785,NA,NA,NA
"experimental",30,15,"ld","lower","permute","w","w","g","h",0,1.11164897680283,NA,NA,NA
"experimental",30,16,"ld","lower","grieving","w","w","g","g",1,0.713696897495538,NA,NA,NA
"experimental",30,17,"ld","lower","afternoon","w","w","g","g",1,0.579769606003538,NA,NA,NA
"experimental",30,18,"ld","lower","pracking","nw","nw","h","h",1,1.03511133952998,NA,NA,NA
"experimental",30,19,"ld","lower","probable","w","w","g","g",1,0.839910965645686,NA,NA,NA
"experimental",30,20,"ld","lower","shillac","nw","nw","h","h",1,0.628522688057274,NA,NA,NA
"experimental",30,21,"ld","lower","forecast","w","w","g","g",1,0.730008620768785,NA,NA,NA
"experimental",30,22,"ld","lower","snife","nw","nw","h","h",1,0.851237796712667,NA,NA,NA
"experimental",30,23,"ld","lower","ahead","w","w","g","g",1,0.814352511661127,NA,NA,NA
"experimental",30,24,"ld","lower","retain","w","w","g","g",1,0.548391968943179,NA,NA,NA
"experimental",30,25,"ld","lower","outrank","w","w","g","g",1,0.741070266580209,NA,NA,NA
"experimental",30,26,"ld","lower","provide","w","w","g","g",1,0.517747978679836,NA,NA,NA
"experimental",30,27,"ld","lower","guffy","nw","nw","h","h",1,0.623145480640233,NA,NA,NA
"experimental",30,28,"ld","lower","roodies","nw","nw","h","h",1,0.788563965354115,NA,NA,NA
"experimental",30,29,"ld","lower","lonnote","nw","nw","h","h",1,0.64326912141405,NA,NA,NA
"experimental",30,30,"ld","lower","bailmenz","nw","nw","h","h",1,0.895911458181217,NA,NA,NA
"experimental",31,1,"hd","upper","slending","nw","nw","h","h",1,1.12178892921656,NA,NA,NA
"experimental",31,2,"hd","upper","arbitrary","w","w","g","g",1,0.787661804817617,NA,NA,NA
"experimental",31,3,"hd","upper","venturous","w","w","g","h",0,1.92243629973382,NA,NA,NA
"experimental",31,4,"hd","upper","vented","w","w","g","g",1,0.979883228428662,NA,NA,NA
"experimental",31,5,"hd","upper","chonemic","nw","nw","h","h",1,0.722325524315238,NA,NA,NA
"experimental",31,6,"hd","upper","blipover","nw","nw","h","h",1,0.627587089780718,NA,NA,NA
"experimental",31,7,"hd","upper","observer","w","w","g","g",1,0.64099468360655,NA,NA,NA
"experimental",31,8,"hd","upper","havel","nw","nw","h","h",1,0.845725513761863,NA,NA,NA
"experimental",31,9,"hd","upper","slimped","nw","nw","h","h",1,1.01842418522574,NA,NA,NA
"experimental",31,10,"hd","upper","handbook","w","w","g","g",1,1.31181073654443,NA,NA,NA
"experimental",31,11,"hd","upper","partner","w","w","g","g",1,0.521869776071981,NA,NA,NA
"experimental",31,12,"hd","upper","massacre","w","w","g","g",1,0.667215935885906,NA,NA,NA
"experimental",31,13,"hd","upper","pillage","w","w","g","h",0,0.878589315339923,NA,NA,NA
"experimental",31,14,"hd","upper","pallir","nw","nw","h","g",0,1.41693709371611,NA,NA,NA
"experimental",31,15,"hd","upper","minimum","w","w","g","g",1,0.807071001036093,NA,NA,NA
"experimental",31,16,"hd","upper","trises","nw","nw","h","h",1,0.597089100396261,NA,NA,NA
"experimental",31,17,"hd","upper","slutches","nw","nw","h","h",1,0.603769060457125,NA,NA,NA
"experimental",31,18,"hd","upper","impirt","nw","nw","h","h",1,1.07380491844378,NA,NA,NA
"experimental",31,19,"hd","upper","unmarked","w","w","g","g",1,0.620980626670644,NA,NA,NA
"experimental",31,20,"hd","upper","infusion","w","w","g","g",1,0.56252824398689,NA,NA,NA
"experimental",31,21,"hd","upper","shazer","nw","nw","h","h",1,0.682584114838392,NA,NA,NA
"experimental",31,22,"hd","upper","finish","w","w","g","g",1,0.844802496023476,NA,NA,NA
"experimental",31,23,"hd","upper","sprea","nw","nw","h","h",1,0.721691860118881,NA,NA,NA
"experimental",31,24,"hd","upper","grenavier","nw","nw","h","h",1,0.786473270738497,NA,NA,NA
"experimental",31,25,"hd","upper","maiden","w","w","g","g",1,0.753708458505571,NA,NA,NA
"experimental",31,26,"hd","upper","cervical","w","w","g","g",1,0.945772293722257,NA,NA,NA
"experimental",31,27,"hd","upper","ronic","nw","nw","h","h",1,0.874494003364816,NA,NA,NA
"experimental",31,28,"hd","upper","kangaroo","target","target","q","q",1,0.82994846557267,1,NA,NA
"experimental",31,29,"hd","upper","kraums","aftertar1","nw","h","h",1,0.779318558983505,NA,NA,NA
"experimental",31,30,"hd","upper","budget","aftertar2","w","g","g",1,0.81870274594985,NA,NA,NA
"experimental",32,1,"hd","upper","renown","w","w","g","g",1,0.791225421708077,NA,NA,NA
"experimental",32,2,"hd","upper","frigs","nw","nw","h","h",1,0.70990285766311,NA,NA,NA
"experimental",32,3,"hd","upper","throttle","w","w","g","g",1,0.791988533455878,NA,NA,NA
"experimental",32,4,"hd","upper","miurnal","nw","nw","h","h",1,0.774727307260036,NA,NA,NA
"experimental",32,5,"hd","upper","rationale","w","w","g","g",1,0.813120276434347,NA,NA,NA
"experimental",32,6,"hd","upper","tapling","nw","nw","h","h",1,0.987125673564151,NA,NA,NA
"experimental",32,7,"hd","upper","bettled","nw","nw","h","h",1,1.25791980954818,NA,NA,NA
"experimental",32,8,"hd","upper","dealer","w","w","g","g",1,0.797877903096378,NA,NA,NA
"experimental",32,9,"hd","upper","fallint","nw","nw","h","h",1,0.748563329689205,NA,NA,NA
"experimental",32,10,"hd","upper","chining","nw","nw","h","h",1,1.35728028556332,NA,NA,NA
"experimental",32,11,"hd","upper","dreaded","w","w","g","g",1,0.701327201677486,NA,NA,NA
"experimental",32,12,"hd","upper","uncle","w","w","g","g",1,0.670676590176299,NA,NA,NA
"experimental",32,13,"hd","upper","purport","w","w","g","h",0,0.753080091439188,NA,NA,NA
"experimental",32,14,"hd","upper","culinary","w","w","g","g",1,0.648994281189516,NA,NA,NA
"experimental",32,15,"hd","upper","lutton","nw","nw","h","h",1,0.749777356395498,NA,NA,NA
"experimental",32,16,"hd","upper","contact","w","w","g","g",1,0.542532064486295,NA,NA,NA
"experimental",32,17,"hd","upper","dorth","nw","nw","h","h",1,0.631274856626987,NA,NA,NA
"experimental",32,18,"hd","upper","sefine","nw","nw","h","h",1,0.636258755112067,NA,NA,NA
"experimental",32,19,"hd","upper","unburnid","nw","nw","h","h",1,1.04945916682482,NA,NA,NA
"experimental",32,20,"hd","upper","trooper","w","w","g","g",1,0.654072533827275,NA,NA,NA
"experimental",32,21,"hd","upper","ilcurring","nw","nw","h","h",1,0.706136958673596,NA,NA,NA
"experimental",32,22,"hd","upper","pripend","nw","nw","h","h",1,0.699436472263187,NA,NA,NA
"experimental",32,23,"hd","upper","buttress","w","w","g","h",0,0.909894448472187,NA,NA,NA
"experimental",32,24,"hd","upper","record","w","w","g","g",1,0.631823767442256,NA,NA,NA
"experimental",32,25,"hd","upper","squirrel","target","target","q","g",0,0.573455807054415,1,1,NA
"experimental",32,26,"hd","upper","geissue","aftertar1","nw","h","h",1,0.964662374695763,NA,NA,NA
"experimental",32,27,"hd","upper","thrapping","aftertar2","nw","h","h",1,0.988747575785965,NA,NA,NA
"experimental",32,28,"hd","upper","theery","aftertar3","nw","h","h",1,1.22745128558017,NA,NA,NA
"experimental",32,29,"hd","upper","forfeit","nw","w","g","g",1,0.792876458028331,NA,NA,NA
"experimental",32,30,"hd","upper","agony","w","w","g","g",1,0.670657719252631,NA,NA,NA
"experimental",33,1,"hd","upper","stable","w","w","g","g",1,0.778709393693134,NA,NA,NA
"experimental",33,2,"hd","upper","anemic","w","w","g","g",1,1.78610015683807,NA,NA,NA
"experimental",33,3,"hd","upper","atabaster","nw","nw","h","h",1,0.85669048782438,NA,NA,NA
"experimental",33,4,"hd","upper","guitar","w","w","g","g",1,0.884865703759715,NA,NA,NA
"experimental",33,5,"hd","upper","attract","w","w","g","g",1,0.903163835173473,NA,NA,NA
"experimental",33,6,"hd","upper","asclibed","nw","nw","h","h",1,0.984592009801418,NA,NA,NA
"experimental",33,7,"hd","upper","measure","w","w","g","g",1,0.82394818821922,NA,NA,NA
"experimental",33,8,"hd","upper","melodic","w","w","g","h",0,1.46932662720792,NA,NA,NA
"experimental",33,9,"hd","upper","seasoning","w","w","g","g",1,0.656775042414665,NA,NA,NA
"experimental",33,10,"hd","upper","cherry","w","w","g","g",1,0.956829635659233,NA,NA,NA
"experimental",33,11,"hd","upper","ameld","nw","nw","h","h",1,0.604835430625826,NA,NA,NA
"experimental",33,12,"hd","upper","paterways","nw","nw","h","h",1,0.953968545654789,NA,NA,NA
"experimental",33,13,"hd","upper","seighing","nw","nw","h","h",1,2.71404716745019,NA,NA,NA
"experimental",33,14,"hd","upper","outfit","w","w","g","g",1,1.77209862670861,NA,NA,NA
"experimental",33,15,"hd","upper","scabry","nw","nw","h","h",1,1.04346915264614,NA,NA,NA
"experimental",33,16,"hd","upper","unstatle","nw","nw","h","h",1,1.88019963051192,NA,NA,NA
"experimental",33,17,"hd","upper","baseline","w","w","g","g",1,0.627532132202759,NA,NA,NA
"experimental",33,18,"hd","upper","ephically","nw","nw","h","g",0,2.86399782192893,NA,NA,NA
"experimental",33,19,"hd","upper","formation","w","w","g","g",1,0.851972436765209,NA,NA,NA
"experimental",33,20,"hd","upper","recipus","nw","nw","h","h",1,0.792298744199798,NA,NA,NA
"experimental",33,21,"hd","upper","poars","nw","nw","h","h",1,0.758759232703596,NA,NA,NA
"experimental",33,22,"hd","upper","puggers","nw","nw","h","h",1,0.990766759961844,NA,NA,NA
"experimental",33,23,"hd","upper","wrecber","nw","nw","h","h",1,0.741457285126671,NA,NA,NA
"experimental",33,24,"hd","upper","smabled","nw","nw","h","h",1,1.1821641549468,NA,NA,NA
"experimental",33,25,"hd","upper","affluent","w","w","g","g",1,1.28460687445477,NA,NA,NA
"experimental",33,26,"hd","upper","octopus","target","target","q","q",1,0.974723864113912,1,NA,NA
"experimental",33,27,"hd","upper","noils","aftertar1","nw","h","h",1,0.535371062578633,NA,NA,NA
"experimental",33,28,"hd","upper","emergence","aftertar2","w","g","g",1,0.608119956683367,NA,NA,NA
"experimental",33,29,"hd","upper","sheerio","aftertar3","nw","h","h",1,0.726200675824657,NA,NA,NA
"experimental",33,30,"hd","upper","century","nw","w","g","g",1,0.54355440242216,NA,NA,NA
"experimental",34,1,"ld","lower","realize","w","w","g","g",1,0.736113515682518,NA,NA,NA
"experimental",34,2,"ld","lower","ipiocy","nw","nw","h","h",1,0.83285987819545,NA,NA,NA
"experimental",34,3,"ld","lower","companion","w","w","g","g",1,0.630202196305618,NA,NA,NA
"experimental",34,4,"ld","lower","booster","w","w","g","g",1,0.619600404053926,NA,NA,NA
"experimental",34,5,"ld","lower","levels","w","w","g","g",1,0.512951133772731,NA,NA,NA
"experimental",34,6,"ld","lower","sponto","nw","nw","h","h",1,0.723012490663677,NA,NA,NA
"experimental",34,7,"ld","lower","chrik","nw","nw","h","h",1,0.564370306674391,NA,NA,NA
"experimental",34,8,"ld","lower","twenties","w","w","g","g",1,0.60432028863579,NA,NA,NA
"experimental",34,9,"ld","lower","cayward","nw","nw","h","h",1,1.40145668247715,NA,NA,NA
"experimental",34,10,"ld","lower","padicals","nw","nw","h","h",1,0.679366464493796,NA,NA,NA
"experimental",34,11,"ld","lower","demon","w","w","g","g",1,0.634613015921786,NA,NA,NA
"experimental",34,12,"ld","lower","suburb","w","w","g","g",1,0.766217865049839,NA,NA,NA
"experimental",34,13,"ld","lower","intercede","w","w","g","h",0,1.03864979487844,NA,NA,NA
"experimental",34,14,"ld","lower","stagger","w","w","g","g",1,0.987295511178672,NA,NA,NA
"experimental",34,15,"ld","lower","owner","w","w","g","g",1,0.68998679658398,NA,NA,NA
"experimental",34,16,"ld","lower","eggays","nw","nw","h","h",1,0.644613257609308,NA,NA,NA
"experimental",34,17,"ld","lower","nelvet","nw","nw","h","h",1,0.68939087423496,NA,NA,NA
"experimental",34,18,"ld","lower","picnic","w","w","g","g",1,0.619137239642441,NA,NA,NA
"experimental",34,19,"ld","lower","misobeyed","nw","nw","h","g",0,0.93586541316472,NA,NA,NA
"experimental",34,20,"ld","lower","beggarlan","nw","nw","h","h",1,0.840661496855319,NA,NA,NA
"experimental",34,21,"ld","lower","mineluyer","nw","nw","h","h",1,0.805281578097492,NA,NA,NA
"experimental",34,22,"ld","lower","slightly","w","w","g","g",1,0.731345473555848,NA,NA,NA
"experimental",34,23,"ld","lower","destroy","w","w","g","g",1,0.660681314533576,NA,NA,NA
"experimental",34,24,"ld","lower","digested","w","w","g","g",1,0.640731484629214,NA,NA,NA
"experimental",34,25,"ld","lower","urique","nw","nw","h","h",1,0.965449323412031,NA,NA,NA
"experimental",34,26,"ld","lower","gewer","nw","nw","h","h",1,0.900614942191169,NA,NA,NA
"experimental",34,27,"ld","lower","browting","nw","nw","h","h",1,0.83851948659867,NA,NA,NA
"experimental",34,28,"ld","lower","galashes","nw","nw","h","h",1,0.955294804181904,NA,NA,NA
"experimental",34,29,"ld","lower","elalt","nw","nw","h","h",1,0.779309289064258,NA,NA,NA
"experimental",34,30,"ld","lower","require","w","w","g","g",1,0.666961675742641,NA,NA,NA
"experimental",35,1,"ld","lower","pressing","w","w","g","g",1,0.822575249010697,NA,NA,NA
"experimental",35,2,"ld","lower","oleandur","nw","nw","h","h",1,0.763796102022752,NA,NA,NA
"experimental",35,3,"ld","lower","phraining","nw","nw","h","h",1,0.699902615975589,NA,NA,NA
"experimental",35,4,"ld","lower","pepperoni","w","w","g","g",1,0.726597295375541,NA,NA,NA
"experimental",35,5,"ld","lower","erlighten","nw","nw","h","h",1,0.871487905504182,NA,NA,NA
"experimental",35,6,"ld","lower","adok","nw","nw","h","h",1,0.58735106443055,NA,NA,NA
"experimental",35,7,"ld","lower","satisfies","w","w","g","g",1,1.12024184828624,NA,NA,NA
"experimental",35,8,"ld","lower","courier","w","w","g","h",0,0.954740596236661,NA,NA,NA
"experimental",35,9,"ld","lower","passet","nw","nw","h","h",1,0.770912078907713,NA,NA,NA
"experimental",35,10,"ld","lower","blassed","nw","nw","h","h",1,0.729257096070796,NA,NA,NA
"experimental",35,11,"ld","lower","dingly","nw","nw","h","h",1,0.922717045294121,NA,NA,NA
"experimental",35,12,"ld","lower","frowsed","nw","nw","h","h",1,0.716115018585697,NA,NA,NA
"experimental",35,13,"ld","lower","glamorous","w","w","g","g",1,0.934127968037501,NA,NA,NA
"experimental",35,14,"ld","lower","shests","nw","nw","h","h",1,1.07025090302341,NA,NA,NA
"experimental",35,15,"ld","lower","defeat","w","w","g","g",1,0.713609164580703,NA,NA,NA
"experimental",35,16,"ld","lower","larger","w","w","g","g",1,0.947252167854458,NA,NA,NA
"experimental",35,17,"ld","lower","superstar","w","w","g","g",1,0.732306563993916,NA,NA,NA
"experimental",35,18,"ld","lower","pender","nw","nw","h","h",1,0.948846591636538,NA,NA,NA
"experimental",35,19,"ld","lower","guivers","nw","nw","h","h",1,0.669364567613229,NA,NA,NA
"experimental",35,20,"ld","lower","alomalous","nw","nw","h","h",1,0.968746430473402,NA,NA,NA
"experimental",35,21,"ld","lower","bedding","w","w","g","g",1,0.616430758265778,NA,NA,NA
"experimental",35,22,"ld","lower","splum","nw","nw","h","h",1,0.806196650024503,NA,NA,NA
"experimental",35,23,"ld","lower","treason","w","w","g","g",1,1.06023609405383,NA,NA,NA
"experimental",35,24,"ld","lower","tragedy","w","w","g","g",1,1.09635098394938,NA,NA,NA
"experimental",35,25,"ld","lower","category","w","w","g","g",1,0.571015173569322,NA,NA,NA
"experimental",35,26,"ld","lower","nollow","nw","nw","h","h",1,0.72904455056414,NA,NA,NA
"experimental",35,27,"ld","lower","tracing","w","w","g","g",1,0.890689521795139,NA,NA,NA
"experimental",35,28,"ld","lower","exit","w","w","g","g",1,0.549437812995166,NA,NA,NA
"experimental",35,29,"ld","lower","hackal","nw","nw","h","h",1,0.662081070244312,NA,NA,NA
"experimental",35,30,"ld","lower","abhorrent","w","w","g","h",0,0.714117685100064,NA,NA,NA
"experimental",36,1,"hd","upper","fabstand","nw","nw","h","h",1,0.747598928399384,NA,NA,NA
"experimental",36,2,"hd","upper","issue","w","w","g","g",1,0.692129137925804,NA,NA,NA
"experimental",36,3,"hd","upper","legalosm","nw","nw","h","h",1,0.61486182664521,NA,NA,NA
"experimental",36,4,"hd","upper","anterior","w","w","g","g",1,0.908701279200614,NA,NA,NA
"experimental",36,5,"hd","upper","apop","nw","nw","h","h",1,0.598945730132982,NA,NA,NA
"experimental",36,6,"hd","upper","mogus","nw","nw","h","h",1,0.55764499027282,NA,NA,NA
"experimental",36,7,"hd","upper","disperse","w","w","g","g",1,0.661698024487123,NA,NA,NA
"experimental",36,8,"hd","upper","arrigns","nw","nw","h","h",1,0.897694590734318,NA,NA,NA
"experimental",36,9,"hd","upper","saucer","w","w","g","g",1,0.828409330220893,NA,NA,NA
"experimental",36,10,"hd","upper","ounside","nw","nw","h","h",1,0.864734779577702,NA,NA,NA
"experimental",36,11,"hd","upper","landing","w","w","g","g",1,1.15710164117627,NA,NA,NA
"experimental",36,12,"hd","upper","expected","w","w","g","g",1,0.596898736199364,NA,NA,NA
"experimental",36,13,"hd","upper","clarms","nw","nw","h","h",1,0.747531721834093,NA,NA,NA
"experimental",36,14,"hd","upper","frogmy","nw","nw","h","h",1,0.588284676661715,NA,NA,NA
"experimental",36,15,"hd","upper","reprint","w","w","g","g",1,0.675005967263132,NA,NA,NA
"experimental",36,16,"hd","upper","rational","w","w","g","g",1,0.678363659419119,NA,NA,NA
"experimental",36,17,"hd","upper","topefuls","nw","nw","h","h",1,0.71385150635615,NA,NA,NA
"experimental",36,18,"hd","upper","outlaved","nw","nw","h","h",1,0.698791551636532,NA,NA,NA
"experimental",36,19,"hd","upper","euphoric","w","w","g","g",1,0.661368280649185,NA,NA,NA
"experimental",36,20,"hd","upper","nogwhell","nw","nw","h","h",1,0.689426298253238,NA,NA,NA
"experimental",36,21,"hd","upper","frunted","nw","nw","h","h",1,0.796098081162199,NA,NA,NA
"experimental",36,22,"hd","upper","perform","w","w","g","g",1,0.570748332655057,NA,NA,NA
"experimental",36,23,"hd","upper","regards","w","w","g","g",1,0.562119043897837,NA,NA,NA
"experimental",36,24,"hd","upper","other","w","w","g","g",1,0.594301507342607,NA,NA,NA
"experimental",36,25,"hd","upper","podes","nw","nw","h","h",1,0.752995999995619,NA,NA,NA
"experimental",36,26,"hd","upper","equitable","w","w","g","g",1,0.65610032598488,NA,NA,NA
"experimental",36,27,"hd","upper","esdings","nw","nw","h","h",1,0.629130529006943,NA,NA,NA
"experimental",36,28,"hd","upper","prama","nw","nw","h","h",1,0.657573578646407,NA,NA,NA
"experimental",36,29,"hd","upper","admire","w","w","g","g",1,0.613524311920628,NA,NA,NA
"experimental",36,30,"hd","upper","triplet","w","w","g","g",1,0.875582886394113,NA,NA,NA
"experimental",37,1,"ld","lower","doxing","nw","nw","h","h",1,0.799840474501252,NA,NA,NA
"experimental",37,2,"ld","lower","contund","nw","nw","h","h",1,0.757583278929815,NA,NA,NA
"experimental",37,3,"ld","lower","unamufed","nw","nw","h","h",1,0.58959636813961,NA,NA,NA
"experimental",37,4,"ld","lower","bingu","nw","nw","h","h",1,0.491962081054226,NA,NA,NA
"experimental",37,5,"ld","lower","dounger","nw","nw","h","h",1,1.15101859671995,NA,NA,NA
"experimental",37,6,"ld","lower","noblest","w","w","g","g",1,0.774385975906625,NA,NA,NA
"experimental",37,7,"ld","lower","tining","nw","nw","h","h",1,1.03775094519369,NA,NA,NA
"experimental",37,8,"ld","lower","define","w","w","g","g",1,0.626459140796214,NA,NA,NA
