"procedure","block","trial","PMdemand","context","stim","role","word_type","correct_key","response","correct","reaction_time","pressedQ","pressedQ_blank","pressedQ_fix"
"LDTpractice",1,1,NA,"lower","umpire","","w","g","g",1,1.56728135980666,NA,NA,NA
"LDTpractice",2,1,NA,"lower","picture","","w","g","g",1,0.750684123951942,NA,NA,NA
"LDTpractice",3,1,NA,"lower","julled","","nw","h","h",1,1.37478415668011,NA,NA,NA
"LDTpractice",4,1,NA,"lower","lurshing","","nw","h","h",1,1.14963536616415,NA,NA,NA
"LDTpractice",5,1,NA,"lower","summary","","w","g","g",1,0.597002001013607,NA,NA,NA
"LDTpractice",6,1,NA,"lower","latador","","nw","h","h",1,0.715995143633336,NA,NA,NA
"LDTpractice",7,1,NA,"lower","infinity","","w","g","g",1,0.589842323679477,NA,NA,NA
"LDTpractice",8,1,NA,"lower","grimace","","w","g","h",0,0.468488665297627,NA,NA,NA
"LDTpractice",9,1,NA,"lower","trotch","","nw","h","h",1,0.975898796226829,NA,NA,NA
"LDTpractice",10,1,NA,"lower","unscrew","","w","g","g",1,1.03751023067161,NA,NA,NA
"LDTpractice",11,1,NA,"lower","treeps","","nw","h","h",1,0.939616717398167,NA,NA,NA
"LDTpractice",12,1,NA,"lower","grutch","","nw","h","h",1,1.33217304944992,NA,NA,NA
"LDTpractice",13,1,NA,"lower","busted","","w","g","g",1,0.645297877956182,NA,NA,NA
"LDTpractice",14,1,NA,"lower","alolition","","nw","h","h",1,0.730062556453049,NA,NA,NA
"LDTpractice",1,2,NA,"upper","reputable","","w","g","h",0,0.987307070288807,NA,NA,NA
"LDTpractice",2,2,NA,"upper","sponsor","","w","g","g",1,0.489963063970208,NA,NA,NA
"LDTpractice",3,2,NA,"upper","curlecs","","nw","h","h",1,0.596720593515784,NA,NA,NA
"LDTpractice",4,2,NA,"upper","lumbigo","","nw","h","h",1,0.892121694050729,NA,NA,NA
"LDTpractice",5,2,NA,"upper","slumber","","w","g","g",1,0.574159629642963,NA,NA,NA
"LDTpractice",6,2,NA,"upper","crinklo","","nw","h","h",1,0.621250087860972,NA,NA,NA
"LDTpractice",7,2,NA,"upper","overshoot","","w","g","g",1,0.962529606185854,NA,NA,NA
"LDTpractice",8,2,NA,"upper","hiring","","w","g","g",1,0.722562871873379,NA,NA,NA
"LDTpractice",9,2,NA,"upper","hasking","","nw","h","h",1,0.708688802551478,NA,NA,NA
"LDTpractice",10,2,NA,"upper","revival","","w","g","g",1,0.614820083603263,NA,NA,NA
"LDTpractice",11,2,NA,"upper","grocus","","nw","h","h",1,0.516260461881757,NA,NA,NA
"LDTpractice",12,2,NA,"upper","raestro","","nw","h","g",0,0.550268765538931,NA,NA,NA
"LDTpractice",13,2,NA,"upper","tricycle","","w","g","g",1,0.670680203475058,NA,NA,NA
"LDTpractice",14,2,NA,"upper","turative","","nw","h","h",1,0.593642653897405,NA,NA,NA
"experimental",1,1,"hd","lower","unspoken","w","w","g","h",0,0.6669000685215,NA,NA,NA
"experimental",1,2,"hd","lower","pender","nw","nw","h","h",1,0.959482124540955,NA,NA,NA
"experimental",1,3,"hd","lower","roodies","nw","nw","h","g",0,1.40723346080631,NA,NA,NA
"experimental",1,4,"hd","lower","regards","w","w","g","g",1,0.685988459270447,NA,NA,NA
"experimental",1,5,"hd","lower","even","w","w","g","g",1,0.633387704845518,NA,NA,NA
"experimental",1,6,"hd","lower","opert","nw","nw","h","h",1,0.759004526305944,NA,NA,NA
"experimental",1,7,"hd","lower","larger","w","w","g","g",1,0.648045411799103,NA,NA,NA
"experimental",1,8,"hd","lower","oleandur","nw","nw","h","h",1,0.709554214961827,NA,NA,NA
"experimental",1,9,"hd","lower","booster","w","w","g","g",1,0.584090015850961,NA,NA,NA
"experimental",1,10,"hd","lower","fards","nw","nw","h","h",1,0.863460469990969,NA,NA,NA
"experimental",1,11,"hd","lower","lizard","target","target","q","q",1,0.506397943943739,1,NA,NA
"experimental",1,12,"hd","lower","thesis","aftertar1","w","g","h",0,0.837898043449968,NA,NA,NA
"experimental",1,13,"hd","lower","incorrect","aftertar2","w","g","g",1,0.683203846216202,NA,NA,NA
"experimental",1,14,"hd","lower","eggays","aftertar3","nw","h","h",1,0.711383034475148,NA,NA,NA
"experimental",1,15,"hd","lower","subber","nw","nw","h","h",1,0.834215905051678,NA,NA,NA
"experimental",1,16,"hd","lower","forecast","nw","w","g","g",1,0.560080298688263,NA,NA,NA
"experimental",1,17,"hd","lower","ounside","w","nw","h","h",1,0.712736440822482,NA,NA,NA
"experimental",1,18,"hd","lower","appain","nw","nw","h","h",1,0.859532678965479,NA,NA,NA
"experimental",1,19,"hd","lower","pircus","nw","nw","h","h",1,0.688265545293689,NA,NA,NA
"experimental",1,20,"hd","lower","tuckel","nw","nw","h","h",1,0.834937964100391,NA,NA,NA
"experimental",1,21,"hd","lower","childhood","nw","w","g","g",1,0.479635064955801,NA,NA,NA
"experimental",1,22,"hd","lower","dusmy","w","nw","h","h",1,0.683982518035918,NA,NA,NA
"experimental",1,23,"hd","lower","geborn","nw","nw","h","h",1,0.687336237635463,NA,NA,NA
"experimental",1,24,"hd","lower","listless","nw","w","g","g",1,0.738740843720734,NA,NA,NA
"experimental",1,25,"hd","lower","antwers","w","nw","h","h",1,0.684026881121099,NA,NA,NA
"experimental",1,26,"hd","lower","daylight","nw","w","g","g",1,0.703541688155383,NA,NA,NA
"experimental",1,27,"hd","lower","category","w","w","g","g",1,0.610126863233745,NA,NA,NA
"experimental",1,28,"hd","lower","bullet","w","w","g","g",1,0.544872025027871,NA,NA,NA
"experimental",1,29,"hd","lower","matter","w","w","g","g",1,0.530220939777792,NA,NA,NA
"experimental",1,30,"hd","lower","begut","w","nw","h","h",1,0.651361389551312,NA,NA,NA
"experimental",2,1,"hd","lower","cogantly","nw","nw","h","h",1,0.680084522813559,NA,NA,NA
"experimental",2,2,"hd","lower","official","w","w","g","g",1,0.420115649700165,NA,NA,NA
"experimental",2,3,"hd","lower","rewrite","w","w","g","g",1,0.602212680969387,NA,NA,NA
"experimental",2,4,"hd","lower","cills","nw","nw","h","h",1,0.6889627748169,NA,NA,NA
"experimental",2,5,"hd","lower","surface","w","w","g","g",1,0.499478291254491,NA,NA,NA
"experimental",2,6,"hd","lower","rational","w","w","g","g",1,0.60661158291623,NA,NA,NA
"experimental",2,7,"hd","lower","bropic","nw","nw","h","h",1,0.589375517331064,NA,NA,NA
"experimental",2,8,"hd","lower","mubby","nw","nw","h","h",1,0.684712523128837,NA,NA,NA
"experimental",2,9,"hd","lower","tenpince","nw","nw","h","h",1,0.712018354330212,NA,NA,NA
"experimental",2,10,"hd","lower","schides","nw","nw","h","h",1,0.65069263195619,NA,NA,NA
"experimental",2,11,"hd","lower","bickering","w","w","g","h",0,1.07152614882216,NA,NA,NA
"experimental",2,12,"hd","lower","angry","w","w","g","g",1,0.475550678092986,NA,NA,NA
"experimental",2,13,"hd","lower","priant","nw","nw","h","h",1,0.631595633458346,NA,NA,NA
"experimental",2,14,"hd","lower","tinion","nw","nw","h","h",1,0.852713670115918,NA,NA,NA
"experimental",2,15,"hd","lower","pived","nw","nw","h","h",1,0.945187598932534,NA,NA,NA
"experimental",2,16,"hd","lower","pretzel","w","w","g","h",0,0.522689471952617,NA,NA,NA
"experimental",2,17,"hd","lower","allained","nw","nw","h","h",1,0.820768582168967,NA,NA,NA
"experimental",2,18,"hd","lower","dredigest","nw","nw","h","h",1,0.826843019109219,NA,NA,NA
"experimental",2,19,"hd","lower","smolvers","nw","nw","h","h",1,1.17690974613652,NA,NA,NA
"experimental",2,20,"hd","lower","bamboo","w","w","g","g",1,0.896569261793047,NA,NA,NA
"experimental",2,21,"hd","lower","arrigns","nw","nw","h","h",1,0.764279102440923,NA,NA,NA
"experimental",2,22,"hd","lower","supplier","w","w","g","g",1,0.556094239000231,NA,NA,NA
"experimental",2,23,"hd","lower","glaims","nw","nw","h","g",0,0.668755374383181,NA,NA,NA
"experimental",2,24,"hd","lower","optional","w","w","g","g",1,0.496767836622894,NA,NA,NA
"experimental",2,25,"hd","lower","uncounted","w","w","g","g",1,0.708090232219547,NA,NA,NA
"experimental",2,26,"hd","lower","dishwater","w","w","g","g",1,0.638826821930707,NA,NA,NA
"experimental",2,27,"hd","lower","pregs","nw","nw","h","h",1,0.820205435622483,NA,NA,NA
"experimental",2,28,"hd","lower","gymnasium","w","w","g","g",1,0.5861452864483,NA,NA,NA
"experimental",2,29,"hd","lower","fracture","w","w","g","g",1,0.561578050255775,NA,NA,NA
"experimental",2,30,"hd","lower","graveyard","w","w","g","g",1,0.546241653617471,NA,NA,NA
"experimental",3,1,"ld","upper","yash","nw","nw","h","g",0,0.675372762139887,NA,NA,NA
"experimental",3,2,"ld","upper","sporidic","nw","nw","h","h",1,1.55949794966727,NA,NA,NA
"experimental",3,3,"ld","upper","rudder","w","w","g","h",0,1.06419563991949,NA,NA,NA
"experimental",3,4,"ld","upper","imprives","nw","nw","h","h",1,0.996942144352943,NA,NA,NA
"experimental",3,5,"ld","upper","goltish","nw","nw","h","h",1,0.884276705328375,NA,NA,NA
"experimental",3,6,"ld","upper","potent","w","w","g","g",1,0.670846399851143,NA,NA,NA
"experimental",3,7,"ld","upper","binder","w","w","g","g",1,0.530723832082003,NA,NA,NA
"experimental",3,8,"ld","upper","ensues","w","w","g","h",0,0.748778827022761,NA,NA,NA
"experimental",3,9,"ld","upper","chyme","nw","nw","h","h",1,1.09418080467731,NA,NA,NA
"experimental",3,10,"ld","upper","pester","w","w","g","g",1,0.777502291370183,NA,NA,NA
"experimental",3,11,"ld","upper","sliding","w","w","g","g",1,0.553535745013505,NA,NA,NA
"experimental",3,12,"ld","upper","sunshine","w","w","g","g",1,0.514273060020059,NA,NA,NA
"experimental",3,13,"ld","upper","geadpan","nw","nw","h","h",1,0.756964484695345,NA,NA,NA
"experimental",3,14,"ld","upper","airbis","nw","nw","h","h",1,0.709657176863402,NA,NA,NA
"experimental",3,15,"ld","upper","borrent","nw","nw","h","h",1,0.727001170162112,NA,NA,NA
"experimental",3,16,"ld","upper","decant","w","w","g","g",1,1.15342775080353,NA,NA,NA
"experimental",3,17,"ld","upper","dileting","nw","nw","h","h",1,0.834175182972103,NA,NA,NA
"experimental",3,18,"ld","upper","managed","w","w","g","g",1,0.639500214252621,NA,NA,NA
"experimental",3,19,"ld","upper","jiggling","w","w","g","g",1,0.692857790272683,NA,NA,NA
"experimental",3,20,"ld","upper","pillage","w","w","g","g",1,0.52025181800127,NA,NA,NA
"experimental",3,21,"ld","upper","unburnid","nw","nw","h","h",1,0.858326929155737,NA,NA,NA
"experimental",3,22,"ld","upper","handbook","w","w","g","g",1,0.679202226456255,NA,NA,NA
"experimental",3,23,"ld","upper","comply","w","w","g","g",1,0.737954225856811,NA,NA,NA
"experimental",3,24,"ld","upper","havel","nw","nw","h","h",1,1.38747134665027,NA,NA,NA
"experimental",3,25,"ld","upper","uncle","w","w","g","g",1,0.546750836540014,NA,NA,NA
"experimental",3,26,"ld","upper","sonnet","w","w","g","g",1,0.540111597627401,NA,NA,NA
"experimental",3,27,"ld","upper","crudios","nw","nw","h","h",1,0.757545178290457,NA,NA,NA
"experimental",3,28,"ld","upper","lancos","nw","nw","h","h",1,0.870257628150284,NA,NA,NA
"experimental",3,29,"ld","upper","impirt","nw","nw","h","h",1,0.85833222605288,NA,NA,NA
"experimental",3,30,"ld","upper","ebciting","nw","nw","h","h",1,0.76712827431038,NA,NA,NA
"experimental",4,1,"ld","upper","clarms","nw","nw","h","g",0,1.27026332262903,NA,NA,NA
"experimental",4,2,"ld","upper","phonology","w","w","g","g",1,1.85050710150972,NA,NA,NA
"experimental",4,3,"ld","upper","intrude","w","w","g","g",1,1.34309068042785,NA,NA,NA
"experimental",4,4,"ld","upper","blocking","w","w","g","g",1,0.64846057118848,NA,NA,NA
"experimental",4,5,"ld","upper","chesume","nw","nw","h","h",1,0.996957703959197,NA,NA,NA
"experimental",4,6,"ld","upper","athcan","nw","nw","h","h",1,0.900234185159206,NA,NA,NA
"experimental",4,7,"ld","upper","nameplate","w","w","g","g",1,0.863092322368175,NA,NA,NA
"experimental",4,8,"ld","upper","crundle","nw","nw","h","h",1,1.06790989264846,NA,NA,NA
"experimental",4,9,"ld","upper","hostade","nw","nw","h","h",1,0.839660318568349,NA,NA,NA
"experimental",4,10,"ld","upper","unbridled","w","w","g","h",0,0.956928265746683,NA,NA,NA
"experimental",4,11,"ld","upper","markot","nw","nw","h","h",1,0.74966906895861,NA,NA,NA
"experimental",4,12,"ld","upper","tinker","w","w","g","g",1,0.982552271336317,NA,NA,NA
"experimental",4,13,"ld","upper","outlaved","nw","nw","h","h",1,1.1087146922946,NA,NA,NA
"experimental",4,14,"ld","upper","saucer","w","w","g","g",1,0.80897792475298,NA,NA,NA
"experimental",4,15,"ld","upper","snorls","nw","nw","h","g",0,0.655192178208381,NA,NA,NA
"experimental",4,16,"ld","upper","omission","w","w","g","g",1,0.628427643328905,NA,NA,NA
"experimental",4,17,"ld","upper","moozy","nw","nw","h","h",1,0.689837456680834,NA,NA,NA
"experimental",4,18,"ld","upper","carony","nw","nw","h","h",1,0.677869346458465,NA,NA,NA
"experimental",4,19,"ld","upper","monopoly","w","w","g","g",1,0.60991564206779,NA,NA,NA
"experimental",4,20,"ld","upper","nores","nw","nw","h","h",1,0.672445789445192,NA,NA,NA
"experimental",4,21,"ld","upper","bellicove","nw","nw","h","h",1,0.732808435335755,NA,NA,NA
"experimental",4,22,"ld","upper","castaway","w","w","g","g",1,0.606541065033525,NA,NA,NA
"experimental",4,23,"ld","upper","portify","nw","nw","h","h",1,0.740251175593585,NA,NA,NA
"experimental",4,24,"ld","upper","explosion","w","w","g","g",1,0.517821116372943,NA,NA,NA
"experimental",4,25,"ld","upper","mabit","nw","nw","h","h",1,0.575461058411747,NA,NA,NA
"experimental",4,26,"ld","upper","truthful","w","w","g","g",1,0.655635809060186,NA,NA,NA
"experimental",4,27,"ld","upper","vivid","w","w","g","g",1,0.571990471798927,NA,NA,NA
"experimental",4,28,"ld","upper","elvisages","nw","nw","h","h",1,0.644410946406424,NA,NA,NA
"experimental",4,29,"ld","upper","deserve","w","w","g","g",1,0.521993567235768,NA,NA,NA
"experimental",4,30,"ld","upper","perform","w","w","g","g",1,0.563514467794448,NA,NA,NA
"experimental",5,1,"hd","lower","capobly","nw","nw","h","h",1,0.716578154359013,NA,NA,NA
"experimental",5,2,"hd","lower","cayward","nw","nw","h","g",0,0.670947375241667,NA,NA,NA
"experimental",5,3,"hd","lower","asthmatic","w","w","g","g",1,0.506952814292163,NA,NA,NA
"experimental",5,4,"hd","lower","elpired","nw","nw","h","h",1,0.707404589746147,NA,NA,NA
"experimental",5,5,"hd","lower","prillway","nw","nw","h","h",1,0.582816728390753,NA,NA,NA
"experimental",5,6,"hd","lower","martial","w","w","g","g",1,0.535301841329783,NA,NA,NA
"experimental",5,7,"hd","lower","metrol","nw","nw","h","h",1,0.936486468650401,NA,NA,NA
"experimental",5,8,"hd","lower","reddar","nw","nw","h","h",1,0.722210946492851,NA,NA,NA
"experimental",5,9,"hd","lower","casino","w","w","g","g",1,0.676313988864422,NA,NA,NA
"experimental",5,10,"hd","lower","chraps","nw","nw","h","h",1,0.64004151057452,NA,NA,NA
"experimental",5,11,"hd","lower","chicken","target","target","q","g",0,0.509515612386167,NA,NA,NA
"experimental",5,12,"hd","lower","jungle","aftertar1","w","g","q",0,0.632154145278037,NA,NA,1
"experimental",5,13,"hd","lower","dominion","aftertar2","w","g","g",1,0.942286781035364,NA,NA,NA
"experimental",5,14,"hd","lower","uncorked","aftertar3","w","g","g",1,0.647855710238218,NA,NA,NA
"experimental",5,15,"hd","lower","accessory","w","w","g","g",1,0.636883452069014,NA,NA,NA
"experimental",5,16,"hd","lower","twarfs","w","nw","h","h",1,0.681387937627733,NA,NA,NA
"experimental",5,17,"hd","lower","undimmec","nw","nw","h","h",1,0.685354464221746,NA,NA,NA
"experimental",5,18,"hd","lower","arranged","nw","w","g","g",1,0.51280973944813,NA,NA,NA
"experimental",5,19,"hd","lower","grefab","w","nw","h","h",1,0.587519880849868,NA,NA,NA
"experimental",5,20,"hd","lower","ilterfere","nw","nw","h","h",1,0.618871363811195,NA,NA,NA
"experimental",5,21,"hd","lower","temelity","nw","nw","h","h",1,0.656091027893126,NA,NA,NA
"experimental",5,22,"hd","lower","expired","nw","w","g","g",1,0.581599722150713,NA,NA,NA
"experimental",5,23,"hd","lower","urgency","w","w","g","g",1,0.517331467010081,NA,NA,NA
"experimental",5,24,"hd","lower","bluads","w","nw","h","h",1,0.535503130406141,NA,NA,NA
"experimental",5,25,"hd","lower","levels","nw","w","g","g",1,0.680993966758251,NA,NA,NA
"experimental",5,26,"hd","lower","intended","w","w","g","g",1,0.628139613661915,NA,NA,NA
"experimental",5,27,"hd","lower","sampling","w","w","g","g",1,0.57791493460536,NA,NA,NA
"experimental",5,28,"hd","lower","currowing","w","nw","h","h",1,0.841928796842694,NA,NA,NA
"experimental",5,29,"hd","lower","stooping","nw","w","g","g",1,0.639198942109942,NA,NA,NA
"experimental",5,30,"hd","lower","neuran","w","nw","h","h",1,0.556854040361941,NA,NA,NA
"experimental",6,1,"hd","lower","reborn","w","w","g","g",1,0.66061805235222,NA,NA,NA
"experimental",6,2,"hd","lower","seldom","w","w","g","g",1,0.793153202626854,NA,NA,NA
"experimental",6,3,"hd","lower","greakable","nw","nw","h","h",1,0.600575218908489,NA,NA,NA
"experimental",6,4,"hd","lower","ucility","nw","nw","h","h",1,0.75132738891989,NA,NA,NA
"experimental",6,5,"hd","lower","coupling","w","w","g","g",1,0.80823831865564,NA,NA,NA
"experimental",6,6,"hd","lower","gures","nw","nw","h","h",1,0.966906656976789,NA,NA,NA
"experimental",6,7,"hd","lower","publish","w","w","g","g",1,0.559463519137353,NA,NA,NA
"experimental",6,8,"hd","lower","buzzer","w","w","g","g",1,0.664130021817982,NA,NA,NA
"experimental",6,9,"hd","lower","religious","w","w","g","g",1,0.516930212266743,NA,NA,NA
"experimental",6,10,"hd","lower","ounwit","nw","nw","h","h",1,0.583010071888566,NA,NA,NA
"experimental",6,11,"hd","lower","holdup","w","w","g","g",1,0.550772320013493,NA,NA,NA
"experimental",6,12,"hd","lower","slogan","w","w","g","g",1,0.607443556655198,NA,NA,NA
"experimental",6,13,"hd","lower","odacles","nw","nw","h","h",1,0.566109709907323,NA,NA,NA
"experimental",6,14,"hd","lower","gestalion","nw","nw","h","h",1,1.15080403676257,NA,NA,NA
"experimental",6,15,"hd","lower","offonents","nw","nw","h","h",1,1.17558547342196,NA,NA,NA
"experimental",6,16,"hd","lower","octopus","target","target","q","q",1,0.631525116041303,1,NA,NA
"experimental",6,17,"hd","lower","envelop","aftertar1","w","g","g",1,0.701270229648799,NA,NA,NA
"experimental",6,18,"hd","lower","ameld","aftertar2","nw","h","h",1,0.55185425048694,NA,NA,NA
"experimental",6,19,"hd","lower","anemic","aftertar3","w","g","g",1,0.559636005200446,NA,NA,NA
"experimental",6,20,"hd","lower","tredits","w","nw","h","h",1,0.608133171219379,NA,NA,NA
"experimental",6,21,"hd","lower","carbled","nw","nw","h","h",1,0.806940200738609,NA,NA,NA
"experimental",6,22,"hd","lower","calcify","nw","w","g","h",0,0.781414522789419,NA,NA,NA
"experimental",6,23,"hd","lower","duries","w","nw","h","h",1,1.56400577211753,NA,NA,NA
"experimental",6,24,"hd","lower","erithets","nw","nw","h","h",1,0.566517916508019,NA,NA,NA
"experimental",6,25,"hd","lower","flicking","nw","w","g","g",1,0.583129587583244,NA,NA,NA
"experimental",6,26,"hd","lower","perishing","w","w","g","g",1,0.559146024286747,NA,NA,NA
"experimental",6,27,"hd","lower","machinery","w","w","g","g",1,0.663871127180755,NA,NA,NA
"experimental",6,28,"hd","lower","numbled","w","nw","h","g",0,1.0596699398011,NA,NA,NA
"experimental",6,29,"hd","lower","neliefs","nw","nw","h","h",1,0.62450845958665,NA,NA,NA
"experimental",6,30,"hd","lower","defensa","nw","nw","h","h",1,0.814203834161162,NA,NA,NA
"experimental",7,1,"ld","upper","oginous","nw","nw","h","h",1,0.75726112164557,NA,NA,NA
"experimental",7,2,"ld","upper","trooper","w","w","g","g",1,0.549322241917253,NA,NA,NA
"experimental",7,3,"ld","upper","lignpost","nw","nw","h","h",1,0.894385868683457,NA,NA,NA
"experimental",7,4,"ld","upper","tasher","nw","nw","h","h",1,0.753523694351315,NA,NA,NA
"experimental",7,5,"ld","upper","passet","nw","nw","h","h",1,0.930367669090629,NA,NA,NA
"experimental",7,6,"ld","upper","befin","nw","nw","h","h",1,0.804290994536132,NA,NA,NA
"experimental",7,7,"ld","upper","dumult","nw","nw","h","h",1,0.483035134151578,NA,NA,NA
"experimental",7,8,"ld","upper","warden","w","w","g","g",1,0.599143680650741,NA,NA,NA
"experimental",7,9,"ld","upper","gazes","w","w","g","g",1,0.534470198210329,NA,NA,NA
"experimental",7,10,"ld","upper","chappef","nw","nw","h","h",1,0.487718753516674,NA,NA,NA
"experimental",7,11,"ld","upper","frigs","nw","nw","h","h",1,0.674993358086795,NA,NA,NA
"experimental",7,12,"ld","upper","obviously","w","w","g","g",1,0.526157740969211,NA,NA,NA
"experimental",7,13,"ld","upper","wrestle","w","w","g","g",1,0.480129349511117,NA,NA,NA
"experimental",7,14,"ld","upper","unwose","nw","nw","h","h",1,0.61225662427023,NA,NA,NA
"experimental",7,15,"ld","upper","natch","nw","nw","h","h",1,0.699099085759372,NA,NA,NA
"experimental",7,16,"ld","upper","hindsight","w","w","g","g",1,0.758200692944229,NA,NA,NA
"experimental",7,17,"ld","upper","rantho","nw","nw","h","h",1,0.59900496294722,NA,NA,NA
"experimental",7,18,"ld","upper","stretches","w","w","g","g",1,0.550407483242452,NA,NA,NA
"experimental",7,19,"ld","upper","vintnel","nw","nw","h","h",1,0.623133865185082,NA,NA,NA
"experimental",7,20,"ld","upper","mopping","w","w","g","g",1,0.500971408095211,NA,NA,NA
"experimental",7,21,"ld","upper","paranoid","w","w","g","g",1,0.616101979278028,NA,NA,NA
"experimental",7,22,"ld","upper","curricula","w","w","g","h",0,0.669832338578999,NA,NA,NA
"experimental",7,23,"ld","upper","tracing","w","w","g","g",1,0.649972890038043,NA,NA,NA
"experimental",7,24,"ld","upper","absent","w","w","g","g",1,0.735236157197505,NA,NA,NA
"experimental",7,25,"ld","upper","yearnungs","nw","nw","h","h",1,0.856645434163511,NA,NA,NA
"experimental",7,26,"ld","upper","prawls","nw","nw","h","h",1,0.653267017565668,NA,NA,NA
"experimental",7,27,"ld","upper","crimb","nw","nw","h","g",0,0.474034386686981,NA,NA,NA
"experimental",7,28,"ld","upper","harmful","w","w","g","g",1,0.486063413321972,NA,NA,NA
"experimental",7,29,"ld","upper","movie","w","w","g","g",1,0.457412452902645,NA,NA,NA
"experimental",7,30,"ld","upper","glassware","w","w","g","g",1,0.590160479769111,NA,NA,NA
"experimental",8,1,"ld","upper","icepick","w","w","g","g",1,0.965200663544238,NA,NA,NA
"experimental",8,2,"ld","upper","computer","w","w","g","g",1,0.477929071057588,NA,NA,NA
"experimental",8,3,"ld","upper","armada","w","w","g","h",0,0.601966697722673,NA,NA,NA
"experimental",8,4,"ld","upper","caution","w","w","g","g",1,0.464704888872802,NA,NA,NA
"experimental",8,5,"ld","upper","razelle","nw","nw","h","h",1,0.589340755250305,NA,NA,NA
"experimental",8,6,"ld","upper","mebase","nw","nw","h","h",1,0.531783249694854,NA,NA,NA
"experimental",8,7,"ld","upper","poughest","nw","nw","h","h",1,0.515582765452564,NA,NA,NA
"experimental",8,8,"ld","upper","resume","w","w","g","h",0,0.446664659772068,NA,NA,NA
"experimental",8,9,"ld","upper","create","w","w","g","g",1,0.436717388685793,NA,NA,NA
"experimental",8,10,"ld","upper","sunhess","nw","nw","h","h",1,0.874696920160204,NA,NA,NA
"experimental",8,11,"ld","upper","bumbo","nw","nw","h","g",0,0.543096506968141,NA,NA,NA
"experimental",8,12,"ld","upper","bookend","w","w","g","g",1,0.456616565119475,NA,NA,NA
"experimental",8,13,"ld","upper","ugifies","nw","nw","h","h",1,0.476712395902723,NA,NA,NA
"experimental",8,14,"ld","upper","carnival","w","w","g","g",1,0.537392866797745,NA,NA,NA
"experimental",8,15,"ld","upper","egcused","nw","nw","h","h",1,0.70664048474282,NA,NA,NA
"experimental",8,16,"ld","upper","sengry","nw","nw","h","h",1,0.699940991587937,NA,NA,NA
"experimental",8,17,"ld","upper","gonesty","nw","nw","h","h",1,0.646099063102156,NA,NA,NA
"experimental",8,18,"ld","upper","populace","w","w","g","h",0,0.658817373216152,NA,NA,NA
"experimental",8,19,"ld","upper","country","w","w","g","g",1,0.606957217678428,NA,NA,NA
"experimental",8,20,"ld","upper","blerapies","nw","nw","h","h",1,0.492998295929283,NA,NA,NA
"experimental",8,21,"ld","upper","praiged","nw","nw","h","h",1,0.568434469401836,NA,NA,NA
"experimental",8,22,"ld","upper","consonant","w","w","g","h",0,0.592591843567789,NA,NA,NA
"experimental",8,23,"ld","upper","encrusted","w","w","g","h",0,0.527775670867413,NA,NA,NA
"experimental",8,24,"ld","upper","aviation","w","w","g","g",1,0.6498245713301,NA,NA,NA
"experimental",8,25,"ld","upper","nauling","nw","nw","h","h",1,0.599332720506936,NA,NA,NA
"experimental",8,26,"ld","upper","overcoat","w","w","g","g",1,0.749975969083607,NA,NA,NA
"experimental",8,27,"ld","upper","ladybug","target","target","q","q",1,0.79879658902064,1,NA,NA
"experimental",8,28,"ld","upper","fomes","aftertar1","nw","h","h",1,0.702418373897672,NA,NA,NA
"experimental",8,29,"ld","upper","scrobby","aftertar2","nw","h","h",1,0.929102326743305,NA,NA,NA
"experimental",8,30,"ld","upper","apology","aftertar3","w","g","g",1,0.507207405753434,NA,NA,NA
"experimental",9,1,"hd","lower","urique","nw","nw","h","h",1,0.740022739395499,NA,NA,NA
"experimental",9,2,"hd","lower","epic","w","w","g","g",1,0.597997853998095,NA,NA,NA
"experimental",9,3,"hd","lower","slightly","w","w","g","g",1,0.493966007605195,NA,NA,NA
"experimental",9,4,"hd","lower","record","w","w","g","g",1,0.697746672667563,NA,NA,NA
"experimental",9,5,"hd","lower","infancy","w","w","g","g",1,0.613101178780198,NA,NA,NA
"experimental",9,6,"hd","lower","nimono","nw","nw","h","h",1,0.611806702334434,NA,NA,NA
"experimental",9,7,"hd","lower","legalize","w","w","g","g",1,0.626558101736009,NA,NA,NA
"experimental",9,8,"hd","lower","educate","w","w","g","g",1,0.632475281599909,NA,NA,NA
"experimental",9,9,"hd","lower","warmer","w","w","g","g",1,0.790563257411122,NA,NA,NA
"experimental",9,10,"hd","lower","maunches","nw","nw","h","h",1,0.90091817220673,NA,NA,NA
"experimental",9,11,"hd","lower","fallint","nw","nw","h","h",1,0.559614154975861,NA,NA,NA
"experimental",9,12,"hd","lower","contund","nw","nw","h","h",1,0.672249797731638,NA,NA,NA
"experimental",9,13,"hd","lower","blanned","nw","nw","h","g",0,0.636405389755964,NA,NA,NA
"experimental",9,14,"hd","lower","command","w","w","g","g",1,0.545769219752401,NA,NA,NA
"experimental",9,15,"hd","lower","cemoir","nw","nw","h","h",1,0.619037890806794,NA,NA,NA
"experimental",9,16,"hd","lower","gerby","nw","nw","h","h",1,0.609174380544573,NA,NA,NA
"experimental",9,17,"hd","lower","hasks","nw","nw","h","g",0,0.67942735273391,NA,NA,NA
"experimental",9,18,"hd","lower","confined","w","w","g","h",0,0.787842540070415,NA,NA,NA
"experimental",9,19,"hd","lower","fullity","nw","nw","h","g",0,1.20223049260676,NA,NA,NA
"experimental",9,20,"hd","lower","elbalm","nw","nw","h","h",1,0.720678101293743,NA,NA,NA
"experimental",9,21,"hd","lower","trallion","nw","nw","h","h",1,0.594813641626388,NA,NA,NA
"experimental",9,22,"hd","lower","jaguar","target","target","q","g",0,0.577906326856464,NA,NA,NA
"experimental",9,23,"hd","lower","digested","aftertar1","w","g","g",1,1.62639190535992,NA,NA,NA
"experimental",9,24,"hd","lower","ipiocy","aftertar2","nw","h","h",1,0.69632307998836,NA,NA,NA
"experimental",9,25,"hd","lower","bureaug","aftertar3","nw","h","h",1,0.67548499442637,NA,NA,NA
"experimental",9,26,"hd","lower","charcoal","nw","w","g","g",1,0.654376757331192,NA,NA,NA
"experimental",9,27,"hd","lower","trembles","w","w","g","g",1,0.585966178681701,NA,NA,NA
"experimental",9,28,"hd","lower","sequence","w","w","g","g",1,0.585382505785674,NA,NA,NA
"experimental",9,29,"hd","lower","reses","w","nw","h","h",1,0.67271097516641,NA,NA,NA
"experimental",9,30,"hd","lower","classify","nw","w","g","g",1,0.620028115808964,NA,NA,NA
"experimental",10,1,"ld","upper","patio","w","w","g","g",1,0.70629716757685,NA,NA,NA
"experimental",10,2,"ld","upper","atabaster","nw","nw","h","h",1,0.620296942535788,NA,NA,NA
"experimental",10,3,"ld","upper","serfume","nw","nw","h","h",1,0.912396632600576,NA,NA,NA
"experimental",10,4,"ld","upper","gallon","w","w","g","g",1,0.562380559276789,NA,NA,NA
"experimental",10,5,"ld","upper","nelvet","nw","nw","h","h",1,0.546425396110862,NA,NA,NA
"experimental",10,6,"ld","upper","talent","w","w","g","g",1,0.611127350945026,NA,NA,NA
"experimental",10,7,"ld","upper","podges","nw","nw","h","h",1,0.52917608898133,NA,NA,NA
"experimental",10,8,"ld","upper","vopings","nw","nw","h","h",1,0.538548956625164,NA,NA,NA
"experimental",10,9,"ld","upper","vented","w","w","g","g",1,0.587278532329947,NA,NA,NA
"experimental",10,10,"ld","upper","assent","w","w","g","g",1,0.554472005460411,NA,NA,NA
"experimental",10,11,"ld","upper","vorm","nw","nw","h","h",1,0.666663686279207,NA,NA,NA
"experimental",10,12,"ld","upper","actively","w","w","g","g",1,0.517642008606344,NA,NA,NA
"experimental",10,13,"ld","upper","recount","w","w","g","g",1,0.551635083276778,NA,NA,NA
"experimental",10,14,"ld","upper","ignore","w","w","g","g",1,0.472230727784336,NA,NA,NA
"experimental",10,15,"ld","upper","esdings","nw","nw","h","h",1,0.555575455073267,NA,NA,NA
"experimental",10,16,"ld","upper","collute","nw","nw","h","h",1,0.53955176146701,NA,NA,NA
"experimental",10,17,"ld","upper","joadbed","nw","nw","h","h",1,0.692252929322422,NA,NA,NA
"experimental",10,18,"ld","upper","corg","nw","nw","h","h",1,0.567031734157354,NA,NA,NA
"experimental",10,19,"ld","upper","forfeit","w","w","g","g",1,0.686982656829059,NA,NA,NA
"experimental",10,20,"ld","upper","boutique","w","w","g","g",1,0.881902284920216,NA,NA,NA
"experimental",10,21,"ld","upper","overflow","w","w","g","g",1,0.49293539300561,NA,NA,NA
"experimental",10,22,"ld","upper","pimorous","nw","nw","h","h",1,0.663574489764869,NA,NA,NA
"experimental",10,23,"ld","upper","destroy","w","w","g","g",1,0.45157969603315,NA,NA,NA
"experimental",10,24,"ld","upper","sprea","nw","nw","h","h",1,0.544237367808819,NA,NA,NA
"experimental",10,25,"ld","upper","analysis","w","w","g","g",1,0.448990081436932,NA,NA,NA
"experimental",10,26,"ld","upper","bentler","nw","nw","h","h",1,0.63769556209445,NA,NA,NA
"experimental",10,27,"ld","upper","pripend","nw","nw","h","h",1,0.554375995881855,NA,NA,NA
"experimental",10,28,"ld","upper","oppose","w","w","g","g",1,1.01046263240278,NA,NA,NA
"experimental",10,29,"ld","upper","dounger","nw","nw","h","h",1,0.777149703819305,NA,NA,NA
"experimental",10,30,"ld","upper","anterior","w","w","g","g",1,0.59977304097265,NA,NA,NA
"experimental",11,1,"hd","lower","wimpid","nw","nw","h","h",1,0.655063723679632,NA,NA,NA
"experimental",11,2,"hd","lower","trake","nw","nw","h","h",1,0.763168037869036,NA,NA,NA
"experimental",11,3,"hd","lower","surfaced","w","w","g","g",1,0.691179938148707,NA,NA,NA
"experimental",11,4,"hd","lower","fidelity","w","w","g","g",1,0.6139169302769,NA,NA,NA
"experimental",11,5,"hd","lower","theery","nw","nw","h","h",1,0.594987452030182,NA,NA,NA
"experimental",11,6,"hd","lower","trecious","nw","nw","h","h",1,0.897525055799633,NA,NA,NA
"experimental",11,7,"hd","lower","glamorous","w","w","g","g",1,0.700320395641029,NA,NA,NA
"experimental",11,8,"hd","lower","vinegar","w","w","g","g",1,0.518504109699279,NA,NA,NA
"experimental",11,9,"hd","lower","uncarled","nw","nw","h","h",1,0.704346183221787,NA,NA,NA
"experimental",11,10,"hd","lower","setwixt","nw","nw","h","h",1,0.569585262332112,NA,NA,NA
"experimental",11,11,"hd","lower","sopes","nw","nw","h","g",0,0.666009164880961,NA,NA,NA
"experimental",11,12,"hd","lower","enacted","w","w","g","g",1,0.646007026080042,NA,NA,NA
"experimental",11,13,"hd","lower","renown","w","w","g","h",0,0.979175046086311,NA,NA,NA
"experimental",11,14,"hd","lower","fragment","w","w","g","g",1,0.538584049791098,NA,NA,NA
"experimental",11,15,"hd","lower","traze","nw","nw","h","h",1,0.834321184083819,NA,NA,NA
"experimental",11,16,"hd","lower","amaze","w","w","g","g",1,0.471634143032134,NA,NA,NA
"experimental",11,17,"hd","lower","describe","w","w","g","g",1,0.483072875998914,NA,NA,NA
"experimental",11,18,"hd","lower","teamwork","w","w","g","g",1,0.510397577192634,NA,NA,NA
"experimental",11,19,"hd","lower","itfidels","nw","nw","h","h",1,0.512709425762296,NA,NA,NA
"experimental",11,20,"hd","lower","fivalve","nw","nw","h","h",1,0.579014080576599,NA,NA,NA
"experimental",11,21,"hd","lower","mosary","nw","nw","h","g",0,1.11455009784549,NA,NA,NA
"experimental",11,22,"hd","lower","causality","w","w","g","g",1,0.557088767644018,NA,NA,NA
"experimental",11,23,"hd","lower","encounter","w","w","g","g",1,0.525580027606338,NA,NA,NA
"experimental",11,24,"hd","lower","guivers","nw","nw","h","h",1,0.574885993264616,NA,NA,NA
"experimental",11,25,"hd","lower","fuestion","nw","nw","h","h",1,0.637749526184052,NA,NA,NA
"experimental",11,26,"hd","lower","iflaid","nw","nw","h","h",1,0.594419670291245,NA,NA,NA
"experimental",11,27,"hd","lower","happen","w","w","g","g",1,0.609132665675133,NA,NA,NA
"experimental",11,28,"hd","lower","ascending","w","w","g","h",0,0.583261352498084,NA,NA,NA
"experimental",11,29,"hd","lower","doxing","nw","nw","h","h",1,0.574543999973685,NA,NA,NA
"experimental",11,30,"hd","lower","monkey","target","target","q","q",1,0.5738490880467,1,NA,NA
"experimental",12,1,"hd","lower","remade","w","w","g","g",1,0.612577760126442,NA,NA,NA
"experimental",12,2,"hd","lower","mining","w","w","g","g",1,0.610931027680635,NA,NA,NA
"experimental",12,3,"hd","lower","parent","w","w","g","g",1,0.785010914783925,NA,NA,NA
"experimental",12,4,"hd","lower","boulder","w","w","g","g",1,0.512488603591919,NA,NA,NA
"experimental",12,5,"hd","lower","restock","w","w","g","g",1,0.570326523855329,NA,NA,NA
"experimental",12,6,"hd","lower","innocent","w","w","g","h",0,0.417799166869372,NA,NA,NA
"experimental",12,7,"hd","lower","racile","nw","nw","h","h",1,0.679825958795846,NA,NA,NA
"experimental",12,8,"hd","lower","planofoad","nw","nw","h","h",1,0.651194862090051,NA,NA,NA
"experimental",12,9,"hd","lower","gelented","nw","nw","h","h",1,0.551045451313257,NA,NA,NA
"experimental",12,10,"hd","lower","glapula","nw","nw","h","h",1,0.46358587872237,NA,NA,NA
"experimental",12,11,"hd","lower","sefraud","nw","nw","h","h",1,0.539626914076507,NA,NA,NA
"experimental",12,12,"hd","lower","suddenly","w","w","g","g",1,0.460356641095132,NA,NA,NA
"experimental",12,13,"hd","lower","ludictous","nw","nw","h","g",0,0.736428333446383,NA,NA,NA
"experimental",12,14,"hd","lower","plapping","nw","nw","h","h",1,0.736827601213008,NA,NA,NA
"experimental",12,15,"hd","lower","gigglod","nw","nw","h","h",1,0.697497378103435,NA,NA,NA
"experimental",12,16,"hd","lower","troven","nw","nw","h","g",0,0.660149591043591,NA,NA,NA
"experimental",12,17,"hd","lower","balign","nw","nw","h","h",1,0.599577379412949,NA,NA,NA
"experimental",12,18,"hd","lower","reason","w","w","g","g",1,0.550646845716983,NA,NA,NA
"experimental",12,19,"hd","lower","dislokes","nw","nw","h","h",1,0.815322843845934,NA,NA,NA
"experimental",12,20,"hd","lower","acroad","nw","nw","h","h",1,0.917505674995482,NA,NA,NA
"experimental",12,21,"hd","lower","latirizes","nw","nw","h","h",1,0.767393128480762,NA,NA,NA
"experimental",12,22,"hd","lower","provide","w","w","g","g",1,0.447389698587358,NA,NA,NA
"experimental",12,23,"hd","lower","flieves","nw","nw","h","h",1,0.572047084569931,NA,NA,NA
"experimental",12,24,"hd","lower","kickoff","w","w","g","g",1,0.603432336356491,NA,NA,NA
"experimental",12,25,"hd","lower","lifetime","w","w","g","g",1,0.505487838294357,NA,NA,NA
"experimental",12,26,"hd","lower","ordinary","w","w","g","g",1,0.451229094993323,NA,NA,NA
"experimental",12,27,"hd","lower","located","w","w","g","g",1,0.534753592219204,NA,NA,NA
"experimental",12,28,"hd","lower","meteoroid","w","w","g","h",0,0.622877618297935,NA,NA,NA
"experimental",12,29,"hd","lower","border","w","w","g","g",1,1.04566476726905,NA,NA,NA
"experimental",12,30,"hd","lower","zears","nw","nw","h","h",1,0.57838604459539,NA,NA,NA
"experimental",13,1,"ld","upper","painter","w","w","g","g",1,0.586671353783458,NA,NA,NA
"experimental",13,2,"ld","upper","picnic","w","w","g","g",1,0.545343466103077,NA,NA,NA
"experimental",13,3,"ld","upper","clypaper","nw","nw","h","h",1,0.561140378471464,NA,NA,NA
"experimental",13,4,"ld","upper","snays","nw","nw","h","h",1,0.625052073504776,NA,NA,NA
"experimental",13,5,"ld","upper","gewer","nw","nw","h","h",1,0.574889303650707,NA,NA,NA
"experimental",13,6,"ld","upper","roughly","w","w","g","g",1,0.534374850336462,NA,NA,NA
"experimental",13,7,"ld","upper","mogus","nw","nw","h","h",1,0.576004010159522,NA,NA,NA
"experimental",13,8,"ld","upper","dingly","nw","nw","h","h",1,0.591131833381951,NA,NA,NA
"experimental",13,9,"ld","upper","finstrel","nw","nw","h","h",1,0.605869658757001,NA,NA,NA
"experimental",13,10,"ld","upper","treason","w","w","g","g",1,0.62788270553574,NA,NA,NA
"experimental",13,11,"ld","upper","brongs","nw","nw","h","h",1,0.721306468360126,NA,NA,NA
"experimental",13,12,"ld","upper","pressing","w","w","g","g",1,0.529478353913873,NA,NA,NA
"experimental",13,13,"ld","upper","gensions","nw","nw","h","h",1,0.667014287319034,NA,NA,NA
"experimental",13,14,"ld","upper","scrib","nw","nw","h","g",0,0.895050653256476,NA,NA,NA
"experimental",13,15,"ld","upper","summon","w","w","g","g",1,0.577751718461514,NA,NA,NA
"experimental",13,16,"ld","upper","rowel","nw","nw","h","h",1,0.625183176249266,NA,NA,NA
"experimental",13,17,"ld","upper","moral","w","w","g","g",1,0.510436643380672,NA,NA,NA
"experimental",13,18,"ld","upper","nollow","nw","nw","h","h",1,0.584444920998067,NA,NA,NA
"experimental",13,19,"ld","upper","terrify","w","w","g","g",1,0.495168447028846,NA,NA,NA
"experimental",13,20,"ld","upper","imotope","nw","nw","h","h",1,0.657146472483873,NA,NA,NA
"experimental",13,21,"ld","upper","series","w","w","g","g",1,0.509097473230213,NA,NA,NA
"experimental",13,22,"ld","upper","seeming","w","w","g","g",1,0.471034910064191,NA,NA,NA
"experimental",13,23,"ld","upper","turning","w","w","g","g",1,0.450661974959075,NA,NA,NA
"experimental",13,24,"ld","upper","etuip","nw","nw","h","h",1,0.511076929513365,NA,NA,NA
"experimental",13,25,"ld","upper","amkles","nw","nw","h","h",1,0.76910772966221,NA,NA,NA
"experimental",13,26,"ld","upper","daining","nw","nw","h","h",1,1.15319269290194,NA,NA,NA
"experimental",13,27,"ld","upper","actual","w","w","g","g",1,0.537217731587589,NA,NA,NA
"experimental",13,28,"ld","upper","knowledge","w","w","g","g",1,0.537944425828755,NA,NA,NA
"experimental",13,29,"ld","upper","hardest","w","w","g","g",1,0.450647739227861,NA,NA,NA
"experimental",13,30,"ld","upper","euphoric","w","w","g","g",1,0.814685869030654,NA,NA,NA
"experimental",14,1,"ld","upper","purpose","w","w","g","g",1,0.708541478030384,NA,NA,NA
"experimental",14,2,"ld","upper","fravity","nw","nw","h","h",1,0.566570225637406,NA,NA,NA
"experimental",14,3,"ld","upper","miteous","nw","nw","h","h",1,0.726958793587983,NA,NA,NA
"experimental",14,4,"ld","upper","hutting","nw","nw","h","g",0,0.528650021646172,NA,NA,NA
"experimental",14,5,"ld","upper","etcess","nw","nw","h","h",1,0.61723357019946,NA,NA,NA
"experimental",14,6,"ld","upper","earmaff","nw","nw","h","h",1,0.638494098559022,NA,NA,NA
"experimental",14,7,"ld","upper","planar","w","w","g","g",1,1.49914490571246,NA,NA,NA
"experimental",14,8,"ld","upper","pepperoni","w","w","g","g",1,0.573773273266852,NA,NA,NA
"experimental",14,9,"ld","upper","hegacy","nw","nw","h","h",1,0.56519198929891,NA,NA,NA
"experimental",14,10,"ld","upper","roaned","nw","nw","h","g",0,0.508804147131741,NA,NA,NA
"experimental",14,11,"ld","upper","alber","nw","nw","h","h",1,0.51086074160412,NA,NA,NA
"experimental",14,12,"ld","upper","baseline","w","w","g","g",1,0.6562065705657,NA,NA,NA
"experimental",14,13,"ld","upper","airline","w","w","g","h",0,0.612894260790199,NA,NA,NA
"experimental",14,14,"ld","upper","retreat","w","w","g","g",1,0.498194077983499,NA,NA,NA
"experimental",14,15,"ld","upper","kiner","nw","nw","h","h",1,0.596812299452722,NA,NA,NA
"experimental",14,16,"ld","upper","oldest","w","w","g","g",1,0.467469969298691,NA,NA,NA
"experimental",14,17,"ld","upper","runabouk","nw","nw","h","h",1,0.534965806640685,NA,NA,NA
"experimental",14,18,"ld","upper","squadroim","nw","nw","h","h",1,0.8145786030218,NA,NA,NA
"experimental",14,19,"ld","upper","peahem","nw","nw","h","h",1,0.614271835424006,NA,NA,NA
"experimental",14,20,"ld","upper","dorte","nw","nw","h","h",1,0.548280370887369,NA,NA,NA
"experimental",14,21,"ld","upper","hackal","nw","nw","h","h",1,0.620993509888649,NA,NA,NA
"experimental",14,22,"ld","upper","calming","w","w","g","g",1,0.458382482174784,NA,NA,NA
"experimental",14,23,"ld","upper","extruded","w","w","g","g",1,0.574428126215935,NA,NA,NA
"experimental",14,24,"ld","upper","student","w","w","g","g",1,0.453772359527647,NA,NA,NA
"experimental",14,25,"ld","upper","manage","w","w","g","g",1,0.496993956156075,NA,NA,NA
"experimental",14,26,"ld","upper","virulent","w","w","g","h",0,0.667571805417538,NA,NA,NA
"experimental",14,27,"ld","upper","visible","w","w","g","g",1,0.623538761399686,NA,NA,NA
"experimental",14,28,"ld","upper","anonymous","w","w","g","g",1,0.620939876884222,NA,NA,NA
"experimental",14,29,"ld","upper","butcher","w","w","g","g",1,0.498296377714723,NA,NA,NA
"experimental",14,30,"ld","upper","unstatle","nw","nw","h","h",1,0.709003317169845,NA,NA,NA
"experimental",15,1,"hd","lower","nostril","w","w","g","h",0,0.630895755719393,NA,NA,NA
"experimental",15,2,"hd","lower","distrust","w","w","g","g",1,0.492213664576411,NA,NA,NA
"experimental",15,3,"hd","lower","ciping","nw","nw","h","h",1,0.78307615313679,NA,NA,NA
"experimental",15,4,"hd","lower","dests","nw","nw","h","g",0,0.422858217731118,NA,NA,NA
"experimental",15,5,"hd","lower","selongs","nw","nw","h","h",1,0.612270860001445,NA,NA,NA
"experimental",15,6,"hd","lower","ausht","nw","nw","h","h",1,0.546281713061035,NA,NA,NA
"experimental",15,7,"hd","lower","ergonomic","w","w","g","h",0,1.02695842925459,NA,NA,NA
"experimental",15,8,"hd","lower","prama","nw","nw","h","h",1,1.11957769747823,NA,NA,NA
"experimental",15,9,"hd","lower","contain","w","w","g","g",1,1.9208418475464,NA,NA,NA
"experimental",15,10,"hd","lower","pariah","w","w","g","h",0,0.602188182063401,NA,NA,NA
"experimental",15,11,"hd","lower","shockwave","w","w","g","g",1,0.7922702440992,NA,NA,NA
"experimental",15,12,"hd","lower","deeper","w","w","g","g",1,0.54300645692274,NA,NA,NA
"experimental",15,13,"hd","lower","dialogues","w","w","g","g",1,0.831668004859239,NA,NA,NA
"experimental",15,14,"hd","lower","oppose","w","w","g","g",1,0.485012934543192,NA,NA,NA
"experimental",15,15,"hd","lower","olerates","nw","nw","h","h",1,0.687720938585699,NA,NA,NA
"experimental",15,16,"hd","lower","landing","w","w","g","g",1,0.594421656802297,NA,NA,NA
"experimental",15,17,"hd","lower","amidst","w","w","g","g",1,0.800217864103615,NA,NA,NA
"experimental",15,18,"hd","lower","plartly","nw","nw","h","h",1,0.799020721577108,NA,NA,NA
"experimental",15,19,"hd","lower","slooping","nw","nw","h","g",0,0.597544952761382,NA,NA,NA
"experimental",15,20,"hd","lower","gorilla","target","target","q","g",0,0.5163309792988,1,1,NA
"experimental",15,21,"hd","lower","favoting","aftertar1","nw","h","h",1,1.04632889060304,NA,NA,NA
"experimental",15,22,"hd","lower","labitable","aftertar2","nw","h","h",1,0.94703562092036,NA,NA,NA
"experimental",15,23,"hd","lower","leuter","aftertar3","nw","h","h",1,0.651723246555775,NA,NA,NA
"experimental",15,24,"hd","lower","volition","nw","w","g","g",1,0.799864613916725,NA,NA,NA
"experimental",15,25,"hd","lower","otoist","w","nw","h","h",1,0.558490510098636,NA,NA,NA
"experimental",15,26,"hd","lower","poyride","nw","nw","h","h",1,0.661611587740481,NA,NA,NA
"experimental",15,27,"hd","lower","pegend","nw","nw","h","h",1,0.80152127891779,NA,NA,NA
"experimental",15,28,"hd","lower","demise","nw","w","g","q",0,0.767974483780563,NA,NA,NA
"experimental",15,29,"hd","lower","laser","w","w","g","g",1,1.57610035082325,NA,NA,NA
"experimental",15,30,"hd","lower","lofty","w","w","g","h",0,0.847547353245318,NA,NA,NA
"experimental",16,1,"hd","lower","atsless","nw","nw","h","h",1,0.723492179997265,NA,NA,NA
"experimental",16,2,"hd","lower","hinsome","nw","nw","h","h",1,0.484948045108467,NA,NA,NA
"experimental",16,3,"hd","lower","melodic","w","w","g","g",1,1.17523222370073,NA,NA,NA
"experimental",16,4,"hd","lower","failure","w","w","g","g",1,0.646896274760365,NA,NA,NA
"experimental",16,5,"hd","lower","paterways","nw","nw","h","h",1,1.20362958637998,NA,NA,NA
"experimental",16,6,"hd","lower","upstairs","w","w","g","g",1,0.665689683984965,NA,NA,NA
"experimental",16,7,"hd","lower","posing","w","w","g","g",1,0.893698571249843,NA,NA,NA
"experimental",16,8,"hd","lower","naxis","nw","nw","h","h",1,0.576421155594289,NA,NA,NA
"experimental",16,9,"hd","lower","arpired","nw","nw","h","h",1,0.718904238659889,NA,NA,NA
"experimental",16,10,"hd","lower","louches","nw","nw","h","h",1,0.776143919210881,NA,NA,NA
"experimental",16,11,"hd","lower","detrabe","nw","nw","h","h",1,0.655551055911928,NA,NA,NA
"experimental",16,12,"hd","lower","huzzles","nw","nw","h","h",1,1.01958852354437,NA,NA,NA
"experimental",16,13,"hd","lower","mustled","nw","nw","h","h",1,0.656958425883204,NA,NA,NA
"experimental",16,14,"hd","lower","butterfly","target","target","q","q",1,0.877049489878118,1,NA,NA
"experimental",16,15,"hd","lower","couple","aftertar1","w","g","g",1,0.608324528671801,NA,NA,NA
"experimental",16,16,"hd","lower","postal","aftertar2","w","g","g",1,0.934372268151492,NA,NA,NA
"experimental",16,17,"hd","lower","stagger","aftertar3","w","g","g",1,0.999130173120648,NA,NA,NA
"experimental",16,18,"hd","lower","tibs","w","nw","h","h",1,0.700786870438606,NA,NA,NA
"experimental",16,19,"hd","lower","irregular","nw","w","g","g",1,0.630795441567898,NA,NA,NA
"experimental",16,20,"hd","lower","infested","w","w","g","g",1,0.819034778978676,NA,NA,NA
"experimental",16,21,"hd","lower","sponto","w","nw","h","h",1,0.682374189607799,NA,NA,NA
"experimental",16,22,"hd","lower","digest","nw","w","g","g",1,0.581740425899625,NA,NA,NA
"experimental",16,23,"hd","lower","lasprey","w","nw","h","h",1,0.604979417286813,NA,NA,NA
"experimental",16,24,"hd","lower","baults","nw","nw","h","h",1,0.699078228324652,NA,NA,NA
"experimental",16,25,"hd","lower","penalize","nw","w","g","h",0,0.797794776502997,NA,NA,NA
"experimental",16,26,"hd","lower","schinter","w","nw","h","h",1,0.643666374497116,NA,NA,NA
"experimental",16,27,"hd","lower","drauns","nw","nw","h","h",1,0.512227390892804,NA,NA,NA
"experimental",16,28,"hd","lower","airmen","nw","w","g","g",1,1.13909813202918,NA,NA,NA
"experimental",16,29,"hd","lower","enunciate","w","w","g","g",1,0.811671163421124,NA,NA,NA
"experimental",16,30,"hd","lower","leather","w","w","g","g",1,0.577682193834335,NA,NA,NA
"experimental",17,1,"ld","upper","rebool","nw","nw","h","h",1,0.760989279020578,NA,NA,NA
"experimental",17,2,"ld","upper","facienda","nw","nw","h","h",1,0.865047610364854,NA,NA,NA
"experimental",17,3,"ld","upper","chone","nw","nw","h","h",1,0.660978585481644,NA,NA,NA
"experimental",17,4,"ld","upper","decantel","nw","nw","h","h",1,0.697019978426397,NA,NA,NA
"experimental",17,5,"ld","upper","alarm","w","w","g","g",1,0.555704902857542,NA,NA,NA
"experimental",17,6,"ld","upper","abraid","nw","nw","h","h",1,0.555794953368604,NA,NA,NA
"experimental",17,7,"ld","upper","delegate","w","w","g","g",1,0.523774713277817,NA,NA,NA
"experimental",17,8,"ld","upper","phambled","nw","nw","h","h",1,0.661107039544731,NA,NA,NA
"experimental",17,9,"ld","upper","demon","w","w","g","g",1,0.657204409595579,NA,NA,NA
"experimental",17,10,"ld","upper","brials","nw","nw","h","g",0,0.588295242749155,NA,NA,NA
"experimental",17,11,"ld","upper","loached","nw","nw","h","h",1,0.522964921314269,NA,NA,NA
"experimental",17,12,"ld","upper","beggarlan","nw","nw","h","h",1,0.68428081041202,NA,NA,NA
"experimental",17,13,"ld","upper","function","w","w","g","g",1,0.584275745321065,NA,NA,NA
"experimental",17,14,"ld","upper","splatter","w","w","g","g",1,0.631642975844443,NA,NA,NA
"experimental",17,15,"ld","upper","peadgear","nw","nw","h","h",1,0.62898714793846,NA,NA,NA
"experimental",17,16,"ld","upper","forbid","w","w","g","g",1,0.5944256298244,NA,NA,NA
"experimental",17,17,"ld","upper","cobalt","w","w","g","h",0,0.657158059999347,NA,NA,NA
"experimental",17,18,"ld","upper","giving","w","w","g","g",1,0.516613049432635,NA,NA,NA
"experimental",17,19,"ld","upper","smallash","nw","nw","h","h",1,0.654566790442914,NA,NA,NA
"experimental",17,20,"ld","upper","pamine","nw","nw","h","h",1,0.673734968528152,NA,NA,NA
"experimental",17,21,"ld","upper","insole","w","w","g","g",1,0.589128209277987,NA,NA,NA
"experimental",17,22,"ld","upper","chiffol","nw","nw","h","h",1,0.555696626193821,NA,NA,NA
"experimental",17,23,"ld","upper","itself","w","w","g","g",1,0.46770105464384,NA,NA,NA
"experimental",17,24,"ld","upper","entitle","w","w","g","g",1,0.479767492040992,NA,NA,NA
"experimental",17,25,"ld","upper","handle","w","w","g","g",1,0.507202771026641,NA,NA,NA
"experimental",17,26,"ld","upper","addma","nw","nw","h","h",1,0.549218617845327,NA,NA,NA
"experimental",17,27,"ld","upper","solidity","w","w","g","g",1,0.566039854194969,NA,NA,NA
"experimental",17,28,"ld","upper","threaded","w","w","g","g",1,0.557937956880778,NA,NA,NA
"experimental",17,29,"ld","upper","nopping","nw","nw","h","h",1,0.653975171968341,NA,NA,NA
"experimental",17,30,"ld","upper","arrow","w","w","g","g",1,0.473082566168159,NA,NA,NA
"experimental",18,1,"ld","upper","slimped","nw","nw","h","h",1,0.709179445635527,NA,NA,NA
"experimental",18,2,"ld","upper","dentures","w","w","g","g",1,0.64725184161216,NA,NA,NA
"experimental",18,3,"ld","upper","entertain","w","w","g","g",1,0.484076674096286,NA,NA,NA
"experimental",18,4,"ld","upper","grieving","w","w","g","g",1,0.702522991225123,NA,NA,NA
"experimental",18,5,"ld","upper","misest","nw","nw","h","g",0,0.527716409415007,NA,NA,NA
"experimental",18,6,"ld","upper","trembla","nw","nw","h","h",1,0.672548420727253,NA,NA,NA
"experimental",18,7,"ld","upper","fuhrek","nw","nw","h","h",1,0.62039891211316,NA,NA,NA
"experimental",18,8,"ld","upper","organize","w","w","g","g",1,0.720994271337986,NA,NA,NA
"experimental",18,9,"ld","upper","golemic","nw","nw","h","h",1,0.58712988300249,NA,NA,NA
"experimental",18,10,"ld","upper","geissue","nw","nw","h","h",1,0.617844721768051,NA,NA,NA
"experimental",18,11,"ld","upper","sustain","w","w","g","g",1,0.543278263881803,NA,NA,NA
"experimental",18,12,"ld","upper","outfit","w","w","g","g",1,0.639981587417424,NA,NA,NA
"experimental",18,13,"ld","upper","arbitrary","w","w","g","g",1,0.6526929452084,NA,NA,NA
"experimental",18,14,"ld","upper","grummer","nw","nw","h","h",1,0.655827166512609,NA,NA,NA
"experimental",18,15,"ld","upper","desert","w","w","g","g",1,0.70779293263331,NA,NA,NA
"experimental",18,16,"ld","upper","ghists","nw","nw","h","h",1,0.781840607523918,NA,NA,NA
"experimental",18,17,"ld","upper","endgume","nw","nw","h","h",1,0.677195623051375,NA,NA,NA
"experimental",18,18,"ld","upper","ephically","nw","nw","h","h",1,0.992580322548747,NA,NA,NA
"experimental",18,19,"ld","upper","rapport","w","w","g","g",1,0.671307246666402,NA,NA,NA
"experimental",18,20,"ld","upper","plogging","nw","nw","h","h",1,0.698649826459587,NA,NA,NA
"experimental",18,21,"ld","upper","bingu","nw","nw","h","h",1,0.517389404121786,NA,NA,NA
"experimental",18,22,"ld","upper","clooped","nw","nw","h","h",1,0.695415953639895,NA,NA,NA
"experimental",18,23,"ld","upper","spider","target","target","q","q",1,0.642130218911916,1,NA,NA
"experimental",18,24,"ld","upper","pracking","aftertar1","nw","h","g",0,0.517851574812084,NA,NA,NA
"experimental",18,25,"ld","upper","despise","aftertar2","w","g","g",1,0.599327092524618,NA,NA,NA
"experimental",18,26,"ld","upper","derisury","aftertar3","nw","h","h",1,0.949996031820774,NA,NA,NA
"experimental",18,27,"ld","upper","fission","nw","w","g","g",1,1.00659641996026,NA,NA,NA
"experimental",18,28,"ld","upper","inversion","w","w","g","g",1,0.764641290530562,NA,NA,NA
"experimental",18,29,"ld","upper","artifact","w","w","g","g",1,0.572723456192762,NA,NA,NA
"experimental",18,30,"ld","upper","undertake","w","w","g","g",1,0.476028078235686,NA,NA,NA
"experimental",19,1,"hd","lower","skiing","w","w","g","g",1,0.855227801017463,NA,NA,NA
"experimental",19,2,"hd","lower","engineer","w","w","g","g",1,0.563399255741388,NA,NA,NA
"experimental",19,3,"hd","lower","puyer","nw","nw","h","h",1,0.524000501725823,NA,NA,NA
"experimental",19,4,"hd","lower","tharcely","nw","nw","h","h",1,0.733352710492909,NA,NA,NA
"experimental",19,5,"hd","lower","showdown","w","w","g","g",1,1.02300878753886,NA,NA,NA
"experimental",19,6,"hd","lower","decency","w","w","g","g",1,0.491890542209148,NA,NA,NA
"experimental",19,7,"hd","lower","moyeur","nw","nw","h","h",1,0.51863521290943,NA,NA,NA
"experimental",19,8,"hd","lower","thorifies","nw","nw","h","h",1,0.695432175882161,NA,NA,NA
"experimental",19,9,"hd","lower","befriend","w","w","g","g",1,0.906560895964503,NA,NA,NA
"experimental",19,10,"hd","lower","rabbit","target","target","q","g",0,0.580597910098732,1,1,NA
"experimental",19,11,"hd","lower","correct","aftertar1","w","g","g",1,0.580151299014688,NA,NA,NA
"experimental",19,12,"hd","lower","acidic","aftertar2","w","g","g",1,0.65932887326926,NA,NA,NA
"experimental",19,13,"hd","lower","nearsipe","aftertar3","nw","h","h",1,1.07944297930226,NA,NA,NA
"experimental",19,14,"hd","lower","spigat","nw","nw","h","h",1,0.714762908406556,NA,NA,NA
"experimental",19,15,"hd","lower","guffy","nw","nw","h","h",1,0.644818822853267,NA,NA,NA
"experimental",19,16,"hd","lower","footstep","nw","w","g","g",1,0.616715779993683,NA,NA,NA
"experimental",19,17,"hd","lower","plymie","w","nw","h","h",1,0.590613049920648,NA,NA,NA
"experimental",19,18,"hd","lower","frowsed","nw","nw","h","g",0,1.04532310552895,NA,NA,NA
"experimental",19,19,"hd","lower","elderly","nw","w","g","g",1,0.586001603398472,NA,NA,NA
"experimental",19,20,"hd","lower","shamrock","w","w","g","h",0,0.456635767128319,NA,NA,NA
"experimental",19,21,"hd","lower","nomma","w","nw","h","h",1,0.980728417169303,NA,NA,NA
"experimental",19,22,"hd","lower","bengths","nw","nw","h","h",1,0.764025172684342,NA,NA,NA
"experimental",19,23,"hd","lower","ignoble","nw","w","g","h",0,0.772165474481881,NA,NA,NA
"experimental",19,24,"hd","lower","serving","w","w","g","g",1,0.585422564763576,NA,NA,NA
"experimental",19,25,"hd","lower","permute","w","w","g","h",0,0.681291266344488,NA,NA,NA
"experimental",19,26,"hd","lower","usage","w","w","g","g",1,0.540577410254627,NA,NA,NA
"experimental",19,27,"hd","lower","glattery","w","nw","h","h",1,0.773282166570425,NA,NA,NA
"experimental",19,28,"hd","lower","surdens","nw","nw","h","h",1,0.756610572803766,NA,NA,NA
"experimental",19,29,"hd","lower","tunneg","nw","nw","h","h",1,0.604680131655186,NA,NA,NA
"experimental",19,30,"hd","lower","mestowal","nw","nw","h","h",1,0.578698572702706,NA,NA,NA
"experimental",20,1,"ld","upper","railroad","w","w","g","g",1,0.593935979995877,NA,NA,NA
"experimental",20,2,"ld","upper","menarthe","nw","nw","h","h",1,0.496649314183742,NA,NA,NA
"experimental",20,3,"ld","upper","inforl","nw","nw","h","h",1,0.610907852649689,NA,NA,NA
"experimental",20,4,"ld","upper","extend","w","w","g","g",1,0.417348914314061,NA,NA,NA
"experimental",20,5,"ld","upper","sength","nw","nw","h","h",1,0.622723009437323,NA,NA,NA
"experimental",20,6,"ld","upper","disuse","w","w","g","h",0,0.636107760015875,NA,NA,NA
"experimental",20,7,"ld","upper","reforest","w","w","g","g",1,0.56081394571811,NA,NA,NA
"experimental",20,8,"ld","upper","comment","w","w","g","g",1,0.480851077940315,NA,NA,NA
"experimental",20,9,"ld","upper","scack","nw","nw","h","h",1,0.563393627293408,NA,NA,NA
"experimental",20,10,"ld","upper","sording","nw","nw","h","h",1,0.571346213575453,NA,NA,NA
"experimental",20,11,"ld","upper","kilotin","nw","nw","h","h",1,0.490635463036597,NA,NA,NA
"experimental",20,12,"ld","upper","subpoena","w","w","g","h",0,0.621329213026911,NA,NA,NA
"experimental",20,13,"ld","upper","enabled","w","w","g","g",1,0.562663953285664,NA,NA,NA
"experimental",20,14,"ld","upper","disperse","w","w","g","h",0,0.546834265813231,NA,NA,NA
"experimental",20,15,"ld","upper","ragtam","nw","nw","h","h",1,0.515350024681538,NA,NA,NA
"experimental",20,16,"ld","upper","phraining","nw","nw","h","h",1,0.62146461987868,NA,NA,NA
"experimental",20,17,"ld","upper","arrested","w","w","g","g",1,0.562577875796705,NA,NA,NA
"experimental",20,18,"ld","upper","reprint","w","w","g","g",1,0.578838283196092,NA,NA,NA
"experimental",20,19,"ld","upper","telecast","w","w","g","h",0,0.55333213834092,NA,NA,NA
"experimental",20,20,"ld","upper","churnad","nw","nw","h","h",1,0.568674825131893,NA,NA,NA
"experimental",20,21,"ld","upper","lanthers","nw","nw","h","h",1,1.1125905062072,NA,NA,NA
"experimental",20,22,"ld","upper","spaceship","w","w","g","g",1,0.610742649529129,NA,NA,NA
"experimental",20,23,"ld","upper","remover","w","w","g","g",1,0.544823026750237,NA,NA,NA
"experimental",20,24,"ld","upper","rascaps","nw","nw","h","h",1,0.76958446810022,NA,NA,NA
"experimental",20,25,"ld","upper","embrace","w","w","g","g",1,0.512795172631741,NA,NA,NA
"experimental",20,26,"ld","upper","bedding","w","w","g","g",1,0.810986183583736,NA,NA,NA
"experimental",20,27,"ld","upper","legalosm","nw","nw","h","h",1,0.600977797526866,NA,NA,NA
"experimental",20,28,"ld","upper","rasuals","nw","nw","h","h",1,0.622135032899678,NA,NA,NA
"experimental",20,29,"ld","upper","gettle","nw","nw","h","g",0,0.467384222894907,NA,NA,NA
"experimental",20,30,"ld","upper","frogmy","nw","nw","h","h",1,0.52674207650125,NA,NA,NA
"experimental",21,1,"hd","lower","gunrunker","nw","nw","h","h",1,0.688982970546931,NA,NA,NA
"experimental",21,2,"hd","lower","ilcurring","nw","nw","h","h",1,0.563652191776782,NA,NA,NA
"experimental",21,3,"hd","lower","tapling","nw","nw","h","h",1,0.522812629584223,NA,NA,NA
"experimental",21,4,"hd","lower","implode","w","w","g","g",1,0.524193845689297,NA,NA,NA
"experimental",21,5,"hd","lower","olgies","nw","nw","h","h",1,0.60547436401248,NA,NA,NA
"experimental",21,6,"hd","lower","duplex","w","w","g","h",0,0.571424345485866,NA,NA,NA
"experimental",21,7,"hd","lower","purport","w","w","g","g",1,0.490812253206968,NA,NA,NA
"experimental",21,8,"hd","lower","remain","w","w","g","g",1,0.461482272483409,NA,NA,NA
"experimental",21,9,"hd","lower","latter","w","w","g","g",1,0.561492965556681,NA,NA,NA
"experimental",21,10,"hd","lower","giraffe","target","target","q","g",0,0.6175457672216,1,1,NA
"experimental",21,11,"hd","lower","grolific","aftertar1","nw","h","h",1,1.39957320783287,NA,NA,NA
"experimental",21,12,"hd","lower","mitten","aftertar2","w","g","g",1,1.02056914707646,NA,NA,NA
"experimental",21,13,"hd","lower","coster","aftertar3","nw","h","g",0,0.602341798134148,NA,NA,NA
"experimental",21,14,"hd","lower","robbery","nw","w","g","g",1,0.568926436826587,NA,NA,NA
"experimental",21,15,"hd","lower","compose","w","w","g","g",1,0.568246092181653,NA,NA,NA
"experimental",21,16,"hd","lower","gund","w","nw","h","h",1,0.631597951054573,NA,NA,NA
"experimental",21,17,"hd","lower","greft","nw","nw","h","h",1,0.580977314151824,NA,NA,NA
"experimental",21,18,"hd","lower","splinging","nw","nw","h","h",1,1.1963603249751,NA,NA,NA
"experimental",21,19,"hd","lower","treenery","nw","nw","h","h",1,0.787082076538354,NA,NA,NA
"experimental",21,20,"hd","lower","resonant","nw","w","g","g",1,0.793807062320411,NA,NA,NA
"experimental",21,21,"hd","lower","kettle","w","w","g","g",1,0.719665695447475,NA,NA,NA
"experimental",21,22,"hd","lower","sodent","w","nw","h","h",1,0.848929893691093,NA,NA,NA
"experimental",21,23,"hd","lower","swatches","nw","w","g","h",0,1.26967501500621,NA,NA,NA
"experimental",21,24,"hd","lower","rationale","w","w","g","g",1,0.776972251478583,NA,NA,NA
"experimental",21,25,"hd","lower","worps","w","nw","h","g",0,1.25641805678606,NA,NA,NA
"experimental",21,26,"hd","lower","houted","nw","nw","h","h",1,1.48442131606862,NA,NA,NA
"experimental",21,27,"hd","lower","graciap","nw","nw","h","h",1,0.62317557958886,NA,NA,NA
"experimental",21,28,"hd","lower","colored","nw","w","g","g",1,0.580557188950479,NA,NA,NA
"experimental",21,29,"hd","lower","potatoes","w","w","g","g",1,0.506915072444826,NA,NA,NA
"experimental",21,30,"hd","lower","cripet","w","nw","h","h",1,1.02905011735857,NA,NA,NA
"experimental",22,1,"hd","lower","cavern","w","w","g","g",1,1.0429301452823,NA,NA,NA
"experimental",22,2,"hd","lower","miracle","w","w","g","g",1,0.575612355954945,NA,NA,NA
"experimental",22,3,"hd","lower","fashing","nw","nw","h","h",1,0.919028256554156,NA,NA,NA
"experimental",22,4,"hd","lower","widely","w","w","g","g",1,0.711483017075807,NA,NA,NA
"experimental",22,5,"hd","lower","apop","nw","nw","h","h",1,0.601449569687247,NA,NA,NA
"experimental",22,6,"hd","lower","iolize","nw","nw","h","h",1,1.15168467722833,NA,NA,NA
"experimental",22,7,"hd","lower","bulmed","nw","nw","h","h",1,0.679583948105574,NA,NA,NA
"experimental",22,8,"hd","lower","removable","w","w","g","g",1,0.60297579318285,NA,NA,NA
"experimental",22,9,"hd","lower","persona","w","w","g","g",1,0.904995606280863,NA,NA,NA
"experimental",22,10,"hd","lower","whirling","w","w","g","g",1,0.571035671513528,NA,NA,NA
"experimental",22,11,"hd","lower","typical","w","w","g","g",1,0.514408466871828,NA,NA,NA
"experimental",22,12,"hd","lower","cutout","w","w","g","g",1,0.676478198729455,NA,NA,NA
"experimental",22,13,"hd","lower","huntry","nw","nw","h","h",1,0.55088984919712,NA,NA,NA
"experimental",22,14,"hd","lower","acting","w","w","g","g",1,0.478867980185896,NA,NA,NA
"experimental",22,15,"hd","lower","culer","nw","nw","h","h",1,0.594229637645185,NA,NA,NA
"experimental",22,16,"hd","lower","sarlock","nw","nw","h","h",1,0.968965900596231,NA,NA,NA
"experimental",22,17,"hd","lower","other","w","w","g","h",0,0.536350333597511,NA,NA,NA
"experimental",22,18,"hd","lower","bloves","nw","nw","h","h",1,0.736971284728497,NA,NA,NA
"experimental",22,19,"hd","lower","newstrint","nw","nw","h","h",1,0.745696583297104,NA,NA,NA
"experimental",22,20,"hd","lower","batire","nw","nw","h","h",1,0.794469198212028,NA,NA,NA
"experimental",22,21,"hd","lower","pakened","nw","nw","h","h",1,0.673052637372166,NA,NA,NA
"experimental",22,22,"hd","lower","heuls","nw","nw","h","h",1,0.691359707619995,NA,NA,NA
"experimental",22,23,"hd","lower","haurded","nw","nw","h","h",1,0.718184165656567,NA,NA,NA
"experimental",22,24,"hd","lower","release","w","w","g","g",1,0.671549257356673,NA,NA,NA
"experimental",22,25,"hd","lower","servant","w","w","g","g",1,0.840114875230938,NA,NA,NA
"experimental",22,26,"hd","lower","rarely","w","w","g","g",1,0.671505225356668,NA,NA,NA
"experimental",22,27,"hd","lower","maximized","w","w","g","g",1,0.498904881067574,NA,NA,NA
"experimental",22,28,"hd","lower","noblin","nw","nw","h","h",1,0.653697074856609,NA,NA,NA
"experimental",22,29,"hd","lower","image","w","w","g","g",1,0.585736086592078,NA,NA,NA
"experimental",22,30,"hd","lower","veclors","nw","nw","h","h",1,0.77663588616997,NA,NA,NA
"experimental",23,1,"ld","upper","rawhide","w","w","g","h",0,0.791710739023983,NA,NA,NA
"experimental",23,2,"ld","upper","cervical","w","w","g","g",1,1.07843255950138,NA,NA,NA
"experimental",23,3,"ld","upper","party","w","w","g","g",1,0.633881989400834,NA,NA,NA
"experimental",23,4,"ld","upper","horks","nw","nw","h","g",0,1.09453140571713,NA,NA,NA
"experimental",23,5,"ld","upper","whirlpool","w","w","g","g",1,0.784333218354732,NA,NA,NA
"experimental",23,6,"ld","upper","galashes","nw","nw","h","h",1,1.39923187717795,NA,NA,NA
"experimental",23,7,"ld","upper","ronic","nw","nw","h","h",1,0.829102227464318,NA,NA,NA
"experimental",23,8,"ld","upper","venturous","w","w","g","g",1,0.883083866909146,NA,NA,NA
"experimental",23,9,"ld","upper","mounting","w","w","g","g",1,0.83043080335483,NA,NA,NA
"experimental",23,10,"ld","upper","eaglot","nw","nw","h","h",1,0.795791815035045,NA,NA,NA
"experimental",23,11,"ld","upper","hecture","nw","nw","h","h",1,0.658535965252668,NA,NA,NA
"experimental",23,12,"ld","upper","axis","w","w","g","g",1,0.63059415249154,NA,NA,NA
"experimental",23,13,"ld","upper","permeable","w","w","g","g",1,0.9790078564547,NA,NA,NA
"experimental",23,14,"ld","upper","chonemic","nw","nw","h","h",1,0.7144212462008,NA,NA,NA
"experimental",23,15,"ld","upper","fraft","nw","nw","h","h",1,0.796242067590356,NA,NA,NA
"experimental",23,16,"ld","upper","wienegs","nw","nw","h","h",1,0.746402751654387,NA,NA,NA
"experimental",23,17,"ld","upper","prohibit","w","w","g","h",0,0.499209132511169,NA,NA,NA
"experimental",23,18,"ld","upper","grenavier","nw","nw","h","h",1,0.598561331629753,NA,NA,NA
"experimental",23,19,"ld","upper","afford","w","w","g","g",1,0.965216885320842,NA,NA,NA
"experimental",23,20,"ld","upper","scarlet","w","w","g","g",1,0.893178131897002,NA,NA,NA
"experimental",23,21,"ld","upper","handcuff","w","w","g","g",1,0.855950522702187,NA,NA,NA
"experimental",23,22,"ld","upper","thamp","nw","nw","h","h",1,0.627273870632052,NA,NA,NA
"experimental",23,23,"ld","upper","massacre","w","w","g","g",1,0.624389937147498,NA,NA,NA
"experimental",23,24,"ld","upper","infusion","w","w","g","g",1,0.557723093777895,NA,NA,NA
"experimental",23,25,"ld","upper","thaken","nw","nw","h","h",1,0.66982041997835,NA,NA,NA
"experimental",23,26,"ld","upper","retona","nw","nw","h","h",1,0.497163131833076,NA,NA,NA
"experimental",23,27,"ld","upper","require","w","w","g","g",1,0.620002954732627,NA,NA,NA
"experimental",23,28,"ld","upper","chrayed","nw","nw","h","h",1,0.569261146709323,NA,NA,NA
"experimental",23,29,"ld","upper","pexts","nw","nw","h","h",1,0.584223105572164,NA,NA,NA
"experimental",23,30,"ld","upper","gablus","nw","nw","h","h",1,0.519325489643961,NA,NA,NA
"experimental",24,1,"ld","upper","nogwhell","nw","nw","h","h",1,0.648507914040238,NA,NA,NA
"experimental",24,2,"ld","upper","rualify","nw","nw","h","h",1,0.981263092253357,NA,NA,NA
"experimental",24,3,"ld","upper","equitable","w","w","g","h",0,0.980650616344064,NA,NA,NA
"experimental",24,4,"ld","upper","standard","w","w","g","g",1,0.547929107677191,NA,NA,NA
"experimental",24,5,"ld","upper","parody","w","w","g","g",1,0.668590833432972,NA,NA,NA
"experimental",24,6,"ld","upper","gremieres","nw","nw","h","h",1,0.575070066843182,NA,NA,NA
"experimental",24,7,"ld","upper","elalt","nw","nw","h","h",1,0.662324376869947,NA,NA,NA
"experimental",24,8,"ld","upper","fabstand","nw","nw","h","h",1,0.738407458178699,NA,NA,NA
"experimental",24,9,"ld","upper","ready","w","w","g","g",1,0.579154784791172,NA,NA,NA
"experimental",24,10,"ld","upper","intercede","w","w","g","h",0,0.770476365461946,NA,NA,NA
"experimental",24,11,"ld","upper","tipoff","w","w","g","g",1,0.729857956524938,NA,NA,NA
"experimental",24,12,"ld","upper","senalize","nw","nw","h","h",1,1.26710129156709,NA,NA,NA
"experimental",24,13,"ld","upper","except","w","w","g","g",1,0.950656843371689,NA,NA,NA
"experimental",24,14,"ld","upper","mineluyer","nw","nw","h","h",1,0.606687066145241,NA,NA,NA
"experimental",24,15,"ld","upper","gigoho","nw","nw","h","h",1,0.635856810491532,NA,NA,NA
"experimental",24,16,"ld","upper","measure","w","w","g","g",1,0.592430944554508,NA,NA,NA
"experimental",24,17,"ld","upper","frequency","w","w","g","g",1,0.519369852729142,NA,NA,NA
"experimental",24,18,"ld","upper","trophy","w","w","g","g",1,0.568521871697158,NA,NA,NA
"experimental",24,19,"ld","upper","owner","w","w","g","g",1,0.463904365897179,NA,NA,NA
"experimental",24,20,"ld","upper","admire","w","w","g","g",1,0.555968102067709,NA,NA,NA
"experimental",24,21,"ld","upper","incidonts","nw","nw","h","h",1,0.820227286312729,NA,NA,NA
"experimental",24,22,"ld","upper","noils","nw","nw","h","h",1,0.705355609767139,NA,NA,NA
"experimental",24,23,"ld","upper","mixture","w","w","g","g",1,0.52342477440834,NA,NA,NA
"experimental",24,24,"ld","upper","fuintets","nw","nw","h","h",1,0.55555592244491,NA,NA,NA
"experimental",24,25,"ld","upper","latpin","nw","nw","h","h",1,0.916022490244359,NA,NA,NA
"experimental",24,26,"ld","upper","egpended","nw","nw","h","h",1,0.685908340848982,NA,NA,NA
"experimental",24,27,"ld","upper","sullen","w","w","g","h",0,0.632610356900841,NA,NA,NA
"experimental",24,28,"ld","upper","edasion","nw","nw","h","h",1,0.741964784450829,NA,NA,NA
"experimental",24,29,"ld","upper","company","w","w","g","g",1,0.510652169119567,NA,NA,NA
"experimental",24,30,"ld","upper","trocess","nw","nw","h","h",1,0.58464521728456,NA,NA,NA
"experimental",25,1,"hd","lower","prominent","w","w","g","g",1,0.782522938679904,NA,NA,NA
"experimental",25,2,"hd","lower","rarren","nw","nw","h","h",1,0.669951853808016,NA,NA,NA
"experimental",25,3,"hd","lower","affluent","w","w","g","g",1,0.641233686823398,NA,NA,NA
"experimental",25,4,"hd","lower","pypecast","nw","nw","h","h",1,0.645775609184057,NA,NA,NA
"experimental",25,5,"hd","lower","poars","nw","nw","h","h",1,0.898668564856052,NA,NA,NA
"experimental",25,6,"hd","lower","coverall","w","w","g","g",1,1.06148187536746,NA,NA,NA
"experimental",25,7,"hd","lower","shurk","nw","nw","h","h",1,0.689475599676371,NA,NA,NA
"experimental",25,8,"hd","lower","lenie","nw","nw","h","h",1,0.58732554409653,NA,NA,NA
"experimental",25,9,"hd","lower","fassed","nw","nw","h","h",1,0.641995474230498,NA,NA,NA
"experimental",25,10,"hd","lower","donastic","nw","nw","h","h",1,0.702630588319153,NA,NA,NA
"experimental",25,11,"hd","lower","midday","w","w","g","g",1,0.808609114959836,NA,NA,NA
"experimental",25,12,"hd","lower","chining","nw","nw","h","g",0,0.694685617461801,NA,NA,NA
"experimental",25,13,"hd","lower","veirs","nw","nw","h","h",1,0.561408543493599,NA,NA,NA
"experimental",25,14,"hd","lower","porcupine","target","target","q","q",1,0.753471716772765,1,NA,NA
"experimental",25,15,"hd","lower","lovud","aftertar1","nw","h","h",1,0.593489038292319,NA,NA,NA
"experimental",25,16,"hd","lower","agony","aftertar2","w","g","g",1,0.544200619217008,NA,NA,NA
"experimental",25,17,"hd","lower","walnut","aftertar3","w","g","g",1,0.559997531585395,NA,NA,NA
"experimental",25,18,"hd","lower","nature","w","w","g","g",1,0.472018182277679,NA,NA,NA
"experimental",25,19,"hd","lower","halms","w","nw","h","g",0,0.523301617242396,NA,NA,NA
"experimental",25,20,"hd","lower","gepealed","nw","nw","h","h",1,0.564664598088712,NA,NA,NA
"experimental",25,21,"hd","lower","bypassed","nw","w","g","g",1,0.804777333047241,NA,NA,NA
"experimental",25,22,"hd","lower","slowning","w","nw","h","h",1,1.49065532721579,NA,NA,NA
"experimental",25,23,"hd","lower","ebuating","nw","nw","h","h",1,1.18948801467195,NA,NA,NA
"experimental",25,24,"hd","lower","regiment","nw","w","g","g",1,1.07650342583656,NA,NA,NA
"experimental",25,25,"hd","lower","illness","w","w","g","g",1,0.599535665009171,NA,NA,NA
"experimental",25,26,"hd","lower","volume","w","w","g","g",1,0.646127534564584,NA,NA,NA
"experimental",25,27,"hd","lower","thrapping","w","nw","h","h",1,1.09030532231554,NA,NA,NA
"experimental",25,28,"hd","lower","lawsuit","nw","w","g","g",1,0.661380833480507,NA,NA,NA
"experimental",25,29,"hd","lower","goblet","w","w","g","h",0,0.921440418809652,NA,NA,NA
"experimental",25,30,"hd","lower","alchemist","w","w","g","g",1,0.95475612860173,NA,NA,NA
"experimental",26,1,"hd","lower","slutches","nw","nw","h","h",1,0.77879511192441,NA,NA,NA
"experimental",26,2,"hd","lower","exit","w","w","g","g",1,0.658130737952888,NA,NA,NA
"experimental",26,3,"hd","lower","slooch","nw","nw","h","h",1,0.918164500035346,NA,NA,NA
"experimental",26,4,"hd","lower","harder","w","w","g","g",1,0.615538170561194,NA,NA,NA
"experimental",26,5,"hd","lower","antique","w","w","g","g",1,0.653581862803549,NA,NA,NA
"experimental",26,6,"hd","lower","shivering","w","w","g","g",1,0.801626227330416,NA,NA,NA
"experimental",26,7,"hd","lower","loneliest","w","w","g","g",1,0.759644811507314,NA,NA,NA
"experimental",26,8,"hd","lower","gelfry","nw","nw","h","h",1,0.606860214844346,NA,NA,NA
"experimental",26,9,"hd","lower","butled","nw","nw","h","h",1,0.7088927407749,NA,NA,NA
"experimental",26,10,"hd","lower","cegalia","nw","nw","h","h",1,0.798777718096972,NA,NA,NA
"experimental",26,11,"hd","lower","argue","w","w","g","g",1,0.685491526033729,NA,NA,NA
"experimental",26,12,"hd","lower","tritical","nw","nw","h","h",1,0.656123803462833,NA,NA,NA
"experimental",26,13,"hd","lower","stuggard","nw","nw","h","h",1,0.612172532826662,NA,NA,NA
"experimental",26,14,"hd","lower","teliever","nw","nw","h","h",1,0.746269993018359,NA,NA,NA
"experimental",26,15,"hd","lower","glocked","nw","nw","h","h",1,0.627012326847762,NA,NA,NA
"experimental",26,16,"hd","lower","valif","nw","nw","h","h",1,0.552306820638478,NA,NA,NA
"experimental",26,17,"hd","lower","earnest","w","w","g","g",1,0.624220099300146,NA,NA,NA
"experimental",26,18,"hd","lower","fisco","nw","nw","h","h",1,0.716817516833544,NA,NA,NA
"experimental",26,19,"hd","lower","dabble","w","w","g","g",1,0.702805723529309,NA,NA,NA
"experimental",26,20,"hd","lower","lightels","nw","nw","h","h",1,0.672889751847833,NA,NA,NA
"experimental",26,21,"hd","lower","expensive","w","w","g","g",1,0.644182178657502,NA,NA,NA
"experimental",26,22,"hd","lower","single","w","w","g","g",1,0.6729850997217,NA,NA,NA
"experimental",26,23,"hd","lower","filter","w","w","g","g",1,0.812367068603635,NA,NA,NA
"experimental",26,24,"hd","lower","minimum","w","w","g","g",1,0.754422544036061,NA,NA,NA
"experimental",26,25,"hd","lower","exclusion","w","w","g","g",1,0.594452776946127,NA,NA,NA
"experimental",26,26,"hd","lower","huffle","nw","nw","h","h",1,0.69714942574501,NA,NA,NA
"experimental",26,27,"hd","lower","erlighten","nw","nw","h","h",1,0.706937121693045,NA,NA,NA
"experimental",26,28,"hd","lower","crocodile","target","target","q","g",0,1.46094329375774,NA,NA,NA
"experimental",26,29,"hd","lower","fallacy","aftertar1","w","g","q",0,0.0969475405290723,NA,NA,1
"experimental",26,30,"hd","lower","foster","aftertar2","w","g","g",1,1.69978042365983,NA,NA,NA
"experimental",27,1,"ld","upper","unversed","w","w","g","h",0,0.926324003376067,NA,NA,NA
"experimental",27,2,"ld","upper","terming","w","w","g","h",0,1.38363625435159,NA,NA,NA
"experimental",27,3,"ld","upper","plunging","w","w","g","g",1,0.559091398492455,NA,NA,NA
"experimental",27,4,"ld","upper","presently","w","w","g","g",1,0.631055992562324,NA,NA,NA
"experimental",27,5,"ld","upper","tyena","nw","nw","h","h",1,0.732489947229624,NA,NA,NA
"experimental",27,6,"ld","upper","halents","nw","nw","h","h",1,0.6138003943488,NA,NA,NA
"experimental",27,7,"ld","upper","amplifier","w","w","g","g",1,0.764026497025043,NA,NA,NA
"experimental",27,8,"ld","upper","unmarked","w","w","g","g",1,0.595827702432871,NA,NA,NA
"experimental",27,9,"ld","upper","stranded","w","w","g","g",1,0.841007103677839,NA,NA,NA
"experimental",27,10,"ld","upper","prame","nw","nw","h","h",1,0.630429943092167,NA,NA,NA
"experimental",27,11,"ld","upper","riosk","nw","nw","h","h",1,0.587620856706053,NA,NA,NA
"experimental",27,12,"ld","upper","mennel","nw","nw","h","h",1,0.818360393401235,NA,NA,NA
"experimental",27,13,"ld","upper","pollute","w","w","g","g",1,0.679761400446296,NA,NA,NA
"experimental",27,14,"ld","upper","noblest","w","w","g","g",1,0.579135251231492,NA,NA,NA
"experimental",27,15,"ld","upper","slending","nw","nw","h","g",0,0.442488566972315,NA,NA,NA
"experimental",27,16,"ld","upper","unlined","w","w","g","g",1,0.519389054737985,NA,NA,NA
"experimental",27,17,"ld","upper","hatred","w","w","g","h",0,0.552592201158404,NA,NA,NA
"experimental",27,18,"ld","upper","graiking","nw","nw","h","h",1,0.696649844292551,NA,NA,NA
"experimental",27,19,"ld","upper","elormity","nw","nw","h","h",1,0.530535454396158,NA,NA,NA
"experimental",27,20,"ld","upper","grested","nw","nw","h","h",1,0.859749528579414,NA,NA,NA
"experimental",27,21,"ld","upper","seartfelt","nw","nw","h","h",1,1.44779956061393,NA,NA,NA
"experimental",27,22,"ld","upper","ecistle","nw","nw","h","h",1,0.612477446440607,NA,NA,NA
"experimental",27,23,"ld","upper","flacked","nw","nw","h","g",0,0.722567175980657,NA,NA,NA
"experimental",27,24,"ld","upper","ifling","nw","nw","h","h",1,0.644002408720553,NA,NA,NA
"experimental",27,25,"ld","upper","abstain","w","w","g","g",1,0.640618893317878,NA,NA,NA
"experimental",27,26,"ld","upper","togglo","nw","nw","h","h",1,0.596923206932843,NA,NA,NA
"experimental",27,27,"ld","upper","glating","nw","nw","h","h",1,0.692037735134363,NA,NA,NA
"experimental",27,28,"ld","upper","emission","w","w","g","g",1,0.605799472890794,NA,NA,NA
"experimental",27,29,"ld","upper","mystery","w","w","g","g",1,0.507790085859597,NA,NA,NA
"experimental",27,30,"ld","upper","derived","w","w","g","g",1,0.477695005945861,NA,NA,NA
"experimental",28,1,"ld","upper","shimble","nw","nw","h","h",1,0.657320945523679,NA,NA,NA
"experimental",28,2,"ld","upper","previous","w","w","g","g",1,0.564407689031214,NA,NA,NA
"experimental",28,3,"ld","upper","tiery","nw","nw","h","h",1,0.597105625551194,NA,NA,NA
"experimental",28,4,"ld","upper","spiud","nw","nw","h","h",1,0.819710488896817,NA,NA,NA
"experimental",28,5,"ld","upper","exemplify","w","w","g","g",1,0.673029131721705,NA,NA,NA
"experimental",28,6,"ld","upper","curtail","w","w","g","g",1,0.708469635806978,NA,NA,NA
"experimental",28,7,"ld","upper","overwork","w","w","g","g",1,0.558533879928291,NA,NA,NA
"experimental",28,8,"ld","upper","preserve","w","w","g","g",1,0.45455963909626,NA,NA,NA
"experimental",28,9,"ld","upper","unrealon","nw","nw","h","h",1,0.634619277901947,NA,NA,NA
"experimental",28,10,"ld","upper","dontrite","nw","nw","h","h",1,0.679379017092288,NA,NA,NA
"experimental",28,11,"ld","upper","volder","nw","nw","h","h",1,0.642702635843307,NA,NA,NA
"experimental",28,12,"ld","upper","usually","w","w","g","g",1,0.542475754395127,NA,NA,NA
"experimental",28,13,"ld","upper","squirrel","target","target","q","q",1,1.07913839677349,1,NA,NA
"experimental",28,14,"ld","upper","submit","aftertar1","w","g","g",1,0.634461689740419,NA,NA,NA
"experimental",28,15,"ld","upper","minister","aftertar2","w","g","g",1,0.631153988651931,NA,NA,NA
"experimental",28,16,"ld","upper","peems","aftertar3","nw","h","h",1,0.740571980830282,NA,NA,NA
"experimental",28,17,"ld","upper","parlayid","nw","nw","h","h",1,0.933281067758799,NA,NA,NA
"experimental",28,18,"ld","upper","ringlat","nw","nw","h","h",1,0.590651453938335,NA,NA,NA
"experimental",28,19,"ld","upper","vaporize","nw","w","g","g",1,0.661349381320179,NA,NA,NA
"experimental",28,20,"ld","upper","committed","w","w","g","g",1,0.481345031410456,NA,NA,NA
"experimental",28,21,"ld","upper","smabled","w","nw","h","h",1,0.604046467225999,NA,NA,NA
"experimental",28,22,"ld","upper","static","nw","w","g","g",1,0.497794478666037,NA,NA,NA
"experimental",28,23,"ld","upper","gumdrep","w","nw","h","h",1,0.58844190556556,NA,NA,NA
"experimental",28,24,"ld","upper","checkout","nw","w","g","g",1,0.483246024232358,NA,NA,NA
"experimental",28,25,"ld","upper","fetching","w","w","g","g",1,0.678521881811321,NA,NA,NA
"experimental",28,26,"ld","upper","brimitar","w","nw","h","h",1,0.553835693281144,NA,NA,NA
"experimental",28,27,"ld","upper","formation","nw","w","g","g",1,0.561900510918349,NA,NA,NA
"experimental",28,28,"ld","upper","ronvince","w","nw","h","h",1,0.561563482973725,NA,NA,NA
"experimental",28,29,"ld","upper","beartiset","nw","nw","h","h",1,0.698098598048091,NA,NA,NA
"experimental",28,30,"ld","upper","reloant","nw","nw","h","h",1,0.716930741909891,NA,NA,NA
"experimental",29,1,"hd","lower","glates","nw","nw","h","h",1,0.766105604358017,NA,NA,NA
"experimental",29,2,"hd","lower","wrecber","nw","nw","h","h",1,0.558232938870788,NA,NA,NA
"experimental",29,3,"hd","lower","susher","nw","nw","h","g",0,0.622079412918538,NA,NA,NA
"experimental",29,4,"hd","lower","snocks","nw","nw","h","h",1,0.963416206650436,NA,NA,NA
"experimental",29,5,"hd","lower","violate","w","w","g","g",1,0.650658863130957,NA,NA,NA
"experimental",29,6,"hd","lower","congraks","nw","nw","h","h",1,0.542679030448198,NA,NA,NA
"experimental",29,7,"hd","lower","yellep","nw","nw","h","h",1,0.583263007923961,NA,NA,NA
"experimental",29,8,"hd","lower","baladroit","nw","nw","h","h",1,0.862656637094915,NA,NA,NA
"experimental",29,9,"hd","lower","guitar","w","w","g","g",1,0.810721991118044,NA,NA,NA
"experimental",29,10,"hd","lower","acoustic","w","w","g","g",1,0.520776229910553,NA,NA,NA
"experimental",29,11,"hd","lower","regional","w","w","g","g",1,0.514099911786616,NA,NA,NA
"experimental",29,12,"hd","lower","contact","w","w","g","g",1,0.492128248792142,NA,NA,NA
"experimental",29,13,"hd","lower","attract","w","w","g","g",1,0.462815483566374,NA,NA,NA
"experimental",29,14,"hd","lower","soluced","nw","nw","h","h",1,0.922888841945678,NA,NA,NA
"experimental",29,15,"hd","lower","felevance","nw","nw","h","h",1,0.651314377784729,NA,NA,NA
"experimental",29,16,"hd","lower","rodeo","w","w","g","g",1,1.32725072931498,NA,NA,NA
"experimental",29,17,"hd","lower","puggers","nw","nw","h","h",1,0.728720737621188,NA,NA,NA
"experimental",29,18,"hd","lower","stifle","w","w","g","h",0,0.817965098191053,NA,NA,NA
"experimental",29,19,"hd","lower","bettled","nw","nw","h","h",1,0.991436151321977,NA,NA,NA
"experimental",29,20,"hd","lower","awful","w","w","g","g",1,0.502201325725764,NA,NA,NA
"experimental",29,21,"hd","lower","budget","w","w","g","g",1,0.640830776654184,NA,NA,NA
"experimental",29,22,"hd","lower","brouhuha","nw","nw","h","h",1,0.789510129485279,NA,NA,NA
"experimental",29,23,"hd","lower","bother","w","w","g","g",1,0.491371096577495,NA,NA,NA
"experimental",29,24,"hd","lower","kangaroo","target","target","q","q",1,0.766176453325897,1,NA,NA
"experimental",29,25,"hd","lower","atble","aftertar1","nw","h","h",1,0.814021415542811,NA,NA,NA
"experimental",29,26,"hd","lower","triangle","aftertar2","w","g","g",1,0.500240409281105,NA,NA,NA
"experimental",29,27,"hd","lower","preight","aftertar3","nw","h","h",1,0.654758147429675,NA,NA,NA
"experimental",29,28,"hd","lower","maroon","nw","w","g","g",1,0.666911656036973,NA,NA,NA
"experimental",29,29,"hd","lower","combat","w","w","g","g",1,0.582892873790115,NA,NA,NA
"experimental",29,30,"hd","lower","shazer","w","nw","h","h",1,0.638271620962769,NA,NA,NA
"experimental",30,1,"ld","upper","migmarole","nw","nw","h","h",1,0.730769718065858,NA,NA,NA
"experimental",30,2,"ld","upper","plashed","nw","nw","h","h",1,0.716192460618913,NA,NA,NA
"experimental",30,3,"ld","upper","scatter","w","w","g","g",1,0.574357277248055,NA,NA,NA
"experimental",30,4,"ld","upper","sefine","nw","nw","h","h",1,0.629556916188449,NA,NA,NA
"experimental",30,5,"ld","upper","deakers","nw","nw","h","h",1,0.618933273479342,NA,NA,NA
"experimental",30,6,"ld","upper","jinds","nw","nw","h","h",1,0.568302373401821,NA,NA,NA
"experimental",30,7,"ld","upper","hodels","nw","nw","h","h",1,0.623608616646379,NA,NA,NA
"experimental",30,8,"ld","upper","podes","nw","nw","h","h",1,0.492124607320875,NA,NA,NA
"experimental",30,9,"ld","upper","fomrade","nw","nw","h","h",1,0.574814482126385,NA,NA,NA
"experimental",30,10,"ld","upper","dazid","nw","nw","h","h",1,0.542066885624081,NA,NA,NA
"experimental",30,11,"ld","upper","atch","nw","nw","h","h",1,0.718735062982887,NA,NA,NA
"experimental",30,12,"ld","upper","dealer","w","w","g","g",1,0.791826281696558,NA,NA,NA
"experimental",30,13,"ld","upper","nimp","nw","nw","h","g",0,0.694880947470665,NA,NA,NA
"experimental",30,14,"ld","upper","amms","nw","nw","h","h",1,0.537568994797766,NA,NA,NA
"experimental",30,15,"ld","upper","strenuous","w","w","g","g",1,0.601651520933956,NA,NA,NA
"experimental",30,16,"ld","upper","presence","w","w","g","g",1,0.672316341660917,NA,NA,NA
"experimental",30,17,"ld","upper","repayment","w","w","g","g",1,0.56285233143717,NA,NA,NA
"experimental",30,18,"ld","upper","inducing","w","w","g","g",1,0.530856259167194,NA,NA,NA
"experimental",30,19,"ld","upper","ethical","w","w","g","g",1,0.428121868986636,NA,NA,NA
"experimental",30,20,"ld","upper","emotion","w","w","g","g",1,0.545514959376305,NA,NA,NA
"experimental",30,21,"ld","upper","sequence","w","w","g","g",1,0.498245062306523,NA,NA,NA
"experimental",30,22,"ld","upper","suspect","w","w","g","g",1,0.492864875588566,NA,NA,NA
"experimental",30,23,"ld","upper","cabinet","w","w","g","g",1,0.575635530985892,NA,NA,NA
"experimental",30,24,"ld","upper","joses","nw","nw","h","h",1,0.519038784783334,NA,NA,NA
"experimental",30,25,"ld","upper","metebing","nw","nw","h","h",1,0.65639329329133,NA,NA,NA
"experimental",30,26,"ld","upper","retain","w","w","g","g",1,0.540432733949274,NA,NA,NA
"experimental",30,27,"ld","upper","apticle","nw","nw","h","h",1,0.58821777254343,NA,NA,NA
"experimental",30,28,"ld","upper","mortgage","w","w","g","g",1,0.546875649131835,NA,NA,NA
"experimental",30,29,"ld","upper","expected","w","w","g","g",1,0.531638241838664,NA,NA,NA
"experimental",30,30,"ld","upper","intersect","w","w","g","g",1,0.949060102459043,NA,NA,NA
"experimental",31,1,"hd","lower","rivet","w","w","g","h",0,0.750618241261691,NA,NA,NA
"experimental",31,2,"hd","lower","issue","w","w","g","g",1,0.590453806333244,NA,NA,NA
"experimental",31,3,"hd","lower","gontracts","nw","nw","h","h",1,0.564311679452658,NA,NA,NA
"experimental",31,4,"hd","lower","arrival","w","w","g","g",1,0.484201155602932,NA,NA,NA
"experimental",31,5,"hd","lower","audience","w","w","g","g",1,0.558872562367469,NA,NA,NA
"experimental",31,6,"hd","lower","ofsters","nw","nw","h","h",1,0.630517676007003,NA,NA,NA
"experimental",31,7,"hd","lower","fatho","nw","nw","h","h",1,0.540268855169415,NA,NA,NA
"experimental",31,8,"hd","lower","quittint","nw","nw","h","h",1,0.580821050330997,NA,NA,NA
"experimental",31,9,"hd","lower","mitro","nw","nw","h","h",1,0.62839321186766,NA,NA,NA
"experimental",31,10,"hd","lower","saturate","w","w","g","g",1,0.561772387009114,NA,NA,NA
"experimental",31,11,"hd","lower","practice","w","w","g","g",1,0.457650821655989,NA,NA,NA
"experimental",31,12,"hd","lower","humanize","w","w","g","g",1,0.42895351164043,NA,NA,NA
"experimental",31,13,"hd","lower","insertion","w","w","g","g",1,0.690306580159813,NA,NA,NA
"experimental",31,14,"hd","lower","huests","nw","nw","h","h",1,0.573029363062233,NA,NA,NA
"experimental",31,15,"hd","lower","slears","nw","nw","h","h",1,0.932505706325173,NA,NA,NA
"experimental",31,16,"hd","lower","frunted","nw","nw","h","h",1,0.509769872762263,NA,NA,NA
"experimental",31,17,"hd","lower","digar","nw","nw","h","h",1,0.52774951653555,NA,NA,NA
"experimental",31,18,"hd","lower","frader","nw","nw","h","h",1,0.649193556047976,NA,NA,NA
"experimental",31,19,"hd","lower","brother","w","w","g","h",0,0.413830984849483,NA,NA,NA
"experimental",31,20,"hd","lower","primal","w","w","g","g",1,0.683871610090137,NA,NA,NA
"experimental",31,21,"hd","lower","tucker","w","w","g","g",1,0.78169261990115,NA,NA,NA
"experimental",31,22,"hd","lower","draze","nw","nw","h","h",1,0.845021634828299,NA,NA,NA
"experimental",31,23,"hd","lower","probable","w","w","g","g",1,0.649737501051277,NA,NA,NA
"experimental",31,24,"hd","lower","rearrange","w","w","g","g",1,0.630337905604392,NA,NA,NA
"experimental",31,25,"hd","lower","talate","nw","nw","h","h",1,0.651715963147581,NA,NA,NA
"experimental",31,26,"hd","lower","shests","nw","nw","h","h",1,0.671735648531467,NA,NA,NA
"experimental",31,27,"hd","lower","theles","nw","nw","h","h",1,0.483308596070856,NA,NA,NA
"experimental",31,28,"hd","lower","unamufed","nw","nw","h","h",1,0.638301416765898,NA,NA,NA
"experimental",31,29,"hd","lower","defeat","w","w","g","g",1,0.890345844905823,NA,NA,NA
"experimental",31,30,"hd","lower","elephant","target","target","q","q",1,0.661011361051351,1,NA,NA
"experimental",32,1,"hd","lower","gaining","w","w","g","g",1,1.0896696713753,NA,NA,NA
"experimental",32,2,"hd","lower","punctual","w","w","g","g",1,1.21249525761232,NA,NA,NA
"experimental",32,3,"hd","lower","rumblos","nw","nw","h","h",1,1.2425519330427,NA,NA,NA
"experimental",32,4,"hd","lower","frose","nw","nw","h","h",1,0.870349996257573,NA,NA,NA
"experimental",32,5,"hd","lower","courier","w","w","g","g",1,0.697703633457422,NA,NA,NA
"experimental",32,6,"hd","lower","gairs","nw","nw","h","h",1,1.42846551723778,NA,NA,NA
"experimental",32,7,"hd","lower","heaviest","w","w","g","g",1,0.665747620631009,NA,NA,NA
"experimental",32,8,"hd","lower","outrank","w","w","g","g",1,1.07776247803122,NA,NA,NA
"experimental",32,9,"hd","lower","eightiech","nw","nw","h","h",1,0.729194496292621,NA,NA,NA
"experimental",32,10,"hd","lower","handed","w","w","g","g",1,0.930571606848389,NA,NA,NA
"experimental",32,11,"hd","lower","fictional","w","w","g","g",1,0.483897234778851,NA,NA,NA
"experimental",32,12,"hd","lower","aicline","nw","nw","h","h",1,0.566024625208229,NA,NA,NA
"experimental",32,13,"hd","lower","deadly","w","w","g","g",1,0.541102153249085,NA,NA,NA
"experimental",32,14,"hd","lower","sweeping","w","w","g","g",1,0.621729474049062,NA,NA,NA
"experimental",32,15,"hd","lower","trewl","nw","nw","h","h",1,0.515074906870723,NA,NA,NA
"experimental",32,16,"hd","lower","cassette","w","w","g","g",1,1.10109681636095,NA,NA,NA
"experimental",32,17,"hd","lower","senior","w","w","g","g",1,0.431115717161447,NA,NA,NA
"experimental",32,18,"hd","lower","ebince","nw","nw","h","h",1,0.580431713722646,NA,NA,NA
"experimental",32,19,"hd","lower","blassed","nw","nw","h","g",0,0.539832176174968,NA,NA,NA
"experimental",32,20,"hd","lower","entropy","w","w","g","g",1,0.556543167214841,NA,NA,NA
"experimental",32,21,"hd","lower","dialect","w","w","g","g",1,0.604588756803423,NA,NA,NA
"experimental",32,22,"hd","lower","bailmenz","nw","nw","h","h",1,0.505653703585267,NA,NA,NA
"experimental",32,23,"hd","lower","porghum","nw","nw","h","h",1,0.539693127851933,NA,NA,NA
"experimental",32,24,"hd","lower","etber","nw","nw","h","h",1,0.564454038161784,NA,NA,NA
"experimental",32,25,"hd","lower","mantos","nw","nw","h","h",1,0.516474662814289,NA,NA,NA
"experimental",32,26,"hd","lower","gackpedal","nw","nw","h","h",1,0.654443633276969,NA,NA,NA
"experimental",32,27,"hd","lower","rander","nw","nw","h","h",1,0.514593865256757,NA,NA,NA
"experimental",32,28,"hd","lower","inside","w","w","g","h",0,0.428539014421403,NA,NA,NA
"experimental",32,29,"hd","lower","godomy","nw","nw","h","h",1,0.777957841288298,NA,NA,NA
"experimental",32,30,"hd","lower","outset","w","w","g","g",1,0.441306985449046,NA,NA,NA
"experimental",33,1,"ld","upper","sheerio","nw","nw","h","h",1,0.733894007280469,NA,NA,NA
"experimental",33,2,"ld","upper","rootsie","nw","nw","h","h",1,0.670554398093373,NA,NA,NA
"experimental",33,3,"ld","upper","undue","w","w","g","h",0,0.690198651980609,NA,NA,NA
"experimental",33,4,"ld","upper","flooted","nw","nw","h","g",0,0.548644214868546,NA,NA,NA
"experimental",33,5,"ld","upper","century","w","w","g","g",1,0.517479123082012,NA,NA,NA
"experimental",33,6,"ld","upper","pallir","nw","nw","h","h",1,0.614715466275811,NA,NA,NA
"experimental",33,7,"ld","upper","cheathe","nw","nw","h","h",1,1.3238744973205,NA,NA,NA
"experimental",33,8,"ld","upper","antonym","w","w","g","g",1,0.549326876644045,NA,NA,NA
"experimental",33,9,"ld","upper","forgive","w","w","g","g",1,0.693915552925318,NA,NA,NA
"experimental",33,10,"ld","upper","otiates","nw","nw","h","h",1,0.696696193423122,NA,NA,NA
"experimental",33,11,"ld","upper","garment","w","w","g","g",1,0.835269363131374,NA,NA,NA
"experimental",33,12,"ld","upper","rejoiced","w","w","g","g",1,0.783985928166658,NA,NA,NA
"experimental",33,13,"ld","upper","epthuse","nw","nw","h","h",1,0.670655373483896,NA,NA,NA
"experimental",33,14,"ld","upper","dreaded","w","w","g","g",1,0.553987652994692,NA,NA,NA
"experimental",33,15,"ld","upper","rangel","nw","nw","h","h",1,0.617283230647445,NA,NA,NA
"experimental",33,16,"ld","upper","breiled","nw","nw","h","h",1,0.566553340759128,NA,NA,NA
"experimental",33,17,"ld","upper","expounded","w","w","g","g",1,0.789711087942123,NA,NA,NA
"experimental",33,18,"ld","upper","suburb","w","w","g","g",1,0.611996073275805,NA,NA,NA
"experimental",33,19,"ld","upper","finish","w","w","g","g",1,0.739281146321446,NA,NA,NA
"experimental",33,20,"ld","upper","lutton","nw","nw","h","h",1,0.771993650123477,NA,NA,NA
"experimental",33,21,"ld","upper","erony","nw","nw","h","h",1,0.795556426048279,NA,NA,NA
"experimental",33,22,"ld","upper","ufionize","nw","nw","h","h",1,0.650245359167457,NA,NA,NA
"experimental",33,23,"ld","upper","condensed","w","w","g","g",1,0.702774934470654,NA,NA,NA
"experimental",33,24,"ld","upper","hangar","w","w","g","h",0,0.920064168982208,NA,NA,NA
"experimental",33,25,"ld","upper","ganter","nw","nw","h","h",1,0.793339262716472,NA,NA,NA
"experimental",33,26,"ld","upper","burrowing","w","w","g","g",1,0.791963013354689,NA,NA,NA
"experimental",33,27,"ld","upper","integral","w","w","g","g",1,0.606658594217151,NA,NA,NA
"experimental",33,28,"ld","upper","pranny","nw","nw","h","h",1,0.692809785716236,NA,NA,NA
"experimental",33,29,"ld","upper","browting","nw","nw","h","h",1,0.703410584945232,NA,NA,NA
"experimental",33,30,"ld","upper","cookbook","w","w","g","g",1,0.545498737134039,NA,NA,NA
"experimental",34,1,"ld","upper","maiden","w","w","g","g",1,0.882045306731015,NA,NA,NA
"experimental",34,2,"ld","upper","pastnoss","nw","nw","h","h",1,0.541379919741303,NA,NA,NA
"experimental",34,3,"ld","upper","ulcer","w","w","g","h",0,0.534012992866337,NA,NA,NA
"experimental",34,4,"ld","upper","padicals","nw","nw","h","h",1,0.990759779233486,NA,NA,NA
"experimental",34,5,"ld","upper","oalis","nw","nw","h","h",1,0.773469882551581,NA,NA,NA
"experimental",34,6,"ld","upper","kraums","nw","nw","h","h",1,0.668895084410906,NA,NA,NA
"experimental",34,7,"ld","upper","rainfall","w","w","g","g",1,0.703492689877748,NA,NA,NA
"experimental",34,8,"ld","upper","sazer","nw","nw","h","h",1,0.609385270625353,NA,NA,NA
"experimental",34,9,"ld","upper","railway","w","w","g","g",1,0.607331986539066,NA,NA,NA
"experimental",34,10,"ld","upper","disease","w","w","g","g",1,0.581356386654079,NA,NA,NA
"experimental",34,11,"ld","upper","season","w","w","g","g",1,0.516727267298847,NA,NA,NA
"experimental",34,12,"ld","upper","trises","nw","nw","h","h",1,0.566708280704916,NA,NA,NA
"experimental",34,13,"ld","upper","cartles","nw","nw","h","g",0,0.982882014941424,NA,NA,NA
"experimental",34,14,"ld","upper","refebs","nw","nw","h","h",1,0.510030753910542,NA,NA,NA
"experimental",34,15,"ld","upper","target","w","w","g","g",1,0.576244365423918,NA,NA,NA
"experimental",34,16,"ld","upper","chemical","w","w","g","g",1,0.463839476928115,NA,NA,NA
"experimental",34,17,"ld","upper","obtuse","w","w","g","g",1,0.50762256514281,NA,NA,NA
"experimental",34,18,"ld","upper","aggepting","nw","nw","h","h",1,0.724799567833543,NA,NA,NA
"experimental",34,19,"ld","upper","eugenifs","nw","nw","h","h",1,0.582053947262466,NA,NA,NA
"experimental",34,20,"ld","upper","realize","w","w","g","g",1,0.541419647634029,NA,NA,NA
"experimental",34,21,"ld","upper","sludding","nw","nw","h","h",1,0.654115544632077,NA,NA,NA
"experimental",34,22,"ld","upper","stalemate","w","w","g","g",1,0.634257089346647,NA,NA,NA
"experimental",34,23,"ld","upper","elpousal","nw","nw","h","h",1,0.622954426333308,NA,NA,NA
"experimental",34,24,"ld","upper","observer","w","w","g","g",1,0.812259471509606,NA,NA,NA
"experimental",34,25,"ld","upper","peags","nw","nw","h","h",1,0.618302257731557,NA,NA,NA
"experimental",34,26,"ld","upper","statute","w","w","g","g",1,1.01571469614282,NA,NA,NA
"experimental",34,27,"ld","upper","unsmilung","nw","nw","h","h",1,0.540773733519018,NA,NA,NA
"experimental",34,28,"ld","upper","prison","w","w","g","g",1,0.621410986408591,NA,NA,NA
"experimental",34,29,"ld","upper","vergas","nw","nw","h","h",1,0.986358891706914,NA,NA,NA
"experimental",34,30,"ld","upper","standard","w","w","g","g",1,0.489411504473537,NA,NA,NA
"experimental",35,1,"hd","lower","turntable","w","w","g","h",0,1.21962249092758,NA,NA,NA
"experimental",35,2,"hd","lower","micron","w","w","g","h",0,0.865349875763059,NA,NA,NA
"experimental",35,3,"hd","lower","cooray","nw","nw","h","h",1,0.501120388507843,NA,NA,NA
"experimental",35,4,"hd","lower","misobeyed","nw","nw","h","g",0,0.783560174517334,NA,NA,NA
"experimental",35,5,"hd","lower","tycoon","w","w","g","h",0,0.686867776326835,NA,NA,NA
"experimental",35,6,"hd","lower","companion","w","w","g","g",1,0.529489610344172,NA,NA,NA
"experimental",35,7,"hd","lower","afternoon","w","w","g","g",1,0.546946497634053,NA,NA,NA
"experimental",35,8,"hd","lower","gradielts","nw","nw","h","h",1,0.843663593754172,NA,NA,NA
"experimental",35,9,"hd","lower","aqueduct","w","w","g","h",0,0.672342496458441,NA,NA,NA
"experimental",35,10,"hd","lower","achieve","w","w","g","g",1,0.731701012235135,NA,NA,NA
"experimental",35,11,"hd","lower","arcients","nw","nw","h","h",1,0.748133243992925,NA,NA,NA
"experimental",35,12,"hd","lower","catgup","nw","nw","h","h",1,0.796794619876891,NA,NA,NA
"experimental",35,13,"hd","lower","lindo","nw","nw","h","h",1,0.691463994327933,NA,NA,NA
"experimental",35,14,"hd","lower","ireology","nw","nw","h","h",1,0.598173982463777,NA,NA,NA
"experimental",35,15,"hd","lower","gounts","nw","nw","h","h",1,0.652911450248212,NA,NA,NA
"experimental",35,16,"hd","lower","drobate","nw","nw","h","h",1,0.536930696107447,NA,NA,NA
"experimental",35,17,"hd","lower","caterpillar","target","target","q","g",0,0.689634511712939,1,1,NA
"experimental",35,18,"hd","lower","helpful","aftertar1","w","g","g",1,0.564377231057733,NA,NA,NA
"experimental",35,19,"hd","lower","snife","aftertar2","nw","h","g",0,0.667541678994894,NA,NA,NA
"experimental",35,20,"hd","lower","hangar","aftertar3","w","g","g",1,0.966878185048699,NA,NA,NA
"experimental",35,21,"hd","lower","shillac","w","nw","h","h",1,0.534772794228047,NA,NA,NA
"experimental",35,22,"hd","lower","figure","nw","w","g","g",1,0.622790878638625,NA,NA,NA
"experimental",35,23,"hd","lower","buaint","w","nw","h","h",1,0.492201745975763,NA,NA,NA
"experimental",35,24,"hd","lower","resent","nw","w","g","g",1,0.51893151877448,NA,NA,NA
"experimental",35,25,"hd","lower","army","w","w","g","g",1,0.480203508399427,NA,NA,NA
"experimental",35,26,"hd","lower","stelled","w","nw","h","h",1,0.747595258522779,NA,NA,NA
"experimental",35,27,"hd","lower","diatonic","nw","w","g","h",0,0.731517600826919,NA,NA,NA
"experimental",35,28,"hd","lower","collision","w","w","g","g",1,0.668504755478352,NA,NA,NA
"experimental",35,29,"hd","lower","contusiok","w","nw","h","h",1,0.577115074265748,NA,NA,NA
"experimental",35,30,"hd","lower","funtair","nw","nw","h","g",0,0.391723584383726,NA,NA,NA
"experimental",36,1,"hd","lower","ubefully","nw","nw","h","h",1,0.70309573924169,NA,NA,NA
"experimental",36,2,"hd","lower","index","w","w","g","h",0,0.47317824466154,NA,NA,NA
"experimental",36,3,"hd","lower","recipus","nw","nw","h","h",1,0.844452198129147,NA,NA,NA
"experimental",36,4,"hd","lower","recollect","w","w","g","g",1,0.568264963105321,NA,NA,NA
"experimental",36,5,"hd","lower","lavilion","nw","nw","h","h",1,0.695585460402071,NA,NA,NA
"experimental",36,6,"hd","lower","hanling","nw","nw","h","h",1,0.714254388120025,NA,NA,NA
"experimental",36,7,"hd","lower","addition","w","w","g","g",1,0.65232247998938,NA,NA,NA
"experimental",36,8,"hd","lower","bloodless","w","w","g","g",1,0.680302696768194,NA,NA,NA
"experimental",36,9,"hd","lower","filny","nw","nw","h","h",1,0.603682623710483,NA,NA,NA
"experimental",36,10,"hd","lower","system","w","w","g","g",1,0.618070510216057,NA,NA,NA
"experimental",36,11,"hd","lower","maintain","w","w","g","g",1,0.51006419211626,NA,NA,NA
"experimental",36,12,"hd","lower","cherry","w","w","g","g",1,0.559763135388494,NA,NA,NA
"experimental",36,13,"hd","lower","sooled","nw","nw","h","h",1,0.799530897755176,NA,NA,NA
"experimental",36,14,"hd","lower","dricked","nw","nw","h","h",1,0.806393607519567,NA,NA,NA
"experimental",36,15,"hd","lower","miability","nw","nw","h","h",1,0.804258218500763,NA,NA,NA
"experimental",36,16,"hd","lower","crazy","w","w","g","g",1,0.506320805288851,NA,NA,NA
"experimental",36,17,"hd","lower","alomalous","nw","nw","h","h",1,0.628290912136436,NA,NA,NA
"experimental",36,18,"hd","lower","corduroy","w","w","g","h",0,0.537595811765641,NA,NA,NA
"experimental",36,19,"hd","lower","colicky","w","w","g","h",0,0.754413936287165,NA,NA,NA
"experimental",36,20,"hd","lower","alticles","nw","nw","h","h",1,0.945700092706829,NA,NA,NA
"experimental",36,21,"hd","lower","dolphin","target","target","q","q",1,0.874549264088273,1,NA,NA
"experimental",36,22,"hd","lower","ottans","aftertar1","nw","h","h",1,0.621007083915174,NA,NA,NA
"experimental",36,23,"hd","lower","tusied","aftertar2","nw","h","h",1,0.698292604181916,NA,NA,NA
"experimental",36,24,"hd","lower","govern","aftertar3","w","g","g",1,0.636987076606601,NA,NA,NA
"experimental",36,25,"hd","lower","criminal","w","w","g","g",1,0.577678552363068,NA,NA,NA
"experimental",36,26,"hd","lower","abhorrent","w","w","g","g",1,0.777017938904464,NA,NA,NA
"experimental",36,27,"hd","lower","marvel","w","w","g","g",1,0.616411859169602,NA,NA,NA
"experimental",36,28,"hd","lower","chight","w","nw","h","h",1,0.670561681035906,NA,NA,NA
"experimental",36,29,"hd","lower","fudden","nw","nw","h","h",1,0.617745070252568,NA,NA,NA
"experimental",36,30,"hd","lower","scrooner","nw","nw","h","h",1,0.703192411456257,NA,NA,NA
"experimental",37,1,"ld","upper","ahead","w","w","g","g",1,0.969051647000015,NA,NA,NA
"experimental",37,2,"ld","upper","omners","nw","nw","h","h",1,0.456435470841825,NA,NA,NA
"experimental",37,3,"ld","upper","aefated","nw","nw","h","h",1,0.595955163706094,NA,NA,NA
"experimental",37,4,"ld","upper","seasoning","w","w","g","g",1,0.667188428808004,NA,NA,NA
"experimental",37,5,"ld","upper","lecked","nw","nw","h","h",1,0.582574386149645,NA,NA,NA
"experimental",37,6,"ld","upper","forgery","w","w","g","g",1,0.917837405111641,NA,NA,NA
"experimental",37,7,"ld","upper","reconcile","w","w","g","g",1,0.590304825920612,NA,NA,NA
