"procedure","block","trial","PMdemand","context","stim","role","word_type","correct_key","response","correct","reaction_time","pressedQ","pressedQ_blank","pressedQ_fix"
"LDTpractice",1,1,NA,"upper","hasking","","nw","h","g",0,0.920222807209939,NA,NA,NA
"LDTpractice",2,1,NA,"upper","reputable","","w","g","g",1,0.713219857309014,NA,NA,NA
"LDTpractice",3,1,NA,"upper","trotch","","nw","h","h",1,1.02583914529532,NA,NA,NA
"LDTpractice",4,1,NA,"upper","crinklo","","nw","h","h",1,0.85530003067106,NA,NA,NA
"LDTpractice",5,1,NA,"upper","julled","","nw","h","h",1,0.800934020895511,NA,NA,NA
"LDTpractice",6,1,NA,"upper","overshoot","","w","g","g",1,0.729693803936243,NA,NA,NA
"LDTpractice",7,1,NA,"upper","unscrew","","w","g","g",1,0.777073945850134,NA,NA,NA
"LDTpractice",8,1,NA,"upper","umpire","","w","g","h",0,0.817705266177654,NA,NA,NA
"LDTpractice",9,1,NA,"upper","summary","","w","g","g",1,0.576186816208065,NA,NA,NA
"LDTpractice",10,1,NA,"upper","slumber","","w","g","g",1,1.01471426524222,NA,NA,NA
"LDTpractice",11,1,NA,"upper","infinity","","w","g","g",1,0.756681809201837,NA,NA,NA
"LDTpractice",12,1,NA,"upper","alolition","","nw","h","h",1,0.572861568536609,NA,NA,NA
"LDTpractice",13,1,NA,"upper","curlecs","","nw","h","h",1,0.900245829951018,NA,NA,NA
"LDTpractice",14,1,NA,"upper","turative","","nw","h","h",1,0.838979037944227,NA,NA,NA
"LDTpractice",1,2,NA,"lower","raestro","","nw","h","h",1,0.715449931565672,NA,NA,NA
"LDTpractice",2,2,NA,"lower","busted","","w","g","g",1,0.757487960159779,NA,NA,NA
"LDTpractice",3,2,NA,"lower","treeps","","nw","h","h",1,0.66161363106221,NA,NA,NA
"LDTpractice",4,2,NA,"lower","grocus","","nw","h","h",1,0.632768332958221,NA,NA,NA
"LDTpractice",5,2,NA,"lower","lumbigo","","nw","h","h",1,0.790011423639953,NA,NA,NA
"LDTpractice",6,2,NA,"lower","hiring","","w","g","g",1,0.556798808742315,NA,NA,NA
"LDTpractice",7,2,NA,"lower","grimace","","w","g","g",1,0.981387961655855,NA,NA,NA
"LDTpractice",8,2,NA,"lower","sponsor","","w","g","g",1,0.540795309934765,NA,NA,NA
"LDTpractice",9,2,NA,"lower","revival","","w","g","g",1,0.613518381025642,NA,NA,NA
"LDTpractice",10,2,NA,"lower","tricycle","","w","g","g",1,0.474647250492126,NA,NA,NA
"LDTpractice",11,2,NA,"lower","picture","","w","g","g",1,0.582022552844137,NA,NA,NA
"LDTpractice",12,2,NA,"lower","lurshing","","nw","h","h",1,0.749571460764855,NA,NA,NA
"LDTpractice",13,2,NA,"lower","latador","","nw","h","h",1,0.718031600117683,NA,NA,NA
"LDTpractice",14,2,NA,"lower","grutch","","nw","h","h",1,0.759320421610028,NA,NA,NA
"experimental",1,1,"ld","lower","robbery","w","w","g","g",1,0.857821776065975,NA,NA,NA
"experimental",1,2,"ld","lower","stalemate","w","w","g","h",0,0.918572764378041,NA,NA,NA
"experimental",1,3,"ld","lower","aggepting","nw","nw","h","h",1,0.808506540488452,NA,NA,NA
"experimental",1,4,"ld","lower","unbridled","w","w","g","g",1,0.94327971059829,NA,NA,NA
"experimental",1,5,"ld","lower","offonents","nw","nw","h","h",1,0.75266628479585,NA,NA,NA
"experimental",1,6,"ld","lower","bickering","w","w","g","g",1,0.60930487792939,NA,NA,NA
"experimental",1,7,"ld","lower","sorping","nw","nw","h","h",1,0.735980454832315,NA,NA,NA
"experimental",1,8,"ld","lower","elvisages","nw","nw","h","h",1,0.96871600067243,NA,NA,NA
"experimental",1,9,"ld","lower","personify","w","w","g","g",1,0.983947448432446,NA,NA,NA
"experimental",1,10,"ld","lower","eyesight","w","w","g","g",1,0.624415155034512,NA,NA,NA
"experimental",1,11,"ld","lower","schides","nw","nw","h","h",1,0.75857088342309,NA,NA,NA
"experimental",1,12,"ld","lower","official","w","w","g","g",1,0.54327898286283,NA,NA,NA
"experimental",1,13,"ld","lower","bamps","nw","nw","h","h",1,0.704593216534704,NA,NA,NA
"experimental",1,14,"ld","lower","metrol","nw","nw","h","h",1,0.747401640750468,NA,NA,NA
"experimental",1,15,"ld","lower","attrove","nw","nw","h","h",1,0.828671895433217,NA,NA,NA
"experimental",1,16,"ld","lower","dariner","nw","nw","h","h",1,0.834189475979656,NA,NA,NA
"experimental",1,17,"ld","lower","number","w","w","g","g",1,0.55916793178767,NA,NA,NA
"experimental",1,18,"ld","lower","superstar","w","w","g","g",1,0.6238609473221,NA,NA,NA
"experimental",1,19,"ld","lower","rocket","w","w","g","g",1,0.493927660863847,NA,NA,NA
"experimental",1,20,"ld","lower","graveyard","w","w","g","g",1,0.649400530382991,NA,NA,NA
"experimental",1,21,"ld","lower","frowsed","nw","nw","h","h",1,0.630592885427177,NA,NA,NA
"experimental",1,22,"ld","lower","paying","w","w","g","g",1,0.556652807630599,NA,NA,NA
"experimental",1,23,"ld","lower","mubby","nw","nw","h","h",1,0.685533959884197,NA,NA,NA
"experimental",1,24,"ld","lower","sampling","w","w","g","h",0,0.912773775868118,NA,NA,NA
"experimental",1,25,"ld","lower","gounts","nw","nw","h","h",1,0.803360418882221,NA,NA,NA
"experimental",1,26,"ld","lower","helpful","w","w","g","g",1,0.514094340614974,NA,NA,NA
"experimental",1,27,"ld","lower","vibrate","w","w","g","g",1,0.555775477550924,NA,NA,NA
"experimental",1,28,"ld","lower","graciap","nw","nw","h","h",1,0.79652816709131,NA,NA,NA
"experimental",1,29,"ld","lower","dredigest","nw","nw","h","h",1,0.747801570687443,NA,NA,NA
"experimental",1,30,"ld","lower","maunches","nw","nw","h","h",1,0.813168971799314,NA,NA,NA
"experimental",2,1,"hd","upper","ebuating","nw","nw","h","h",1,0.691710696555674,NA,NA,NA
"experimental",2,2,"hd","upper","calcify","w","w","g","g",1,0.734961096197367,NA,NA,NA
"experimental",2,3,"hd","upper","deadly","w","w","g","g",1,0.616450319997966,NA,NA,NA
"experimental",2,4,"hd","upper","purpose","w","w","g","g",1,0.647044650278986,NA,NA,NA
"experimental",2,5,"hd","upper","expensive","w","w","g","g",1,0.771381562110037,NA,NA,NA
"experimental",2,6,"hd","upper","resent","w","w","g","g",1,0.60445009637624,NA,NA,NA
"experimental",2,7,"hd","upper","fictional","w","w","g","g",1,0.539167117327452,NA,NA,NA
"experimental",2,8,"hd","upper","roaned","nw","nw","h","h",1,0.724491400178522,NA,NA,NA
"experimental",2,9,"hd","upper","efficient","w","w","g","g",1,0.638695775996894,NA,NA,NA
"experimental",2,10,"hd","upper","eightiech","nw","nw","h","h",1,0.979982908815146,NA,NA,NA
"experimental",2,11,"hd","upper","contusiok","nw","nw","h","h",1,1.02703198371455,NA,NA,NA
"experimental",2,12,"hd","upper","togglo","nw","nw","h","h",1,0.593042484018952,NA,NA,NA
"experimental",2,13,"hd","upper","egect","nw","nw","h","h",1,0.560626286547631,NA,NA,NA
"experimental",2,14,"hd","upper","checkout","w","w","g","g",1,0.849142827093601,NA,NA,NA
"experimental",2,15,"hd","upper","sequence","w","w","g","g",1,0.533900155685842,NA,NA,NA
"experimental",2,16,"hd","upper","unversed","w","w","g","g",1,0.655222692992538,NA,NA,NA
"experimental",2,17,"hd","upper","outlaved","nw","nw","h","h",1,0.819926733151078,NA,NA,NA
"experimental",2,18,"hd","upper","lightels","nw","nw","h","h",1,0.945956064853817,NA,NA,NA
"experimental",2,19,"hd","upper","fomrade","nw","nw","h","h",1,0.802539370022714,NA,NA,NA
"experimental",2,20,"hd","upper","miracle","w","w","g","g",1,0.496938062366098,NA,NA,NA
"experimental",2,21,"hd","upper","plashed","nw","nw","h","h",1,0.724269253201783,NA,NA,NA
"experimental",2,22,"hd","upper","heuls","nw","nw","h","h",1,0.590271113440394,NA,NA,NA
"experimental",2,23,"hd","upper","perform","w","w","g","g",1,0.509626577142626,NA,NA,NA
"experimental",2,24,"hd","upper","spiud","nw","nw","h","h",1,0.496235536411405,NA,NA,NA
"experimental",2,25,"hd","upper","gackpedal","nw","nw","h","h",1,0.643072495702654,NA,NA,NA
"experimental",2,26,"hd","upper","bypassed","w","w","g","g",1,0.782787187490612,NA,NA,NA
"experimental",2,27,"hd","upper","houted","nw","nw","h","h",1,0.561122226528823,NA,NA,NA
"experimental",2,28,"hd","upper","latter","w","w","g","g",1,0.617957673035562,NA,NA,NA
"experimental",2,29,"hd","upper","carbled","nw","nw","h","h",1,0.790815257001668,NA,NA,NA
"experimental",2,30,"hd","upper","suspect","w","w","g","g",1,0.63830809481442,NA,NA,NA
"experimental",3,1,"ld","lower","reforest","w","w","g","g",1,0.595863846130669,NA,NA,NA
"experimental",3,2,"ld","lower","splinging","nw","nw","h","h",1,0.787219195626676,NA,NA,NA
"experimental",3,3,"ld","lower","poyride","nw","nw","h","h",1,0.986697300337255,NA,NA,NA
"experimental",3,4,"ld","lower","ounwit","nw","nw","h","h",1,0.713094382546842,NA,NA,NA
"experimental",3,5,"ld","lower","ufionize","nw","nw","h","h",1,0.937262880150229,NA,NA,NA
"experimental",3,6,"ld","lower","serving","w","w","g","g",1,0.517177246045321,NA,NA,NA
"experimental",3,7,"ld","lower","function","w","w","g","g",1,0.455135423224419,NA,NA,NA
"experimental",3,8,"ld","lower","slutches","nw","nw","h","h",1,0.851790046785027,NA,NA,NA
"experimental",3,9,"ld","lower","affluent","w","w","g","h",0,0.520513418596238,NA,NA,NA
"experimental",3,10,"ld","lower","duplex","w","w","g","g",1,0.922583984676748,NA,NA,NA
"experimental",3,11,"ld","lower","rascaps","nw","nw","h","h",1,0.900640131905675,NA,NA,NA
"experimental",3,12,"ld","lower","mounting","w","w","g","g",1,0.943482655566186,NA,NA,NA
"experimental",3,13,"ld","lower","charcoal","w","w","g","g",1,0.815698001068085,NA,NA,NA
"experimental",3,14,"ld","lower","mestowal","nw","nw","h","h",1,0.630343921948224,NA,NA,NA
"experimental",3,15,"ld","lower","teamwork","w","w","g","g",1,0.540364590473473,NA,NA,NA
"experimental",3,16,"ld","lower","chrayed","nw","nw","h","h",1,0.597671477589756,NA,NA,NA
"experimental",3,17,"ld","lower","moral","w","w","g","g",1,0.525050044059753,NA,NA,NA
"experimental",3,18,"ld","lower","uncarled","nw","nw","h","h",1,1.03097401047125,NA,NA,NA
"experimental",3,19,"ld","lower","fission","w","w","g","g",1,0.877266726922244,NA,NA,NA
"experimental",3,20,"ld","lower","trembla","nw","nw","h","h",1,0.68076426256448,NA,NA,NA
"experimental",3,21,"ld","lower","seldom","w","w","g","g",1,0.852350214030594,NA,NA,NA
"experimental",3,22,"ld","lower","bureaug","nw","nw","h","h",1,1.06510944478214,NA,NA,NA
"experimental",3,23,"ld","lower","nopping","nw","nw","h","h",1,0.733933792449534,NA,NA,NA
"experimental",3,24,"ld","lower","plunging","w","w","g","g",1,0.783234791364521,NA,NA,NA
"experimental",3,25,"ld","lower","gensions","nw","nw","h","h",1,0.639217539224774,NA,NA,NA
"experimental",3,26,"ld","lower","minimum","w","w","g","g",1,0.604650723282248,NA,NA,NA
"experimental",3,27,"ld","lower","seartfelt","nw","nw","h","h",1,0.651144596748054,NA,NA,NA
"experimental",3,28,"ld","lower","burrowing","w","w","g","g",1,0.712050193920732,NA,NA,NA
"experimental",3,29,"ld","lower","nostril","w","w","g","g",1,0.858694140333682,NA,NA,NA
"experimental",3,30,"ld","lower","poars","nw","nw","h","h",1,0.814678311347961,NA,NA,NA
"experimental",4,1,"hd","upper","derived","w","w","g","g",1,0.64540056604892,NA,NA,NA
"experimental",4,2,"hd","upper","castaway","w","w","g","g",1,1.16272784071043,NA,NA,NA
"experimental",4,3,"hd","upper","sliding","w","w","g","g",1,0.531391322147101,NA,NA,NA
"experimental",4,4,"hd","upper","ifling","nw","nw","h","h",1,0.645492602605373,NA,NA,NA
"experimental",4,5,"hd","upper","carony","nw","nw","h","h",1,0.77766821347177,NA,NA,NA
"experimental",4,6,"hd","upper","razelle","nw","nw","h","g",0,0.865831305272877,NA,NA,NA
"experimental",4,7,"hd","upper","contact","w","w","g","g",1,0.646492428611964,NA,NA,NA
"experimental",4,8,"hd","upper","failure","w","w","g","g",1,0.539882886223495,NA,NA,NA
"experimental",4,9,"hd","upper","gremieres","nw","nw","h","h",1,0.844586005900055,NA,NA,NA
"experimental",4,10,"hd","upper","peadgear","nw","nw","h","h",1,1.45069911144674,NA,NA,NA
"experimental",4,11,"hd","upper","rabbit","target","target","q","g",0,0.695547775365412,NA,NA,NA
"experimental",4,12,"hd","upper","detrabe","aftertar1","nw","h","h",1,0.763388255145401,NA,NA,NA
"experimental",4,13,"hd","upper","roughly","aftertar2","w","g","g",1,0.579105181153864,NA,NA,NA
"experimental",4,14,"hd","upper","shockwave","aftertar3","w","g","g",1,1.10709350882098,NA,NA,NA
"experimental",4,15,"hd","upper","audience","w","w","g","g",1,0.581786170601845,NA,NA,NA
"experimental",4,16,"hd","upper","splum","w","nw","h","h",1,0.621762637514621,NA,NA,NA
"experimental",4,17,"hd","upper","mixture","nw","w","g","g",1,0.507336248178035,NA,NA,NA
"experimental",4,18,"hd","upper","outset","w","w","g","g",1,0.686558284331113,NA,NA,NA
"experimental",4,19,"hd","upper","dileting","w","nw","h","h",1,0.929920452646911,NA,NA,NA
"experimental",4,20,"hd","upper","atch","nw","nw","h","h",1,0.811581169255078,NA,NA,NA
"experimental",4,21,"hd","upper","aviation","nw","w","g","g",1,0.786719614174217,NA,NA,NA
"experimental",4,22,"hd","upper","presence","w","w","g","g",1,0.561154009308666,NA,NA,NA
"experimental",4,23,"hd","upper","insole","w","w","g","g",1,0.537608779966831,NA,NA,NA
"experimental",4,24,"hd","upper","draze","w","nw","h","h",1,0.643160559237003,NA,NA,NA
"experimental",4,25,"hd","upper","bettled","nw","nw","h","h",1,1.36853927653283,NA,NA,NA
"experimental",4,26,"hd","upper","country","nw","w","g","g",1,0.688563232310116,NA,NA,NA
"experimental",4,27,"hd","upper","frose","w","nw","h","h",1,0.804050033446401,NA,NA,NA
"experimental",4,28,"hd","upper","finstrel","nw","nw","h","h",1,0.778709091246128,NA,NA,NA
"experimental",4,29,"hd","upper","praiged","nw","nw","h","h",1,0.802629089448601,NA,NA,NA
"experimental",4,30,"hd","upper","satisfies","nw","w","g","g",1,1.30536155961454,NA,NA,NA
"experimental",5,1,"hd","upper","ludictous","nw","nw","h","h",1,1.64384851884097,NA,NA,NA
"experimental",5,2,"hd","upper","protest","w","w","g","g",1,0.57731807557866,NA,NA,NA
"experimental",5,3,"hd","upper","tablet","w","w","g","g",1,0.481345419306308,NA,NA,NA
"experimental",5,4,"hd","upper","talent","w","w","g","g",1,0.461435979697853,NA,NA,NA
"experimental",5,5,"hd","upper","nelvet","nw","nw","h","h",1,0.745204673148692,NA,NA,NA
"experimental",5,6,"hd","upper","sording","nw","nw","h","h",1,0.826499758288264,NA,NA,NA
"experimental",5,7,"hd","upper","adok","nw","nw","h","h",1,0.552480357233435,NA,NA,NA
"experimental",5,8,"hd","upper","tragedy","w","w","g","g",1,0.553404367994517,NA,NA,NA
"experimental",5,9,"hd","upper","recollect","w","w","g","g",1,0.833966998383403,NA,NA,NA
"experimental",5,10,"hd","upper","walsams","nw","nw","h","h",1,0.711361572146416,NA,NA,NA
"experimental",5,11,"hd","upper","harfing","nw","nw","h","h",1,0.818070103414357,NA,NA,NA
"experimental",5,12,"hd","upper","alticles","nw","nw","h","h",1,0.808115217834711,NA,NA,NA
"experimental",5,13,"hd","upper","destroy","w","w","g","g",1,0.678799042478204,NA,NA,NA
"experimental",5,14,"hd","upper","outrank","w","w","g","g",1,0.537834237329662,NA,NA,NA
"experimental",5,15,"hd","upper","bentler","nw","nw","h","h",1,0.707193094305694,NA,NA,NA
"experimental",5,16,"hd","upper","elephant","target","target","q","g",0,0.525966109707952,NA,NA,NA
"experimental",5,17,"hd","upper","lifetime","aftertar1","w","g","g",1,1.02393583487719,NA,NA,NA
"experimental",5,18,"hd","upper","exclusion","aftertar2","w","g","g",1,0.750074684154242,NA,NA,NA
"experimental",5,19,"hd","upper","omners","aftertar3","nw","h","h",1,0.615435596555471,NA,NA,NA
"experimental",5,20,"hd","upper","rasuals","nw","nw","h","h",1,0.877957666292787,NA,NA,NA
"experimental",5,21,"hd","upper","ifkling","nw","nw","h","h",1,0.849991354160011,NA,NA,NA
"experimental",5,22,"hd","upper","removable","nw","w","g","g",1,0.679422112647444,NA,NA,NA
"experimental",5,23,"hd","upper","railroad","w","w","g","g",1,0.570402726531029,NA,NA,NA
"experimental",5,24,"hd","upper","medium","w","w","g","g",1,0.506388400215656,NA,NA,NA
"experimental",5,25,"hd","upper","sarlock","w","nw","h","h",1,0.677055969368666,NA,NA,NA
"experimental",5,26,"hd","upper","profats","nw","nw","h","h",1,0.880611176602542,NA,NA,NA
"experimental",5,27,"hd","upper","bailmenz","nw","nw","h","h",1,0.813131892122328,NA,NA,NA
"experimental",5,28,"hd","upper","baladroit","nw","nw","h","h",1,0.67598430160433,NA,NA,NA
"experimental",5,29,"hd","upper","maroon","nw","w","g","g",1,0.679978306870908,NA,NA,NA
"experimental",5,30,"hd","upper","column","w","w","g","g",1,0.524052867665887,NA,NA,NA
"experimental",6,1,"hd","upper","prame","nw","nw","h","h",1,0.86929891211912,NA,NA,NA
"experimental",6,2,"hd","upper","hegacy","nw","nw","h","h",1,0.689362099859864,NA,NA,NA
"experimental",6,3,"hd","upper","ganter","nw","nw","h","g",0,0.988715159706771,NA,NA,NA
"experimental",6,4,"hd","upper","widely","w","w","g","g",1,0.636048555839807,NA,NA,NA
"experimental",6,5,"hd","upper","achieve","w","w","g","g",1,0.473477256018668,NA,NA,NA
"experimental",6,6,"hd","upper","cooray","nw","nw","h","h",1,0.70055054500699,NA,NA,NA
"experimental",6,7,"hd","upper","paranoid","w","w","g","g",1,0.551202434580773,NA,NA,NA
"experimental",6,8,"hd","upper","grieving","w","w","g","g",1,0.519890679512173,NA,NA,NA
"experimental",6,9,"hd","upper","epthuse","nw","nw","h","h",1,0.641910446807742,NA,NA,NA
"experimental",6,10,"hd","upper","bellicove","nw","nw","h","h",1,0.703262654133141,NA,NA,NA
"experimental",6,11,"hd","upper","trecious","nw","nw","h","g",0,2.17832776717842,NA,NA,NA
"experimental",6,12,"hd","upper","blocking","w","w","g","h",0,0.825970380101353,NA,NA,NA
"experimental",6,13,"hd","upper","maximized","w","w","g","g",1,0.511835131794214,NA,NA,NA
"experimental",6,14,"hd","upper","dealer","w","w","g","g",1,0.610595712438226,NA,NA,NA
"experimental",6,15,"hd","upper","couple","w","w","g","g",1,0.457324114628136,NA,NA,NA
"experimental",6,16,"hd","upper","intended","w","w","g","g",1,0.524457432329655,NA,NA,NA
"experimental",6,17,"hd","upper","ascending","w","w","g","g",1,0.622343331109732,NA,NA,NA
"experimental",6,18,"hd","upper","chraps","nw","nw","h","h",1,0.685053249355406,NA,NA,NA
"experimental",6,19,"hd","upper","pracking","nw","nw","h","h",1,0.86436301888898,NA,NA,NA
"experimental",6,20,"hd","upper","antonym","w","w","g","g",1,0.797289623878896,NA,NA,NA
"experimental",6,21,"hd","upper","huzzles","nw","nw","h","h",1,1.26069617504254,NA,NA,NA
"experimental",6,22,"hd","upper","rantho","nw","nw","h","h",1,0.785373160149902,NA,NA,NA
"experimental",6,23,"hd","upper","tharcely","nw","nw","h","h",1,0.680726851802319,NA,NA,NA
"experimental",6,24,"hd","upper","oldest","w","w","g","g",1,0.723807744681835,NA,NA,NA
"experimental",6,25,"hd","upper","noblin","nw","nw","h","h",1,0.749888624064624,NA,NA,NA
"experimental",6,26,"hd","upper","sefine","nw","nw","h","h",1,1.08721883175895,NA,NA,NA
"experimental",6,27,"hd","upper","showdown","w","w","g","g",1,0.778596528340131,NA,NA,NA
"experimental",6,28,"hd","upper","porcupine","target","target","q","g",0,0.866525224409997,NA,NA,NA
"experimental",6,29,"hd","upper","hatred","aftertar1","w","g","g",1,0.654865801800042,NA,NA,NA
"experimental",6,30,"hd","upper","garment","aftertar2","w","g","g",1,0.604052152018994,NA,NA,NA
"experimental",7,1,"hd","upper","anonymous","w","w","g","g",1,0.657924539409578,NA,NA,NA
"experimental",7,2,"hd","upper","slogan","w","w","g","g",1,0.702576019335538,NA,NA,NA
"experimental",7,3,"hd","upper","lindo","nw","nw","h","h",1,0.697301773820072,NA,NA,NA
"experimental",7,4,"hd","upper","sponto","nw","nw","h","h",1,0.684681790415198,NA,NA,NA
"experimental",7,5,"hd","upper","moisture","w","w","g","g",1,0.496057090349495,NA,NA,NA
"experimental",7,6,"hd","upper","defensa","nw","nw","h","h",1,0.819285123143345,NA,NA,NA
"experimental",7,7,"hd","upper","plogging","nw","nw","h","h",1,1.36141071887687,NA,NA,NA
"experimental",7,8,"hd","upper","even","w","w","g","g",1,0.553064029663801,NA,NA,NA
"experimental",7,9,"hd","upper","subber","nw","nw","h","h",1,0.745803243946284,NA,NA,NA
"experimental",7,10,"hd","upper","doads","nw","nw","h","h",1,0.658529731910676,NA,NA,NA
"experimental",7,11,"hd","upper","pretzel","w","w","g","g",1,0.631843991577625,NA,NA,NA
"experimental",7,12,"hd","upper","hemoter","nw","nw","h","h",1,0.646034892182797,NA,NA,NA
"experimental",7,13,"hd","upper","afternoon","w","w","g","g",1,0.563394677825272,NA,NA,NA
"experimental",7,14,"hd","upper","deceit","w","w","g","g",1,0.700093009043485,NA,NA,NA
"experimental",7,15,"hd","upper","erony","nw","nw","h","h",1,1.02364813676104,NA,NA,NA
"experimental",7,16,"hd","upper","tenpince","nw","nw","h","h",1,0.765052534174174,NA,NA,NA
"experimental",7,17,"hd","upper","fravity","nw","nw","h","h",1,0.733344160020351,NA,NA,NA
"experimental",7,18,"hd","upper","preclude","w","w","g","g",1,1.75925321504474,NA,NA,NA
"experimental",7,19,"hd","upper","gures","nw","nw","h","h",1,2.49561974965036,NA,NA,NA
"experimental",7,20,"hd","upper","senior","w","w","g","g",1,0.595407965127379,NA,NA,NA
"experimental",7,21,"hd","upper","measure","w","w","g","g",1,0.618735020514578,NA,NA,NA
"experimental",7,22,"hd","upper","noils","nw","nw","h","h",1,0.840805870946497,NA,NA,NA
"experimental",7,23,"hd","upper","stagger","w","w","g","g",1,0.814137346111238,NA,NA,NA
"experimental",7,24,"hd","upper","army","w","w","g","g",1,0.491852195002139,NA,NA,NA
"experimental",7,25,"hd","upper","machinery","w","w","g","g",1,0.511210406664759,NA,NA,NA
"experimental",7,26,"hd","upper","etber","nw","nw","h","h",1,0.642015395220369,NA,NA,NA
"experimental",7,27,"hd","upper","chicken","target","target","q","g",0,0.479154741857201,NA,NA,NA
"experimental",7,28,"hd","upper","ireology","aftertar1","nw","h","h",1,0.762649642303586,NA,NA,NA
"experimental",7,29,"hd","upper","sustain","aftertar2","w","g","g",1,0.587339506018907,NA,NA,NA
"experimental",7,30,"hd","upper","integral","aftertar3","w","g","g",1,0.578796956688166,NA,NA,NA
"experimental",8,1,"ld","lower","arbitrary","w","w","g","g",1,0.658575418870896,NA,NA,NA
"experimental",8,2,"ld","lower","trake","nw","nw","h","h",1,0.647337976377457,NA,NA,NA
"experimental",8,3,"ld","lower","thorifies","nw","nw","h","h",1,0.83673207834363,NA,NA,NA
"experimental",8,4,"ld","lower","zears","nw","nw","h","h",1,0.546033137477934,NA,NA,NA
"experimental",8,5,"ld","lower","ignore","w","w","g","g",1,0.53141284128651,NA,NA,NA
"experimental",8,6,"ld","lower","hecture","nw","nw","h","h",1,0.885474897455424,NA,NA,NA
"experimental",8,7,"ld","lower","acidic","w","w","g","g",1,0.600973219610751,NA,NA,NA
"experimental",8,8,"ld","lower","clypaper","nw","nw","h","h",1,0.663614606484771,NA,NA,NA
"experimental",8,9,"ld","lower","reason","w","w","g","g",1,0.491297325119376,NA,NA,NA
"experimental",8,10,"ld","lower","mandate","w","w","g","g",1,0.718645069748163,NA,NA,NA
"experimental",8,11,"ld","lower","turning","w","w","g","g",1,0.512670747935772,NA,NA,NA
"experimental",8,12,"ld","lower","forbid","w","w","g","g",1,0.570670891087502,NA,NA,NA
"experimental",8,13,"ld","lower","brother","w","w","g","g",1,0.466700293123722,NA,NA,NA
"experimental",8,14,"ld","lower","dorte","nw","nw","h","h",1,0.678745740558952,NA,NA,NA
"experimental",8,15,"ld","lower","throttle","w","w","g","h",0,0.706109839491546,NA,NA,NA
"experimental",8,16,"ld","lower","virulent","w","w","g","g",1,1.15683019440621,NA,NA,NA
"experimental",8,17,"ld","lower","ragtam","nw","nw","h","h",1,0.692875724751502,NA,NA,NA
"experimental",8,18,"ld","lower","scarlet","w","w","g","g",1,0.855167934205383,NA,NA,NA
"experimental",8,19,"ld","lower","enabled","w","w","g","g",1,0.619215069338679,NA,NA,NA
"experimental",8,20,"ld","lower","geissue","nw","nw","h","h",1,0.937312540598214,NA,NA,NA
"experimental",8,21,"ld","lower","corg","nw","nw","h","h",1,0.481960543897003,NA,NA,NA
"experimental",8,22,"ld","lower","arrive","w","w","g","g",1,0.565329439472407,NA,NA,NA
"experimental",8,23,"ld","lower","comply","w","w","g","g",1,0.573321422096342,NA,NA,NA
"experimental",8,24,"ld","lower","slimped","nw","nw","h","h",1,1.18080680491403,NA,NA,NA
"experimental",8,25,"ld","lower","ofsters","nw","nw","h","h",1,0.724129873793572,NA,NA,NA
"experimental",8,26,"ld","lower","mandlers","nw","nw","h","h",1,0.948547334875912,NA,NA,NA
"experimental",8,27,"ld","lower","seeming","w","w","g","g",1,0.749255621805787,NA,NA,NA
"experimental",8,28,"ld","lower","brongs","nw","nw","h","h",1,0.637943258043379,NA,NA,NA
"experimental",8,29,"ld","lower","borrent","nw","nw","h","h",1,0.626704159658402,NA,NA,NA
"experimental",8,30,"ld","lower","smallash","nw","nw","h","h",1,0.86407498922199,NA,NA,NA
"experimental",9,1,"ld","lower","vopings","nw","nw","h","h",1,0.652024244423956,NA,NA,NA
"experimental",9,2,"ld","lower","landing","w","w","g","g",1,0.592638912145048,NA,NA,NA
"experimental",9,3,"ld","lower","cervical","w","w","g","g",1,0.735338513739407,NA,NA,NA
"experimental",9,4,"ld","lower","prama","nw","nw","h","h",1,0.752673568669707,NA,NA,NA
"experimental",9,5,"ld","lower","ghists","nw","nw","h","h",1,0.608692733105272,NA,NA,NA
"experimental",9,6,"ld","lower","tritical","nw","nw","h","h",1,0.943619717843831,NA,NA,NA
"experimental",9,7,"ld","lower","argue","w","w","g","g",1,0.600142238661647,NA,NA,NA
"experimental",9,8,"ld","lower","mantos","nw","nw","h","h",1,0.598903051111847,NA,NA,NA
"experimental",9,9,"ld","lower","recount","w","w","g","g",1,0.694304614793509,NA,NA,NA
"experimental",9,10,"ld","lower","trembles","w","w","g","g",1,0.856094593647867,NA,NA,NA
"experimental",9,11,"ld","lower","engineer","w","w","g","g",1,1.0120153981261,NA,NA,NA
"experimental",9,12,"ld","lower","tunneg","nw","nw","h","h",1,0.666172107215971,NA,NA,NA
"experimental",9,13,"ld","lower","dentures","w","w","g","g",1,0.694048698991537,NA,NA,NA
"experimental",9,14,"ld","lower","dialect","w","w","g","g",1,0.840716151986271,NA,NA,NA
"experimental",9,15,"ld","lower","theery","nw","nw","h","h",1,0.757463791873306,NA,NA,NA
"experimental",9,16,"ld","lower","unamufed","nw","nw","h","h",1,0.9884218336083,NA,NA,NA
"experimental",9,17,"ld","lower","humanize","w","w","g","g",1,0.723279691301286,NA,NA,NA
"experimental",9,18,"ld","lower","renown","w","w","g","g",1,0.973610842134804,NA,NA,NA
"experimental",9,19,"ld","lower","reloant","nw","nw","h","h",1,1.19593727728352,NA,NA,NA
"experimental",9,20,"ld","lower","shurk","nw","nw","h","h",1,0.682783115655184,NA,NA,NA
"experimental",9,21,"ld","lower","buzzer","w","w","g","g",1,0.718111056368798,NA,NA,NA
"experimental",9,22,"ld","lower","bullet","w","w","g","g",1,0.5521469716914,NA,NA,NA
"experimental",9,23,"ld","lower","submit","w","w","g","g",1,0.632921617478132,NA,NA,NA
"experimental",9,24,"ld","lower","giving","w","w","g","g",1,0.534444762859493,NA,NA,NA
"experimental",9,25,"ld","lower","blanned","nw","nw","h","h",1,0.919592453632504,NA,NA,NA
"experimental",9,26,"ld","lower","pamine","nw","nw","h","h",1,0.689021099824458,NA,NA,NA
"experimental",9,27,"ld","lower","volume","w","w","g","g",1,0.515761930029839,NA,NA,NA
"experimental",9,28,"ld","lower","begut","nw","nw","h","h",1,0.932871262077242,NA,NA,NA
"experimental",9,29,"ld","lower","chonemic","nw","nw","h","h",1,0.894135638140142,NA,NA,NA
"experimental",9,30,"ld","lower","duries","nw","nw","h","h",1,0.832929099909961,NA,NA,NA
"experimental",10,1,"ld","lower","combat","w","w","g","g",1,0.631306005641818,NA,NA,NA
"experimental",10,2,"ld","lower","prison","w","w","g","g",1,0.555457982700318,NA,NA,NA
"experimental",10,3,"ld","lower","distrust","w","w","g","g",1,0.651349858846515,NA,NA,NA
"experimental",10,4,"ld","lower","sopes","nw","nw","h","h",1,0.656126177869737,NA,NA,NA
"experimental",10,5,"ld","lower","enacted","w","w","g","g",1,0.868121965322644,NA,NA,NA
"experimental",10,6,"ld","lower","punctual","w","w","g","g",1,0.728184795472771,NA,NA,NA
"experimental",10,7,"ld","lower","subpoena","w","w","g","g",1,0.793578350916505,NA,NA,NA
"experimental",10,8,"ld","lower","shillac","nw","nw","h","h",1,0.79295627400279,NA,NA,NA
"experimental",10,9,"ld","lower","sength","nw","nw","h","h",1,0.863644931931049,NA,NA,NA
"experimental",10,10,"ld","lower","visible","w","w","g","g",1,0.707713533658534,NA,NA,NA
"experimental",10,11,"ld","lower","olgies","nw","nw","h","h",1,0.636751412879676,NA,NA,NA
"experimental",10,12,"ld","lower","pastnoss","nw","nw","h","h",1,0.609443926718086,NA,NA,NA
"experimental",10,13,"ld","lower","olerates","nw","nw","h","h",1,0.535432007163763,NA,NA,NA
"experimental",10,14,"ld","lower","glapula","nw","nw","h","h",1,0.528775222133845,NA,NA,NA
"experimental",10,15,"ld","lower","violate","w","w","g","g",1,0.45813423814252,NA,NA,NA
"experimental",10,16,"ld","lower","amidst","w","w","g","g",1,0.75817757518962,NA,NA,NA
"experimental",10,17,"ld","lower","collision","w","w","g","g",1,0.566431896295398,NA,NA,NA
"experimental",10,18,"ld","lower","pripend","nw","nw","h","h",1,0.710298181511462,NA,NA,NA
"experimental",10,19,"ld","lower","kiner","nw","nw","h","h",1,0.736500893719494,NA,NA,NA
"experimental",10,20,"ld","lower","brouhuha","nw","nw","h","h",1,0.568084587808698,NA,NA,NA
"experimental",10,21,"ld","lower","skiing","w","w","g","g",1,0.672044260893017,NA,NA,NA
"experimental",10,22,"ld","lower","puyer","nw","nw","h","h",1,0.811420270707458,NA,NA,NA
"experimental",10,23,"ld","lower","forfeit","w","w","g","g",1,0.56145759858191,NA,NA,NA
"experimental",10,24,"ld","lower","ciping","nw","nw","h","h",1,0.681501882150769,NA,NA,NA
"experimental",10,25,"ld","lower","remain","w","w","g","g",1,0.580898907966912,NA,NA,NA
"experimental",10,26,"ld","lower","octopus","target","target","q","g",0,0.684419916011393,NA,NA,NA
"experimental",10,27,"ld","lower","railway","aftertar1","w","g","g",1,0.423617082182318,NA,NA,NA
"experimental",10,28,"ld","lower","congraks","aftertar2","nw","h","h",1,0.725032365415245,NA,NA,NA
"experimental",10,29,"ld","lower","rumblos","aftertar3","nw","h","h",1,0.614403326064348,NA,NA,NA
"experimental",10,30,"ld","lower","mining","nw","w","g","g",1,0.55558776203543,NA,NA,NA
"experimental",11,1,"ld","lower","slowning","nw","nw","h","h",1,0.980293450411409,NA,NA,NA
"experimental",11,2,"ld","lower","admire","w","w","g","g",1,0.65159451821819,NA,NA,NA
"experimental",11,3,"ld","lower","earmaff","nw","nw","h","h",1,0.872299050912261,NA,NA,NA
"experimental",11,4,"ld","lower","ringlat","nw","nw","h","h",1,0.914802230428904,NA,NA,NA
"experimental",11,5,"ld","lower","awful","w","w","g","g",1,0.692779384553432,NA,NA,NA
"experimental",11,6,"ld","lower","goblet","w","w","g","g",1,0.815441092010587,NA,NA,NA
"experimental",11,7,"ld","lower","pariah","w","w","g","g",1,0.925429845228791,NA,NA,NA
"experimental",11,8,"ld","lower","static","w","w","g","g",1,0.670811363495886,NA,NA,NA
"experimental",11,9,"ld","lower","gymnasium","w","w","g","g",1,0.586189706344157,NA,NA,NA
"experimental",11,10,"ld","lower","chrik","nw","nw","h","h",1,0.705215293448418,NA,NA,NA
"experimental",11,11,"ld","lower","previous","w","w","g","g",1,0.531520769465715,NA,NA,NA
"experimental",11,12,"ld","lower","catgup","nw","nw","h","h",1,0.812620392534882,NA,NA,NA
"experimental",11,13,"ld","lower","bingu","nw","nw","h","h",1,0.793640591669828,NA,NA,NA
"experimental",11,14,"ld","lower","populace","w","w","g","h",0,0.847973163705319,NA,NA,NA
"experimental",11,15,"ld","lower","correct","w","w","g","g",1,1.38056565495208,NA,NA,NA
"experimental",11,16,"ld","lower","extruded","w","w","g","h",0,0.811786100734025,NA,NA,NA
"experimental",11,17,"ld","lower","mebase","nw","nw","h","h",1,0.737771532963961,NA,NA,NA
"experimental",11,18,"ld","lower","fabstand","nw","nw","h","h",1,0.826320981606841,NA,NA,NA
"experimental",11,19,"ld","lower","twenties","w","w","g","g",1,0.68845696002245,NA,NA,NA
"experimental",11,20,"ld","lower","bengths","nw","nw","h","h",1,0.850653159432113,NA,NA,NA
"experimental",11,21,"ld","lower","desert","w","w","g","h",0,0.679530040826648,NA,NA,NA
"experimental",11,22,"ld","lower","dontrite","nw","nw","h","h",1,1.11354701872915,NA,NA,NA
"experimental",11,23,"ld","lower","potatoes","w","w","g","g",1,0.547824546694756,NA,NA,NA
"experimental",11,24,"ld","lower","sodent","nw","nw","h","h",1,0.788530887570232,NA,NA,NA
"experimental",11,25,"ld","lower","diatonic","w","w","g","h",0,1.20325090130791,NA,NA,NA
"experimental",11,26,"ld","lower","ignoble","w","w","g","h",0,1.13747496204451,NA,NA,NA
"experimental",11,27,"ld","lower","preight","nw","nw","h","h",1,0.754162712488323,NA,NA,NA
"experimental",11,28,"ld","lower","pived","nw","nw","h","h",1,0.70610884623602,NA,NA,NA
"experimental",11,29,"ld","lower","nearsipe","nw","nw","h","h",1,0.805076675489545,NA,NA,NA
"experimental",11,30,"ld","lower","leuter","nw","nw","h","h",1,0.705909874755889,NA,NA,NA
"experimental",12,1,"hd","upper","entropy","w","w","g","g",1,0.708883858751506,NA,NA,NA
"experimental",12,2,"hd","upper","fracture","w","w","g","g",1,0.614823782816529,NA,NA,NA
"experimental",12,3,"hd","upper","remade","w","w","g","g",1,0.996889230329543,NA,NA,NA
"experimental",12,4,"hd","upper","menarthe","nw","nw","h","h",1,0.77864718157798,NA,NA,NA
"experimental",12,5,"hd","upper","clume","nw","nw","h","h",1,0.76996459113434,NA,NA,NA
"experimental",12,6,"hd","upper","porghum","nw","nw","h","h",1,0.993378253187984,NA,NA,NA
"experimental",12,7,"hd","upper","upstairs","w","w","g","g",1,0.568107431288809,NA,NA,NA
"experimental",12,8,"hd","upper","itfidels","nw","nw","h","h",1,1.23214453458786,NA,NA,NA
"experimental",12,9,"hd","upper","fallacy","w","w","g","h",0,0.797457144130021,NA,NA,NA
"experimental",12,10,"hd","upper","flacked","nw","nw","h","h",1,2.30827429611236,NA,NA,NA
"experimental",12,11,"hd","upper","veirs","nw","nw","h","h",1,0.862985113169998,NA,NA,NA
"experimental",12,12,"hd","upper","daining","nw","nw","h","h",1,1.15400750795379,NA,NA,NA
"experimental",12,13,"hd","upper","chyme","nw","nw","h","h",1,0.737955607008189,NA,NA,NA
"experimental",12,14,"hd","upper","mennel","nw","nw","h","h",1,0.674961963668466,NA,NA,NA
"experimental",12,15,"hd","upper","mustled","nw","nw","h","g",0,1.11874743551016,NA,NA,NA
"experimental",12,16,"hd","upper","disuse","w","w","g","g",1,1.04882520018145,NA,NA,NA
"experimental",12,17,"hd","upper","absent","w","w","g","g",1,0.677534031216055,NA,NA,NA
"experimental",12,18,"hd","upper","brighten","w","w","g","g",1,0.560938483569771,NA,NA,NA
"experimental",12,19,"hd","upper","noblest","w","w","g","g",1,0.528929499909282,NA,NA,NA
"experimental",12,20,"hd","upper","stifle","w","w","g","g",1,0.801380631513894,NA,NA,NA
"experimental",12,21,"hd","upper","oginous","nw","nw","h","h",1,1.1841962793842,NA,NA,NA
"experimental",12,22,"hd","upper","fragment","w","w","g","g",1,0.799473680090159,NA,NA,NA
"experimental",12,23,"hd","upper","alchemist","w","w","g","g",1,1.06206295639277,NA,NA,NA
"experimental",12,24,"hd","upper","butled","nw","nw","h","h",1,1.1942471745424,NA,NA,NA
"experimental",12,25,"hd","upper","amplifier","w","w","g","g",1,0.696919390466064,NA,NA,NA
"experimental",12,26,"hd","upper","summon","w","w","g","g",1,0.643609487917274,NA,NA,NA
"experimental",12,27,"hd","upper","atble","nw","nw","h","h",1,0.608300086576492,NA,NA,NA
"experimental",12,28,"hd","upper","allained","nw","nw","h","h",1,0.821495002601296,NA,NA,NA
"experimental",12,29,"hd","upper","plapping","nw","nw","h","h",1,0.70679647475481,NA,NA,NA
"experimental",12,30,"hd","upper","binder","w","w","g","g",1,0.72480028681457,NA,NA,NA
"experimental",13,1,"ld","lower","urgency","w","w","g","g",1,0.598971913103014,NA,NA,NA
"experimental",13,2,"ld","lower","airline","w","w","g","g",1,0.653576953336596,NA,NA,NA
"experimental",13,3,"ld","lower","committed","w","w","g","g",1,0.504766828846186,NA,NA,NA
"experimental",13,4,"ld","lower","antique","w","w","g","g",1,0.538683427032083,NA,NA,NA
"experimental",13,5,"ld","lower","warmer","w","w","g","g",1,0.467414406593889,NA,NA,NA
"experimental",13,6,"ld","lower","cegalia","nw","nw","h","h",1,0.678775867912918,NA,NA,NA
"experimental",13,7,"ld","lower","agony","w","w","g","g",1,0.730220201890916,NA,NA,NA
"experimental",13,8,"ld","lower","reconcile","w","w","g","g",1,0.867670388892293,NA,NA,NA
"experimental",13,9,"ld","lower","triangle","w","w","g","g",1,0.591441770084202,NA,NA,NA
"experimental",13,10,"ld","lower","surfaced","w","w","g","g",1,0.574984707869589,NA,NA,NA
"experimental",13,11,"ld","lower","marinate","w","w","g","g",1,0.6782137141563,NA,NA,NA
"experimental",13,12,"ld","lower","clarms","nw","nw","h","h",1,0.760631451383233,NA,NA,NA
"experimental",13,13,"ld","lower","matter","w","w","g","g",1,0.616886667441577,NA,NA,NA
"experimental",13,14,"ld","lower","glates","nw","nw","h","h",1,0.654694308526814,NA,NA,NA
"experimental",13,15,"ld","lower","reses","nw","nw","h","h",1,0.674745114054531,NA,NA,NA
"experimental",13,16,"ld","lower","currowing","nw","nw","h","h",1,0.814131387043744,NA,NA,NA
"experimental",13,17,"ld","lower","orange","w","w","g","g",1,0.636153173167259,NA,NA,NA
"experimental",13,18,"ld","lower","statute","w","w","g","g",1,0.592854106333107,NA,NA,NA
"experimental",13,19,"ld","lower","efcorted","nw","nw","h","h",1,1.0075747827068,NA,NA,NA
"experimental",13,20,"ld","lower","beartiset","nw","nw","h","h",1,0.90964650735259,NA,NA,NA
"experimental",13,21,"ld","lower","dusmy","nw","nw","h","h",1,0.614735718350857,NA,NA,NA
"experimental",13,22,"ld","lower","infancy","w","w","g","g",1,0.660704186651856,NA,NA,NA
"experimental",13,23,"ld","lower","fivalve","nw","nw","h","h",1,0.68858111044392,NA,NA,NA
"experimental",13,24,"ld","lower","thrapping","nw","nw","h","h",1,0.675543981604278,NA,NA,NA
"experimental",13,25,"ld","lower","gerby","nw","nw","h","h",1,0.734774042852223,NA,NA,NA
"experimental",13,26,"ld","lower","cartles","nw","nw","h","h",1,0.607389318291098,NA,NA,NA
"experimental",13,27,"ld","lower","saucer","w","w","g","g",1,0.933096388820559,NA,NA,NA
"experimental",13,28,"ld","lower","slears","nw","nw","h","h",1,0.718961239326745,NA,NA,NA
"experimental",13,29,"ld","lower","peems","nw","nw","h","h",1,0.712165405508131,NA,NA,NA
"experimental",13,30,"ld","lower","alber","nw","nw","h","h",1,0.713175494223833,NA,NA,NA
"experimental",14,1,"hd","upper","peahem","nw","nw","h","h",1,0.668016818352044,NA,NA,NA
"experimental",14,2,"hd","upper","planar","w","w","g","g",1,0.855462916195393,NA,NA,NA
"experimental",14,3,"hd","upper","otiates","nw","nw","h","h",1,0.755487315822393,NA,NA,NA
"experimental",14,4,"hd","upper","trocess","nw","nw","h","h",1,0.699604683555663,NA,NA,NA
"experimental",14,5,"hd","upper","athcan","nw","nw","h","h",1,0.685276388656348,NA,NA,NA
"experimental",14,6,"hd","upper","explosion","w","w","g","g",1,0.719954112544656,NA,NA,NA
"experimental",14,7,"hd","upper","series","w","w","g","h",0,0.785352302715182,NA,NA,NA
"experimental",14,8,"hd","upper","emergence","w","w","g","g",1,0.560034668073058,NA,NA,NA
"experimental",14,9,"hd","upper","tipoff","w","w","g","g",1,1.3281307653524,NA,NA,NA
"experimental",14,10,"hd","upper","emotion","w","w","g","g",1,0.505471341777593,NA,NA,NA
"experimental",14,11,"hd","upper","nogwhell","nw","nw","h","h",1,0.675503922160715,NA,NA,NA
"experimental",14,12,"hd","upper","rodeo","w","w","g","g",1,0.71891025500372,NA,NA,NA
"experimental",14,13,"hd","upper","aligning","w","w","g","g",1,0.59142455458641,NA,NA,NA
"experimental",14,14,"hd","upper","omission","w","w","g","g",1,0.502101400401443,NA,NA,NA
"experimental",14,15,"hd","upper","crundle","nw","nw","h","h",1,0.753355237655342,NA,NA,NA
"experimental",14,16,"hd","upper","sunshine","w","w","g","g",1,0.553345768712461,NA,NA,NA
"experimental",14,17,"hd","upper","amkles","nw","nw","h","h",1,0.777340124826878,NA,NA,NA
"experimental",14,18,"hd","upper","undue","w","w","g","g",1,0.744700456503779,NA,NA,NA
"experimental",14,19,"hd","upper","confined","w","w","g","g",1,0.521006048191339,NA,NA,NA
"experimental",14,20,"hd","upper","provide","w","w","g","g",1,0.530928819905967,NA,NA,NA
"experimental",14,21,"hd","upper","amms","nw","nw","h","h",1,0.660209571011364,NA,NA,NA
"experimental",14,22,"hd","upper","parent","w","w","g","g",1,0.47222052142024,NA,NA,NA
"experimental",14,23,"hd","upper","snocks","nw","nw","h","h",1,0.643677026033401,NA,NA,NA
"experimental",14,24,"hd","upper","elbalm","nw","nw","h","h",1,0.567389675881714,NA,NA,NA
"experimental",14,25,"hd","upper","imprives","nw","nw","h","h",1,0.758784422650933,NA,NA,NA
"experimental",14,26,"hd","upper","planofoad","nw","nw","h","h",1,0.63888051174581,NA,NA,NA
"experimental",14,27,"hd","upper","troven","nw","nw","h","h",1,0.563496315851808,NA,NA,NA
"experimental",14,28,"hd","upper","flamingo","target","target","q","g",0,0.571546566672623,NA,NA,NA
"experimental",14,29,"hd","upper","equitable","aftertar1","w","g","g",1,0.602923541329801,NA,NA,NA
"experimental",14,30,"hd","upper","yellep","aftertar2","nw","h","h",1,0.896964283194393,NA,NA,NA
"experimental",15,1,"hd","upper","pexts","nw","nw","h","h",1,0.731509712059051,NA,NA,NA
"experimental",15,2,"hd","upper","prawls","nw","nw","h","h",1,0.836910855490714,NA,NA,NA
"experimental",15,3,"hd","upper","season","w","w","g","g",1,0.681576041504741,NA,NA,NA
"experimental",15,4,"hd","upper","jiggling","w","w","g","g",1,0.764853230677545,NA,NA,NA
"experimental",15,5,"hd","upper","sequence","w","w","g","g",1,0.589036891702563,NA,NA,NA
"experimental",15,6,"hd","upper","scack","nw","nw","h","h",1,0.683720037806779,NA,NA,NA
"experimental",15,7,"hd","upper","decant","w","w","g","g",1,0.695074348244816,NA,NA,NA
"experimental",15,8,"hd","upper","levels","w","w","g","g",1,1.40085615357384,NA,NA,NA
"experimental",15,9,"hd","upper","comment","w","w","g","g",1,0.518798486329615,NA,NA,NA
"experimental",15,10,"hd","upper","fuintets","nw","nw","h","h",1,0.808152959682047,NA,NA,NA
"experimental",15,11,"hd","upper","spigat","nw","nw","h","h",1,0.686190136708319,NA,NA,NA
"experimental",15,12,"hd","upper","cemoir","nw","nw","h","h",1,0.672921260353178,NA,NA,NA
"experimental",15,13,"hd","upper","repayment","w","w","g","g",1,0.796306351665407,NA,NA,NA
"experimental",15,14,"hd","upper","slending","nw","nw","h","h",1,1.23504436016083,NA,NA,NA
"experimental",15,15,"hd","upper","bookend","w","w","g","g",1,0.630843503866345,NA,NA,NA
"experimental",15,16,"hd","upper","warden","w","w","g","g",1,0.724150069057941,NA,NA,NA
"experimental",15,17,"hd","upper","nollow","nw","nw","h","h",1,0.757530667819083,NA,NA,NA
"experimental",15,18,"hd","upper","cayward","nw","nw","h","h",1,1.31766570359468,NA,NA,NA
"experimental",15,19,"hd","upper","sunhess","nw","nw","h","h",1,0.734970035031438,NA,NA,NA
"experimental",15,20,"hd","upper","hodels","nw","nw","h","h",1,0.768305940087885,NA,NA,NA
"experimental",15,21,"hd","upper","record","w","w","g","g",1,0.720546724274755,NA,NA,NA
"experimental",15,22,"hd","upper","refebs","nw","nw","h","h",1,1.11377181392163,NA,NA,NA
"experimental",15,23,"hd","upper","permeable","w","w","g","g",1,0.971820425707847,NA,NA,NA
"experimental",15,24,"hd","upper","sporidic","nw","nw","h","h",1,0.778166802134365,NA,NA,NA
"experimental",15,25,"hd","upper","unmarked","w","w","g","g",1,0.697546764742583,NA,NA,NA
"experimental",15,26,"hd","upper","fallint","nw","nw","h","h",1,0.820336595643312,NA,NA,NA
"experimental",15,27,"hd","upper","crocodile","target","target","q","g",0,0.561633726581931,NA,NA,NA
"experimental",15,28,"hd","upper","befriend","aftertar1","w","g","g",1,0.657685508020222,NA,NA,NA
"experimental",15,29,"hd","upper","treason","aftertar2","w","g","g",1,0.581695788539946,NA,NA,NA
"experimental",15,30,"hd","upper","except","aftertar3","w","g","g",1,0.461086371913552,NA,NA,NA
"experimental",16,1,"hd","upper","fassed","nw","nw","h","h",1,1.40885608224198,NA,NA,NA
"experimental",16,2,"hd","upper","located","w","w","g","g",1,0.710613689385355,NA,NA,NA
"experimental",16,3,"hd","upper","drine","nw","nw","h","h",1,1.01703505218029,NA,NA,NA
"experimental",16,4,"hd","upper","martial","w","w","g","g",1,0.807094866409898,NA,NA,NA
"experimental",16,5,"hd","upper","reborn","w","w","g","g",1,0.661049159709364,NA,NA,NA
"experimental",16,6,"hd","upper","schinter","nw","nw","h","h",1,0.657472631428391,NA,NA,NA
"experimental",16,7,"hd","upper","divider","w","w","g","g",1,0.636208792682737,NA,NA,NA
"experimental",16,8,"hd","upper","welayed","nw","nw","h","h",1,0.640904662199318,NA,NA,NA
"experimental",16,9,"hd","upper","fudden","nw","nw","h","h",1,0.685595207381994,NA,NA,NA
"experimental",16,10,"hd","upper","snays","nw","nw","h","h",1,0.632338607218117,NA,NA,NA
"experimental",16,11,"hd","upper","actual","w","w","g","g",1,0.733909955248237,NA,NA,NA
"experimental",16,12,"hd","upper","ilterfere","nw","nw","h","h",1,0.590400892309844,NA,NA,NA
"experimental",16,13,"hd","upper","midday","w","w","g","g",1,0.82112486846745,NA,NA,NA
"experimental",16,14,"hd","upper","religious","w","w","g","g",1,0.586486674845219,NA,NA,NA
"experimental",16,15,"hd","upper","digar","nw","nw","h","h",1,0.752222322393209,NA,NA,NA
"experimental",16,16,"hd","upper","potter","w","w","g","g",1,0.616441381163895,NA,NA,NA
"experimental",16,17,"hd","upper","hutting","nw","nw","h","g",0,0.734519451856613,NA,NA,NA
"experimental",16,18,"hd","upper","walnut","w","w","g","g",1,0.726992950309068,NA,NA,NA
"experimental",16,19,"hd","upper","aicline","nw","nw","h","h",1,0.824374963529408,NA,NA,NA
"experimental",16,20,"hd","upper","caterpillar","target","target","q","g",0,0.725753431208432,NA,NA,NA
"experimental",16,21,"hd","upper","ucility","aftertar1","nw","h","g",0,0.519066320266575,NA,NA,NA
"experimental",16,22,"hd","upper","odacles","aftertar2","nw","h","h",1,1.73651645379141,NA,NA,NA
"experimental",16,23,"hd","upper","gelented","aftertar3","nw","h","h",1,1.83258942421526,NA,NA,NA
"experimental",16,24,"hd","upper","phonology","nw","w","g","h",0,1.47750999592245,NA,NA,NA
"experimental",16,25,"hd","upper","infested","w","w","g","g",1,0.769024026580155,NA,NA,NA
"experimental",16,26,"hd","upper","probable","w","w","g","g",1,0.961030587088317,NA,NA,NA
"experimental",16,27,"hd","upper","heaviest","w","w","g","g",1,0.713048032484949,NA,NA,NA
"experimental",16,28,"hd","upper","gepealed","w","nw","h","h",1,1.21908886590973,NA,NA,NA
"experimental",16,29,"hd","upper","female","nw","w","g","g",1,0.480465440545231,NA,NA,NA
"experimental",16,30,"hd","upper","manage","w","w","g","g",1,0.475944375153631,NA,NA,NA
"experimental",17,1,"hd","upper","twarfs","nw","nw","h","h",1,0.679095017258078,NA,NA,NA
"experimental",17,2,"hd","upper","blipover","nw","nw","h","h",1,0.722477844450623,NA,NA,NA
"experimental",17,3,"hd","upper","suddenly","w","w","g","g",1,0.659898036159575,NA,NA,NA
"experimental",17,4,"hd","upper","arpired","nw","nw","h","h",1,0.791908112354577,NA,NA,NA
"experimental",17,5,"hd","upper","micron","w","w","g","h",0,0.710623290389776,NA,NA,NA
"experimental",17,6,"hd","upper","numbled","nw","nw","h","h",1,0.856753419153392,NA,NA,NA
"experimental",17,7,"hd","upper","posing","w","w","g","g",1,0.907704462297261,NA,NA,NA
"experimental",17,8,"hd","upper","partner","w","w","g","g",1,0.477766242343932,NA,NA,NA
"experimental",17,9,"hd","upper","thesis","w","w","g","g",1,0.537105887662619,NA,NA,NA
"experimental",17,10,"hd","upper","drobate","nw","nw","h","h",1,0.689839168917388,NA,NA,NA
"experimental",17,11,"hd","upper","standard","w","w","g","g",1,0.684530161321163,NA,NA,NA
"experimental",17,12,"hd","upper","capobly","nw","nw","h","h",1,0.855269572231919,NA,NA,NA
"experimental",17,13,"hd","upper","tracing","w","w","g","g",1,1.12326783873141,NA,NA,NA
"experimental",17,14,"hd","upper","jaguar","target","target","q","g",0,0.804592654109001,NA,NA,NA
"experimental",17,15,"hd","upper","passet","aftertar1","nw","h","g",0,2.52168407570571,NA,NA,NA
"experimental",17,16,"hd","upper","gigglod","aftertar2","nw","h","h",1,1.42708766879514,NA,NA,NA
"experimental",17,17,"hd","upper","traze","aftertar3","nw","h","h",1,0.752343824598938,NA,NA,NA
"experimental",17,18,"hd","upper","patio","nw","w","g","g",1,0.976505700964481,NA,NA,NA
"experimental",17,19,"hd","upper","chiffol","w","nw","h","h",1,0.679882959462702,NA,NA,NA
"experimental",17,20,"hd","upper","causality","nw","w","g","g",1,1.3153267079033,NA,NA,NA
"experimental",17,21,"hd","upper","solidity","w","w","g","h",0,0.645362162031233,NA,NA,NA
"experimental",17,22,"hd","upper","temelity","w","nw","h","h",1,0.682048144750297,NA,NA,NA
"experimental",17,23,"hd","upper","opert","nw","nw","h","h",1,0.620371820870787,NA,NA,NA
"experimental",17,24,"hd","upper","digested","nw","w","g","g",1,0.761781581677496,NA,NA,NA
"experimental",17,25,"hd","upper","collute","w","nw","h","h",1,0.889832415152341,NA,NA,NA
"experimental",17,26,"hd","upper","flicking","nw","w","g","h",0,0.708531933370978,NA,NA,NA
"experimental",17,27,"hd","upper","accessory","w","w","g","g",1,0.574561271816492,NA,NA,NA
"experimental",17,28,"hd","upper","expired","w","w","g","g",1,0.589920512400568,NA,NA,NA
"experimental",17,29,"hd","upper","design","w","w","g","g",1,0.492641461081803,NA,NA,NA
"experimental",17,30,"hd","upper","peags","w","nw","h","h",1,0.647406507283449,NA,NA,NA
"experimental",18,1,"ld","lower","crazy","w","w","g","g",1,0.667920146137476,NA,NA,NA
"experimental",18,2,"ld","lower","nature","w","w","g","g",1,1.0232041743584,NA,NA,NA
"experimental",18,3,"ld","lower","enunciate","w","w","g","g",1,0.996981929056346,NA,NA,NA
"experimental",18,4,"ld","lower","crimb","nw","nw","h","h",1,0.843205121345818,NA,NA,NA
"experimental",18,5,"ld","lower","mogus","nw","nw","h","h",1,0.69505183538422,NA,NA,NA
"experimental",18,6,"ld","lower","retona","nw","nw","h","h",1,0.601934641133994,NA,NA,NA
"experimental",18,7,"ld","lower","treenery","nw","nw","h","h",1,0.726659233681858,NA,NA,NA
"experimental",18,8,"ld","lower","miability","nw","nw","h","h",1,0.810078120790422,NA,NA,NA
"experimental",18,9,"ld","lower","baults","nw","nw","h","h",1,0.792543432209641,NA,NA,NA
"experimental",18,10,"ld","lower","mitten","w","w","g","h",0,0.999287155922502,NA,NA,NA
"experimental",18,11,"ld","lower","glating","nw","nw","h","h",1,0.822117410600185,NA,NA,NA
"experimental",18,12,"ld","lower","forecast","w","w","g","g",1,1.33942680712789,NA,NA,NA
"experimental",18,13,"ld","lower","axis","w","w","g","g",1,0.980137186124921,NA,NA,NA
"experimental",18,14,"ld","lower","geborn","nw","nw","h","h",1,0.882725377101451,NA,NA,NA
"experimental",18,15,"ld","lower","chight","nw","nw","h","h",1,0.917919235769659,NA,NA,NA
"experimental",18,16,"ld","lower","ubefully","nw","nw","h","h",1,0.671328160911798,NA,NA,NA
"experimental",18,17,"ld","lower","galashes","nw","nw","h","h",1,1.47468532295898,NA,NA,NA
"experimental",18,18,"ld","lower","abstain","w","w","g","g",1,1.01410112716258,NA,NA,NA
"experimental",18,19,"ld","lower","colicky","w","w","g","h",0,0.82805842673406,NA,NA,NA
"experimental",18,20,"ld","lower","sweeping","w","w","g","g",1,1.05748792691156,NA,NA,NA
"experimental",18,21,"ld","lower","euphoric","w","w","g","g",1,0.612628470174968,NA,NA,NA
"experimental",18,22,"ld","lower","revising","w","w","g","g",1,0.818641196005046,NA,NA,NA
"experimental",18,23,"ld","lower","peanimate","nw","nw","h","h",1,1.13558456394821,NA,NA,NA
"experimental",18,24,"ld","lower","professor","w","w","g","g",1,0.688813189044595,NA,NA,NA
"experimental",18,25,"ld","lower","govern","w","w","g","g",1,0.675363549496979,NA,NA,NA
"experimental",18,26,"ld","lower","mopping","w","w","g","g",1,0.878721771296114,NA,NA,NA
"experimental",18,27,"ld","lower","lenie","nw","nw","h","h",1,0.754060743842274,NA,NA,NA
"experimental",18,28,"ld","lower","trewl","nw","nw","h","h",1,1.55422640964389,NA,NA,NA
"experimental",18,29,"ld","lower","veranpah","nw","nw","h","h",1,0.946257336996496,NA,NA,NA
"experimental",18,30,"ld","lower","require","w","w","g","g",1,0.593494060914963,NA,NA,NA
"experimental",19,1,"ld","lower","egpended","nw","nw","h","h",1,0.720836739521474,NA,NA,NA
"experimental",19,2,"ld","lower","pleamed","nw","nw","h","h",1,0.738224434200674,NA,NA,NA
"experimental",19,3,"ld","lower","rawhide","w","w","g","h",0,0.651001575402915,NA,NA,NA
"experimental",19,4,"ld","lower","entertain","w","w","g","g",1,0.790959602221847,NA,NA,NA
"experimental",19,5,"ld","lower","irregular","w","w","g","h",0,0.740712741855532,NA,NA,NA
"experimental",19,6,"ld","lower","overflow","w","w","g","g",1,0.533291652332991,NA,NA,NA
"experimental",19,7,"ld","lower","buaint","nw","nw","h","h",1,0.654751583002508,NA,NA,NA
"experimental",19,8,"ld","lower","exemplify","w","w","g","g",1,0.754824517294765,NA,NA,NA
"experimental",19,9,"ld","lower","incidonts","nw","nw","h","h",1,0.77885608561337,NA,NA,NA
"experimental",19,10,"ld","lower","thaken","nw","nw","h","h",1,0.874212624039501,NA,NA,NA
"experimental",19,11,"ld","lower","forgive","w","w","g","g",1,0.845622911117971,NA,NA,NA
"experimental",19,12,"ld","lower","aqueduct","w","w","g","g",1,0.786309420596808,NA,NA,NA
"experimental",19,13,"ld","lower","regards","w","w","g","g",1,0.689091617241502,NA,NA,NA
"experimental",19,14,"ld","lower","trophy","w","w","g","g",1,0.698672065045685,NA,NA,NA
"experimental",19,15,"ld","lower","prominent","w","w","g","g",1,0.55737983295694,NA,NA,NA
"experimental",19,16,"ld","lower","cheathe","nw","nw","h","h",1,1.10944342985749,NA,NA,NA
"experimental",19,17,"ld","lower","saturate","w","w","g","g",1,0.743432134389877,NA,NA,NA
"experimental",19,18,"ld","lower","gablus","nw","nw","h","h",1,0.752095854375511,NA,NA,NA
"experimental",19,19,"ld","lower","lovud","nw","nw","h","h",1,0.77612576726824,NA,NA,NA
"experimental",19,20,"ld","lower","tibs","nw","nw","h","h",1,1.01578659471124,NA,NA,NA
"experimental",19,21,"ld","lower","mitro","nw","nw","h","h",1,0.806174166034907,NA,NA,NA
"experimental",19,22,"ld","lower","atabaster","nw","nw","h","h",1,0.810737608000636,NA,NA,NA
"experimental",19,23,"ld","lower","unrealon","nw","nw","h","h",1,0.857390725519508,NA,NA,NA
"experimental",19,24,"ld","lower","ounside","nw","nw","h","h",1,0.829293641727418,NA,NA,NA
"experimental",19,25,"ld","lower","arrow","w","w","g","g",1,0.898764631245285,NA,NA,NA
"experimental",19,26,"ld","lower","parody","w","w","g","g",1,0.613337287213653,NA,NA,NA
"experimental",19,27,"ld","lower","exploit","w","w","g","g",1,0.667390437331051,NA,NA,NA
"experimental",19,28,"ld","lower","misest","nw","nw","h","g",0,0.502715200185776,NA,NA,NA
"experimental",19,29,"ld","lower","afford","w","w","g","g",1,0.536791373044252,NA,NA,NA
"experimental",19,30,"ld","lower","phambled","nw","nw","h","h",1,0.648570873774588,NA,NA,NA
"experimental",20,1,"ld","lower","apticle","nw","nw","h","h",1,0.718021336942911,NA,NA,NA
"experimental",20,2,"ld","lower","cessation","w","w","g","h",0,0.559389416128397,NA,NA,NA
"experimental",20,3,"ld","lower","pimorous","nw","nw","h","h",1,0.663416627328843,NA,NA,NA
"experimental",20,4,"ld","lower","dounger","nw","nw","h","h",1,0.659425601828843,NA,NA,NA
"experimental",20,5,"ld","lower","gumdrep","nw","nw","h","h",1,0.511419972870499,NA,NA,NA
"experimental",20,6,"ld","lower","fetching","w","w","g","h",0,0.584548270795494,NA,NA,NA
"experimental",20,7,"ld","lower","caution","w","w","g","g",1,0.687229690607637,NA,NA,NA
"experimental",20,8,"ld","lower","tining","nw","nw","h","h",1,0.721927608828992,NA,NA,NA
"experimental",20,9,"ld","lower","assent","w","w","g","g",1,0.699303411412984,NA,NA,NA
"experimental",20,10,"ld","lower","soluced","nw","nw","h","h",1,0.829961405601352,NA,NA,NA
"experimental",20,11,"ld","lower","regional","w","w","g","g",1,0.595376844983548,NA,NA,NA
"experimental",20,12,"ld","lower","tyena","nw","nw","h","h",1,0.83167402073741,NA,NA,NA
"experimental",20,13,"ld","lower","felevance","nw","nw","h","h",1,0.973636334296316,NA,NA,NA
"experimental",20,14,"ld","lower","sputter","w","w","g","g",1,0.998834254685789,NA,NA,NA
"experimental",20,15,"ld","lower","casino","w","w","g","g",1,0.80445393640548,NA,NA,NA
"experimental",20,16,"ld","lower","analysis","w","w","g","g",1,0.594579632859677,NA,NA,NA
"experimental",20,17,"ld","lower","monkey","target","target","q","g",0,0.617355791386217,1,1,NA
"experimental",20,18,"ld","lower","metebing","aftertar1","nw","h","h",1,0.950684047769755,NA,NA,NA
"experimental",20,19,"ld","lower","esdings","aftertar2","nw","h","h",1,0.926717038266361,NA,NA,NA
"experimental",20,20,"ld","lower","cavern","aftertar3","w","g","h",0,1.4641192862764,NA,NA,NA
"experimental",20,21,"ld","lower","gestalion","w","nw","h","h",1,1.12358003575355,NA,NA,NA
"experimental",20,22,"ld","lower","pollute","nw","w","g","g",1,0.797623340040445,NA,NA,NA
"experimental",20,23,"ld","lower","poughest","w","nw","h","h",1,0.562994085252285,NA,NA,NA
"experimental",20,24,"ld","lower","intersect","nw","w","g","g",1,1.21912859426811,NA,NA,NA
"experimental",20,25,"ld","lower","batire","w","nw","h","h",1,0.784405117388815,NA,NA,NA
"experimental",20,26,"ld","lower","acoustic","nw","w","g","g",1,0.911070762202144,NA,NA,NA
"experimental",20,27,"ld","lower","strenuous","w","w","g","g",1,0.585096850991249,NA,NA,NA
"experimental",20,28,"ld","lower","birn","w","nw","h","h",1,0.927829095628113,NA,NA,NA
"experimental",20,29,"ld","lower","reddar","nw","nw","h","h",1,0.897228144109249,NA,NA,NA
"experimental",20,30,"ld","lower","envelop","nw","w","g","g",1,0.676001848187298,NA,NA,NA
"experimental",21,1,"ld","lower","bumbo","nw","nw","h","h",1,0.855060668196529,NA,NA,NA
"experimental",21,2,"ld","lower","flieves","nw","nw","h","h",1,0.78681098902598,NA,NA,NA
"experimental",21,3,"ld","lower","ordinary","w","w","g","g",1,0.601905507035553,NA,NA,NA
"experimental",21,4,"ld","lower","tycoon","w","w","g","g",1,1.23989715566859,NA,NA,NA
"experimental",21,5,"ld","lower","pender","nw","nw","h","h",1,0.636480599176139,NA,NA,NA
"experimental",21,6,"ld","lower","penalize","w","w","g","g",1,0.632412766572088,NA,NA,NA
"experimental",21,7,"ld","lower","halents","nw","nw","h","h",1,0.709766486193985,NA,NA,NA
"experimental",21,8,"ld","lower","tredits","nw","nw","h","h",1,0.791745226830244,NA,NA,NA
"experimental",21,9,"ld","lower","uncounted","w","w","g","g",1,0.654452628921717,NA,NA,NA
"experimental",21,10,"ld","lower","sengry","nw","nw","h","h",1,0.690539377741516,NA,NA,NA
"experimental",21,11,"ld","lower","susher","nw","nw","h","h",1,0.629262653645128,NA,NA,NA
"experimental",21,12,"ld","lower","arcients","nw","nw","h","h",1,0.842554241418839,NA,NA,NA
"experimental",21,13,"ld","lower","stranded","w","w","g","g",1,0.679259227123111,NA,NA,NA
"experimental",21,14,"ld","lower","icepick","w","w","g","g",1,0.938633501995355,NA,NA,NA
"experimental",21,15,"ld","lower","category","w","w","g","g",1,0.714351447764784,NA,NA,NA
"experimental",21,16,"ld","lower","criminal","w","w","g","g",1,0.8204150586389,NA,NA,NA
"experimental",21,17,"ld","lower","drauns","nw","nw","h","h",1,0.68185844225809,NA,NA,NA
"experimental",21,18,"ld","lower","downtrund","nw","nw","h","h",1,1.2050737622194,NA,NA,NA
"experimental",21,19,"ld","lower","legalosm","nw","nw","h","h",1,0.819297372829169,NA,NA,NA
"experimental",21,20,"ld","lower","gontracts","nw","nw","h","h",1,0.616630421020091,NA,NA,NA
"experimental",21,21,"ld","lower","forgery","w","w","g","g",1,0.630676314234734,NA,NA,NA
"experimental",21,22,"ld","lower","bother","w","w","g","g",1,0.907188657671213,NA,NA,NA
"experimental",21,23,"ld","lower","knowledge","w","w","g","g",1,0.549095186404884,NA,NA,NA
"experimental",21,24,"ld","lower","carnival","w","w","g","g",1,0.550092032179236,NA,NA,NA
"experimental",21,25,"ld","lower","insertion","w","w","g","g",1,0.725964321754873,NA,NA,NA
"experimental",21,26,"ld","lower","dricked","nw","nw","h","h",1,0.623827178496867,NA,NA,NA
"experimental",21,27,"ld","lower","imotope","nw","nw","h","h",1,0.796598684974015,NA,NA,NA
"experimental",21,28,"ld","lower","bropic","nw","nw","h","h",1,0.642342490144074,NA,NA,NA
"experimental",21,29,"ld","lower","disperse","w","w","g","g",1,0.912595661357045,NA,NA,NA
"experimental",21,30,"ld","lower","holdup","w","w","g","g",1,1.09070597123355,NA,NA,NA
"experimental",22,1,"hd","upper","dorth","nw","nw","h","h",1,0.885131910908967,NA,NA,NA
"experimental",22,2,"hd","upper","lavilion","nw","nw","h","h",1,0.6160580040887,NA,NA,NA
"experimental",22,3,"hd","upper","cassette","w","w","g","g",1,0.581835830584168,NA,NA,NA
"experimental",22,4,"hd","upper","godomy","nw","nw","h","h",1,1.02919783024117,NA,NA,NA
"experimental",22,5,"hd","upper","buttress","w","w","g","g",1,1.03364076372236,NA,NA,NA
"experimental",22,6,"hd","upper","obviously","w","w","g","g",1,0.655012465082109,NA,NA,NA
"experimental",22,7,"hd","upper","clooped","nw","nw","h","h",1,0.642952980007976,NA,NA,NA
"experimental",22,8,"hd","upper","delegate","w","w","g","g",1,0.823702895548195,NA,NA,NA
"experimental",22,9,"hd","upper","dominion","w","w","g","g",1,0.549115381203592,NA,NA,NA
"experimental",22,10,"hd","upper","ecistle","nw","nw","h","h",1,0.7737847850658,NA,NA,NA
"experimental",22,11,"hd","upper","neuran","nw","nw","h","h",1,1.05314034130424,NA,NA,NA
"experimental",22,12,"hd","upper","squadroim","nw","nw","h","h",1,0.657029993832111,NA,NA,NA
"experimental",22,13,"hd","upper","retreat","w","w","g","g",1,0.636833848897368,NA,NA,NA
"experimental",22,14,"hd","upper","defeat","w","w","g","g",1,0.697872535325587,NA,NA,NA
"experimental",22,15,"hd","upper","marvel","w","w","g","g",1,0.859622455202043,NA,NA,NA
"experimental",22,16,"hd","upper","ements","nw","nw","h","h",1,0.895661861635745,NA,NA,NA
"experimental",22,17,"hd","upper","shests","nw","nw","h","g",0,0.666384652722627,NA,NA,NA
"experimental",22,18,"hd","upper","unwose","nw","nw","h","h",1,0.750347484368831,NA,NA,NA
"experimental",22,19,"hd","upper","abraid","nw","nw","h","h",1,0.663084235507995,NA,NA,NA
"experimental",22,20,"hd","upper","snorls","nw","nw","h","h",1,0.531169175170362,NA,NA,NA
"experimental",22,21,"hd","upper","listless","w","w","g","h",0,0.556506475899369,NA,NA,NA
"experimental",22,22,"hd","upper","burning","w","w","g","g",1,0.828621573280543,NA,NA,NA
"experimental",22,23,"hd","upper","tinker","w","w","g","g",1,0.90607527596876,NA,NA,NA
"experimental",22,24,"hd","upper","despise","w","w","g","g",1,0.675097701605409,NA,NA,NA
"experimental",22,25,"hd","upper","tiery","nw","nw","h","h",1,1.00644650263712,NA,NA,NA
"experimental",22,26,"hd","upper","elormity","nw","nw","h","h",1,0.87644965108484,NA,NA,NA
"experimental",22,27,"hd","upper","unlined","w","w","g","g",1,0.743839679751545,NA,NA,NA
"experimental",22,28,"hd","upper","terming","w","w","g","g",1,1.00054918741807,NA,NA,NA
"experimental",22,29,"hd","upper","preserve","w","w","g","g",1,0.918635004665703,NA,NA,NA
"experimental",22,30,"hd","upper","roodies","nw","nw","h","h",1,0.91207985766232,NA,NA,NA
"experimental",23,1,"ld","lower","companion","w","w","g","g",1,0.586131107062101,NA,NA,NA
"experimental",23,2,"ld","lower","nameplate","w","w","g","g",1,0.832627828232944,NA,NA,NA
"experimental",23,3,"ld","lower","aefated","nw","nw","h","h",1,0.70197215070948,NA,NA,NA
"experimental",23,4,"ld","lower","deficit","w","w","g","g",1,0.568000165745616,NA,NA,NA
"experimental",23,5,"ld","lower","system","w","w","g","g",1,0.51932753296569,NA,NA,NA
"experimental",23,6,"ld","lower","misobeyed","nw","nw","h","g",0,0.648734090384096,NA,NA,NA
"experimental",23,7,"ld","lower","fuack","nw","nw","h","h",1,0.772421777714044,NA,NA,NA
"experimental",23,8,"ld","lower","moozy","nw","nw","h","h",1,0.843769261147827,NA,NA,NA
"experimental",23,9,"ld","lower","index","w","w","g","g",1,0.616503621917218,NA,NA,NA
"experimental",23,10,"ld","lower","jinds","nw","nw","h","h",1,0.638514681719244,NA,NA,NA
"experimental",23,11,"ld","lower","fatho","nw","nw","h","h",1,0.65922398166731,NA,NA,NA
"experimental",23,12,"ld","lower","expected","w","w","g","g",1,0.583294516429305,NA,NA,NA
"experimental",23,13,"ld","lower","rationale","w","w","g","g",1,0.942648695316166,NA,NA,NA
"experimental",23,14,"ld","lower","incorrect","w","w","g","g",1,0.503432956058532,NA,NA,NA
"experimental",23,15,"ld","lower","mortgage","w","w","g","g",1,0.720549041870981,NA,NA,NA
"experimental",23,16,"ld","lower","nimono","nw","nw","h","h",1,0.857871767133474,NA,NA,NA
"experimental",23,17,"ld","lower","filny","nw","nw","h","h",1,0.6298807580024,NA,NA,NA
"experimental",23,18,"ld","lower","hanling","nw","nw","h","h",1,0.723346235696226,NA,NA,NA
"experimental",23,19,"ld","lower","tucker","w","w","g","g",1,0.972665642388165,NA,NA,NA
"experimental",23,20,"ld","lower","fards","nw","nw","h","h",1,0.724113320466131,NA,NA,NA
"experimental",23,21,"ld","lower","ilcurring","nw","nw","h","h",1,0.765408432111144,NA,NA,NA
"experimental",23,22,"ld","lower","iolize","nw","nw","h","h",1,0.621485203038901,NA,NA,NA
"experimental",23,23,"ld","lower","ergonomic","w","w","g","h",0,0.874766170047224,NA,NA,NA
"experimental",23,24,"ld","lower","podes","nw","nw","h","h",1,0.61421792767942,NA,NA,NA
"experimental",23,25,"ld","lower","typical","w","w","g","g",1,0.699336518533528,NA,NA,NA
"experimental",23,26,"ld","lower","outflow","w","w","g","g",1,0.901903156191111,NA,NA,NA
"experimental",23,27,"ld","lower","whirling","w","w","g","g",1,0.887999622616917,NA,NA,NA
"experimental",23,28,"ld","lower","legalize","w","w","g","g",1,0.786646779160947,NA,NA,NA
"experimental",23,29,"ld","lower","plartly","nw","nw","h","h",1,0.993441487196833,NA,NA,NA
"experimental",23,30,"ld","lower","haurded","nw","nw","h","h",1,0.999990675598383,NA,NA,NA
"experimental",24,1,"hd","upper","compose","w","w","g","g",1,0.60654277773574,NA,NA,NA
"experimental",24,2,"hd","upper","classify","w","w","g","g",1,0.548591962549835,NA,NA,NA
"experimental",24,3,"hd","upper","infusion","w","w","g","g",1,0.733362037688494,NA,NA,NA
"experimental",24,4,"hd","upper","chemical","w","w","g","g",1,0.542704910505563,NA,NA,NA
"experimental",24,5,"hd","upper","airmen","w","w","g","g",1,0.815636753104627,NA,NA,NA
"experimental",24,6,"hd","upper","atsless","nw","nw","h","h",1,0.717458190396428,NA,NA,NA
"experimental",24,7,"hd","upper","hotplate","w","w","g","g",1,1.01484702387825,NA,NA,NA
"experimental",24,8,"hd","upper","halms","nw","nw","h","h",1,0.699968858156353,NA,NA,NA
"experimental",24,9,"hd","upper","wienegs","nw","nw","h","h",1,0.734570104628801,NA,NA,NA
"experimental",24,10,"hd","upper","latpin","nw","nw","h","h",1,1.03937386954203,NA,NA,NA
"experimental",24,11,"hd","upper","pakened","nw","nw","h","h",1,0.724018634762615,NA,NA,NA
"experimental",24,12,"hd","upper","gunrunker","nw","nw","h","h",1,1.26947411336005,NA,NA,NA
"experimental",24,13,"hd","upper","become","w","w","g","g",1,0.936711982823908,NA,NA,NA
"experimental",24,14,"hd","upper","loached","nw","nw","h","h",1,0.809474252164364,NA,NA,NA
"experimental",24,15,"hd","upper","brials","nw","nw","h","h",1,0.88751361425966,NA,NA,NA
"experimental",24,16,"hd","upper","deakers","nw","nw","h","h",1,0.609187348745763,NA,NA,NA
"experimental",24,17,"hd","upper","mamps","nw","nw","h","h",1,1.00725099816918,NA,NA,NA
"experimental",24,18,"hd","upper","entitle","w","w","g","g",1,0.853324547410011,NA,NA,NA
"experimental",24,19,"hd","upper","fullity","nw","nw","h","g",0,1.929403655231,NA,NA,NA
"experimental",24,20,"hd","upper","earterner","nw","nw","h","h",1,0.690668825060129,NA,NA,NA
"experimental",24,21,"hd","upper","coverall","w","w","g","g",1,0.733243184164166,NA,NA,NA
"experimental",24,22,"hd","upper","inducing","w","w","g","g",1,0.71061269659549,NA,NA,NA
"experimental",24,23,"hd","upper","itself","w","w","g","g",1,0.488706386182457,NA,NA,NA
"experimental",24,24,"hd","upper","gallon","w","w","g","g",1,0.546478424221277,NA,NA,NA
"experimental",24,25,"hd","upper","elpousal","nw","nw","h","h",1,0.986160969827324,NA,NA,NA
"experimental",24,26,"hd","upper","release","w","w","g","g",1,0.553860910702497,NA,NA,NA
"experimental",24,27,"hd","upper","gorilla","target","target","q","g",0,0.553866208065301,NA,NA,NA
"experimental",24,28,"hd","upper","vaporize","aftertar1","w","g","g",1,1.15391712635756,NA,NA,NA
"experimental",24,29,"hd","upper","company","aftertar2","w","g","g",1,1.17807946586981,NA,NA,NA
"experimental",24,30,"hd","upper","volder","aftertar3","nw","h","h",1,0.849476874340326,NA,NA,NA
"experimental",25,1,"hd","upper","facienda","nw","nw","h","h",1,0.64594318671152,NA,NA,NA
"experimental",25,2,"hd","upper","thacked","nw","nw","h","h",1,0.6106599397026,NA,NA,NA
"experimental",25,3,"hd","upper","slooping","nw","nw","h","h",1,0.928692190442234,NA,NA,NA
"experimental",25,4,"hd","upper","lignpost","nw","nw","h","h",1,0.554061538074166,NA,NA,NA
"experimental",25,5,"hd","upper","uncle","w","w","g","g",1,0.874097743537277,NA,NA,NA
"experimental",25,6,"hd","upper","rewrite","w","w","g","g",1,0.50137503631413,NA,NA,NA
"experimental",25,7,"hd","upper","guffy","nw","nw","h","g",0,0.526879195123911,NA,NA,NA
"experimental",25,8,"hd","upper","louches","nw","nw","h","h",1,0.488535886164755,NA,NA,NA
"experimental",25,9,"hd","upper","slooch","nw","nw","h","h",1,0.587366322055459,NA,NA,NA
"experimental",25,10,"hd","upper","latirizes","nw","nw","h","h",1,0.617759032174945,NA,NA,NA
"experimental",25,11,"hd","upper","contain","w","w","g","g",1,0.62329482100904,NA,NA,NA
"experimental",25,12,"hd","upper","unburnid","nw","nw","h","h",1,1.33269453793764,NA,NA,NA
"experimental",25,13,"hd","upper","spider","target","target","q","g",0,0.782057513482869,NA,NA,NA
"experimental",25,14,"hd","upper","dehydrate","aftertar1","w","g","g",1,1.15739797567949,NA,NA,NA
"experimental",25,15,"hd","upper","shivering","aftertar2","w","g","g",1,1.30056372145191,NA,NA,NA
"experimental",25,16,"hd","upper","smolvers","aftertar3","nw","h","h",1,0.70991877745837,NA,NA,NA
"experimental",25,17,"hd","upper","illness","nw","w","g","g",1,0.921227598562837,NA,NA,NA
"experimental",25,18,"hd","upper","ameld","w","nw","h","h",1,0.75465070689097,NA,NA,NA
"experimental",25,19,"hd","upper","gund","nw","nw","h","g",0,0.642681835219264,NA,NA,NA
"experimental",25,20,"hd","upper","anemic","nw","w","g","g",1,0.695427597966045,NA,NA,NA
"experimental",25,21,"hd","upper","chining","w","nw","h","g",0,0.954133115243167,NA,NA,NA
"experimental",25,22,"hd","upper","rootsie","nw","nw","h","h",1,0.754203103017062,NA,NA,NA
"experimental",25,23,"hd","upper","permute","nw","w","g","g",1,0.810276761185378,NA,NA,NA
"experimental",25,24,"hd","upper","movie","w","w","g","g",1,0.480270441155881,NA,NA,NA
"experimental",25,25,"hd","upper","mullet","w","w","g","g",1,1.09064737195149,NA,NA,NA
"experimental",25,26,"hd","upper","turntable","w","w","g","g",1,0.629384155850857,NA,NA,NA
"experimental",25,27,"hd","upper","cobalt","w","w","g","g",1,0.78658553166315,NA,NA,NA
"experimental",25,28,"hd","upper","cookbook","w","w","g","g",1,0.673456266056746,NA,NA,NA
"experimental",25,29,"hd","upper","kickoff","w","w","g","g",1,0.636839146260172,NA,NA,NA
"experimental",25,30,"hd","upper","snife","w","nw","h","h",1,0.937103967182338,NA,NA,NA
"experimental",26,1,"hd","upper","crudios","nw","nw","h","h",1,0.913991775363684,NA,NA,NA
"experimental",26,2,"hd","upper","redefloy","nw","nw","h","h",1,0.724082862492651,NA,NA,NA
"experimental",26,3,"hd","upper","worps","nw","nw","h","h",1,0.701423902530223,NA,NA,NA
"experimental",26,4,"hd","upper","rudder","w","w","g","h",0,0.479446744080633,NA,NA,NA
"experimental",26,5,"hd","upper","potent","w","w","g","g",1,0.578854231629521,NA,NA,NA
"experimental",26,6,"hd","upper","booster","w","w","g","g",1,0.434229468926787,NA,NA,NA
"experimental",26,7,"hd","upper","iflaid","nw","nw","h","h",1,0.791605516336858,NA,NA,NA
"experimental",26,8,"hd","upper","joses","nw","nw","h","h",1,1.22932979417965,NA,NA,NA
"experimental",26,9,"hd","upper","nimp","nw","nw","h","h",1,0.778657775372267,NA,NA,NA
"experimental",26,10,"hd","upper","lonnote","nw","nw","h","h",1,0.706100238487124,NA,NA,NA
"experimental",26,11,"hd","upper","unstatle","nw","nw","h","h",1,0.908132201991975,NA,NA,NA
"experimental",26,12,"hd","upper","stuggard","nw","nw","h","h",1,0.942209036555141,NA,NA,NA
"experimental",26,13,"hd","upper","earnest","w","w","g","g",1,0.694929340388626,NA,NA,NA
"experimental",26,14,"hd","upper","undertake","w","w","g","g",1,0.537611428648233,NA,NA,NA
"experimental",26,15,"hd","upper","pillage","w","w","g","g",1,0.906361981295049,NA,NA,NA
"experimental",26,16,"hd","upper","overcoat","w","w","g","g",1,0.548417489975691,NA,NA,NA
"experimental",26,17,"hd","upper","encounter","w","w","g","g",1,0.660060590598732,NA,NA,NA
"experimental",26,18,"hd","upper","fuhrek","nw","nw","h","h",1,1.40814097505063,NA,NA,NA
"experimental",26,19,"hd","upper","resonant","w","w","g","g",1,0.574182199314237,NA,NA,NA
"experimental",26,20,"hd","upper","nauling","nw","nw","h","h",1,0.709557582158595,NA,NA,NA
"experimental",26,21,"hd","upper","cabinet","w","w","g","g",1,0.735219991765916,NA,NA,NA
"experimental",26,22,"hd","upper","lizard","target","target","q","g",0,0.86435672827065,1,1,NA
"experimental",26,23,"hd","upper","theles","aftertar1","nw","h","h",1,0.644335520453751,NA,NA,NA
"experimental",26,24,"hd","upper","scatter","aftertar2","w","g","g",1,0.657067404128611,NA,NA,NA
"experimental",26,25,"hd","upper","eggays","aftertar3","nw","h","h",1,1.3322144895792,NA,NA,NA
"experimental",26,26,"hd","upper","rearrange","nw","w","g","h",0,0.741296745836735,NA,NA,NA
"experimental",26,27,"hd","upper","havel","w","nw","h","h",1,0.742227046750486,NA,NA,NA
"experimental",26,28,"hd","upper","living","nw","w","g","g",1,0.606888412497938,NA,NA,NA
"experimental",26,29,"hd","upper","baseline","w","w","g","g",1,1.0447961022146,NA,NA,NA
"experimental",26,30,"hd","upper","ahead","w","w","g","g",1,0.865700533147901,NA,NA,NA
"experimental",27,1,"hd","upper","stretches","w","w","g","h",0,0.996860426850617,NA,NA,NA
"experimental",27,2,"hd","upper","culer","nw","nw","h","h",1,0.907506152056158,NA,NA,NA
"experimental",27,3,"hd","upper","picnic","w","w","g","g",1,0.541535578202456,NA,NA,NA
"experimental",27,4,"hd","upper","laser","w","w","g","g",1,0.726290092803538,NA,NA,NA
"experimental",27,5,"hd","upper","gewer","nw","nw","h","h",1,0.671603278256953,NA,NA,NA
"experimental",27,6,"hd","upper","tasher","nw","nw","h","h",1,0.80302537791431,NA,NA,NA
"experimental",27,7,"hd","upper","talate","nw","nw","h","h",1,0.945035364944488,NA,NA,NA
"experimental",27,8,"hd","upper","antwers","nw","nw","h","h",1,0.664714083075523,NA,NA,NA
"experimental",27,9,"hd","upper","paterways","nw","nw","h","g",0,0.636719299480319,NA,NA,NA
"experimental",27,10,"hd","upper","vintnel","nw","nw","h","h",1,0.889015008229762,NA,NA,NA
"experimental",27,11,"hd","upper","unspoken","w","w","g","g",1,0.684329534415156,NA,NA,NA
"experimental",27,12,"hd","upper","childhood","w","w","g","g",1,0.686868164222687,NA,NA,NA
"experimental",27,13,"hd","upper","butler","w","w","g","g",1,0.529592297971249,NA,NA,NA
"experimental",27,14,"hd","upper","issue","w","w","g","g",1,0.899046370293945,NA,NA,NA
"experimental",27,15,"hd","upper","butterfly","target","target","q","g",0,0.56568931043148,1,1,NA
"experimental",27,16,"hd","upper","fonducts","aftertar1","nw","h","h",1,0.878055993001908,NA,NA,NA
"experimental",27,17,"hd","upper","splatter","aftertar2","w","g","g",1,1.26402671961114,NA,NA,NA
"experimental",27,18,"hd","upper","sonkers","aftertar3","nw","h","g",0,0.604098170995712,NA,NA,NA
"experimental",27,19,"hd","upper","melodic","nw","w","g","g",1,0.610080901533365,NA,NA,NA
"experimental",27,20,"hd","upper","sullen","w","w","g","g",1,1.04812234267592,NA,NA,NA
"experimental",27,21,"hd","upper","frunted","w","nw","h","g",0,1.70092862471938,NA,NA,NA
"experimental",27,22,"hd","upper","rivet","nw","w","g","g",1,0.679639292880893,NA,NA,NA
"experimental",27,23,"hd","upper","image","w","w","g","g",1,0.554966015741229,NA,NA,NA
"experimental",27,24,"hd","upper","harmful","w","w","g","g",1,0.522573986556381,NA,NA,NA
"experimental",27,25,"hd","upper","edasion","w","nw","h","h",1,0.867388318292797,NA,NA,NA
"experimental",27,26,"hd","upper","quickel","nw","nw","h","h",1,0.878868765663356,NA,NA,NA
"experimental",27,27,"hd","upper","pigned","nw","nw","h","h",1,0.906177576165646,NA,NA,NA
"experimental",27,28,"hd","upper","halter","nw","w","g","g",1,1.19608195358887,NA,NA,NA
"experimental",27,29,"hd","upper","addma","w","nw","h","h",1,0.746903383173048,NA,NA,NA
"experimental",27,30,"hd","upper","pircus","nw","nw","h","h",1,1.49971141992137,NA,NA,NA
"experimental",28,1,"ld","lower","withep","nw","nw","h","h",1,1.38221404282376,NA,NA,NA
"experimental",28,2,"ld","lower","single","w","w","g","g",1,0.613555791787803,NA,NA,NA
"experimental",28,3,"ld","lower","century","w","w","g","g",1,0.883624889422208,NA,NA,NA
"experimental",28,4,"ld","lower","condensed","w","w","g","g",1,0.799095930997282,NA,NA,NA
"experimental",28,5,"ld","lower","calming","w","w","g","g",1,0.533690920565277,NA,NA,NA
"experimental",28,6,"ld","lower","etcess","nw","nw","h","h",1,0.863056955393404,NA,NA,NA
"experimental",28,7,"ld","lower","unsmilung","nw","nw","h","h",1,1.1701010572724,NA,NA,NA
"experimental",28,8,"ld","lower","target","w","w","g","g",1,0.609471736475825,NA,NA,NA
"experimental",28,9,"ld","lower","gaioty","nw","nw","h","h",1,0.855389419011772,NA,NA,NA
"experimental",28,10,"ld","lower","sheerio","nw","nw","h","h",1,0.723498858045787,NA,NA,NA
"experimental",28,11,"ld","lower","hinsome","nw","nw","h","h",1,0.804436390288174,NA,NA,NA
"experimental",28,12,"ld","lower","acorn","w","w","g","h",0,0.690983009058982,NA,NA,NA
"experimental",28,13,"ld","lower","teliever","nw","nw","h","h",1,1.00563571695238,NA,NA,NA
"experimental",28,14,"ld","lower","dislokes","nw","nw","h","h",1,0.643691261764616,NA,NA,NA
"experimental",28,15,"ld","lower","dabble","w","w","g","h",0,0.616505939047784,NA,NA,NA
"experimental",28,16,"ld","lower","otoist","nw","nw","h","h",1,0.637476452160627,NA,NA,NA
"experimental",28,17,"ld","lower","huffle","nw","nw","h","h",1,0.786205796059221,NA,NA,NA
"experimental",28,18,"ld","lower","lofty","w","w","g","g",1,0.640937437769026,NA,NA,NA
"experimental",28,19,"ld","lower","ugifies","nw","nw","h","h",1,0.805600094143301,NA,NA,NA
"experimental",28,20,"ld","lower","endgume","nw","nw","h","h",1,0.835599494632334,NA,NA,NA
"experimental",28,21,"ld","lower","inversion","w","w","g","g",1,0.54453406156972,NA,NA,NA
"experimental",28,22,"ld","lower","breiled","nw","nw","h","h",1,0.89708313671872,NA,NA,NA
"experimental",28,23,"ld","lower","decency","w","w","g","g",1,0.635004367213696,NA,NA,NA
"experimental",28,24,"ld","lower","module","w","w","g","g",1,0.648038185201585,NA,NA,NA
"experimental",28,25,"ld","lower","digest","w","w","g","g",1,0.58014407241717,NA,NA,NA
"experimental",28,26,"ld","lower","gelfry","nw","nw","h","h",1,0.69156105350703,NA,NA,NA
"experimental",28,27,"ld","lower","border","w","w","g","g",1,0.68628449132666,NA,NA,NA
"experimental",28,28,"ld","lower","foster","w","w","g","g",1,0.865028134547174,NA,NA,NA
"experimental",28,29,"ld","lower","moyeur","nw","nw","h","h",1,0.829085730947554,NA,NA,NA
"experimental",28,30,"ld","lower","consonant","w","w","g","h",0,1.70646706176922,NA,NA,NA
"experimental",29,1,"ld","lower","contund","nw","nw","h","h",1,0.964321072213352,NA,NA,NA
"experimental",29,2,"ld","lower","bloodless","w","w","g","g",1,0.763723957818002,NA,NA,NA
"experimental",29,3,"ld","lower","fomes","nw","nw","h","h",1,0.723341269884259,NA,NA,NA
"experimental",29,4,"ld","lower","sazer","nw","nw","h","h",1,0.773769887164235,NA,NA,NA
"experimental",29,5,"ld","lower","senalize","nw","nw","h","g",0,0.773202104959637,NA,NA,NA
"experimental",29,6,"ld","lower","presently","w","w","g","g",1,0.700566767249256,NA,NA,NA
"experimental",29,7,"ld","lower","usage","w","w","g","g",1,0.917649746406823,NA,NA,NA
"experimental",29,8,"ld","lower","selongs","nw","nw","h","h",1,0.967181831598282,NA,NA,NA
"experimental",29,9,"ld","lower","cogantly","nw","nw","h","h",1,0.750560692045838,NA,NA,NA
"experimental",29,10,"ld","lower","computer","w","w","g","g",1,0.935407574754208,NA,NA,NA
"experimental",29,11,"ld","lower","disease","w","w","g","g",1,0.535116168670356,NA,NA,NA
"experimental",29,12,"ld","lower","frader","nw","nw","h","h",1,0.623828833922744,NA,NA,NA
"experimental",29,13,"ld","lower","trooper","w","w","g","g",1,0.805200825911015,NA,NA,NA
"experimental",29,14,"ld","lower","command","w","w","g","h",0,0.979283362161368,NA,NA,NA
"experimental",29,15,"ld","lower","oppose","w","w","g","g",1,0.586876010522246,NA,NA,NA
"experimental",29,16,"ld","lower","owner","w","w","g","g",1,0.864411685615778,NA,NA,NA
"experimental",29,17,"ld","lower","encrusted","w","w","g","g",1,0.988405941985548,NA,NA,NA
"experimental",29,18,"ld","lower","riosk","nw","nw","h","h",1,1.2350920336321,NA,NA,NA
"experimental",29,19,"ld","lower","labitable","nw","nw","h","h",1,1.62383644841611,NA,NA,NA
"experimental",29,20,"ld","lower","gonesty","nw","nw","h","h",1,0.725204189773649,NA,NA,NA
"experimental",29,21,"ld","lower","standard","w","w","g","h",0,0.774507837835699,NA,NA,NA
"experimental",29,22,"ld","lower","scrooner","nw","nw","h","h",1,0.765918939374387,NA,NA,NA
"experimental",29,23,"ld","lower","elalt","nw","nw","h","h",1,0.573920324444771,NA,NA,NA
"experimental",29,24,"ld","lower","amaze","w","w","g","g",1,0.708254829514772,NA,NA,NA
"experimental",29,25,"ld","lower","plymie","nw","nw","h","h",1,0.918407892342657,NA,NA,NA
"experimental",29,26,"ld","lower","doxing","nw","nw","h","h",1,1.056439103093,NA,NA,NA
"experimental",29,27,"ld","lower","supplier","w","w","g","g",1,0.988440042361617,NA,NA,NA
"experimental",29,28,"ld","lower","primal","w","w","g","h",0,0.987243231385946,NA,NA,NA
"experimental",29,29,"ld","lower","deeper","w","w","g","g",1,0.641965403687209,NA,NA,NA
"experimental",29,30,"ld","lower","frigs","nw","nw","h","h",1,0.70264653628692,NA,NA,NA
"experimental",30,1,"ld","lower","implode","w","w","g","g",1,0.647789553273469,NA,NA,NA
"experimental",30,2,"ld","lower","vivid","w","w","g","g",1,0.636622627731413,NA,NA,NA
"experimental",30,3,"ld","lower","trallion","nw","nw","h","h",1,0.953229630365968,NA,NA,NA
"experimental",30,4,"ld","lower","pypecast","nw","nw","h","h",1,1.15332484524697,NA,NA,NA
"experimental",30,5,"ld","lower","prohibit","w","w","g","g",1,0.537384978029877,NA,NA,NA
"experimental",30,6,"ld","lower","portify","nw","nw","h","h",1,0.970047887880355,NA,NA,NA
"experimental",30,7,"ld","lower","acroad","nw","nw","h","h",1,1.40844522649422,NA,NA,NA
"experimental",30,8,"ld","lower","butcher","w","w","g","g",1,0.686471544671804,NA,NA,NA
"experimental",30,9,"ld","lower","curtail","w","w","g","g",1,1.08917511301115,NA,NA,NA
"experimental",30,10,"ld","lower","germeated","nw","nw","h","h",1,0.683944502379745,NA,NA,NA
"experimental",30,11,"ld","lower","armada","w","w","g","h",0,0.878532731439918,NA,NA,NA
"experimental",30,12,"ld","lower","pocket","w","w","g","h",0,0.801880213432014,NA,NA,NA
"experimental",30,13,"ld","lower","parlayid","nw","nw","h","h",1,0.743936351500452,NA,NA,NA
"experimental",30,14,"ld","lower","elderly","w","w","g","g",1,0.824629223905504,NA,NA,NA
"experimental",30,15,"ld","lower","painter","w","w","g","g",1,0.973031141795218,NA,NA,NA
"experimental",30,16,"ld","lower","tapling","nw","nw","h","h",1,0.804352961014956,NA,NA,NA
"experimental",30,17,"ld","lower","threaded","w","w","g","g",1,0.745803575031459,NA,NA,NA
"experimental",30,18,"ld","lower","scrib","nw","nw","h","g",0,0.674508400727063,NA,NA,NA
"experimental",30,19,"ld","lower","decantel","nw","nw","h","h",1,0.885956270620227,NA,NA,NA
"experimental",30,20,"ld","lower","pammed","nw","nw","h","h",1,0.808694587554783,NA,NA,NA
"experimental",30,21,"ld","lower","ladybug","target","target","q","g",0,0.782842475920916,NA,NA,NA
"experimental",30,22,"ld","lower","meteoroid","aftertar1","w","g","g",1,0.84637244977057,NA,NA,NA
"experimental",30,23,"ld","lower","overwork","aftertar2","w","g","g",1,0.850130733568221,NA,NA,NA
"experimental",30,24,"ld","lower","purport","aftertar3","w","g","h",0,1.2705335309729,NA,NA,NA
"experimental",30,25,"ld","lower","grolific","w","nw","h","h",1,1.12196111353114,NA,NA,NA
"experimental",30,26,"ld","lower","ronvince","nw","nw","h","h",1,0.723306838888675,NA,NA,NA
"experimental",30,27,"ld","lower","lawsuit","nw","w","g","h",0,1.08470039675012,NA,NA,NA
"experimental",30,28,"ld","lower","nomma","w","nw","h","h",1,0.679385695140809,NA,NA,NA
"experimental",30,29,"ld","lower","eaglot","nw","nw","h","h",1,0.69876807462424,NA,NA,NA
"experimental",30,30,"ld","lower","miteous","nw","nw","h","h",1,0.645461151376367,NA,NA,NA
"experimental",31,1,"ld","lower","describe","w","w","g","g",1,0.601703555323184,NA,NA,NA
"experimental",31,2,"ld","lower","bedding","w","w","g","g",1,0.567932627629489,NA,NA,NA
"experimental",31,3,"ld","lower","oppose","w","w","g","g",1,0.551267323549837,NA,NA,NA
"experimental",31,4,"ld","lower","rarely","w","w","g","g",1,0.535320768598467,NA,NA,NA
"experimental",31,5,"ld","lower","mosary","nw","nw","h","h",1,0.767964939586818,NA,NA,NA
"experimental",31,6,"ld","lower","pressing","w","w","g","g",1,0.772187381982803,NA,NA,NA
"experimental",31,7,"ld","lower","geadpan","nw","nw","h","h",1,0.733469965867698,NA,NA,NA
"experimental",31,8,"ld","lower","joadbed","nw","nw","h","h",1,0.991235911846161,NA,NA,NA
"experimental",31,9,"ld","lower","staircase","w","w","g","h",0,0.677982628811151,NA,NA,NA
"experimental",31,10,"ld","lower","brimitar","nw","nw","h","h",1,0.625252757687122,NA,NA,NA
"experimental",31,11,"ld","lower","handed","w","w","g","g",1,0.790658661630005,NA,NA,NA
"experimental",31,12,"ld","lower","rangel","nw","nw","h","h",1,1.16541445767507,NA,NA,NA
"experimental",31,13,"ld","lower","pester","w","w","g","h",0,0.981511450372636,NA,NA,NA
"experimental",31,14,"ld","lower","inverted","w","w","g","g",1,0.523882036097348,NA,NA,NA
"experimental",31,15,"ld","lower","farochial","nw","nw","h","h",1,1.21251617185771,NA,NA,NA
"experimental",31,16,"ld","lower","sprea","nw","nw","h","h",1,0.803300164174289,NA,NA,NA
"experimental",31,17,"ld","lower","reprint","w","w","g","g",1,0.7453553089872,NA,NA,NA
"experimental",31,18,"ld","lower","frogmy","nw","nw","h","h",1,0.777992329094559,NA,NA,NA
"experimental",31,19,"ld","lower","dialogues","w","w","g","g",1,0.665355030912906,NA,NA,NA
"experimental",31,20,"ld","lower","brank","nw","nw","h","h",1,0.773031273856759,NA,NA,NA
"experimental",31,21,"ld","lower","phraining","nw","nw","h","h",1,1.14882960310206,NA,NA,NA
"experimental",31,22,"ld","lower","bloves","nw","nw","h","h",1,0.725545189809054,NA,NA,NA
"experimental",31,23,"ld","lower","vented","w","w","g","g",1,0.766081162262708,NA,NA,NA
"experimental",31,24,"ld","lower","rejoiced","w","w","g","g",1,0.805965261999518,NA,NA,NA
"experimental",31,25,"ld","lower","glassware","w","w","g","g",1,0.603476756252348,NA,NA,NA
"experimental",31,26,"ld","lower","yearnungs","nw","nw","h","h",1,0.802089448552579,NA,NA,NA
"experimental",31,27,"ld","lower","usually","w","w","g","g",1,0.504034506157041,NA,NA,NA
"experimental",31,28,"ld","lower","dingly","nw","nw","h","h",1,0.874103371985257,NA,NA,NA
"experimental",31,29,"ld","lower","gairs","nw","nw","h","h",1,1.17342067649588,NA,NA,NA
"experimental",31,30,"ld","lower","favoting","nw","nw","h","h",1,0.852796825114638,NA,NA,NA
"experimental",32,1,"hd","upper","artifact","w","w","g","g",1,0.607423087116331,NA,NA,NA
"experimental",32,2,"hd","upper","runabouk","nw","nw","h","h",1,0.709372515324503,NA,NA,NA
"experimental",32,3,"hd","upper","horks","nw","nw","h","h",1,0.831410159822553,NA,NA,NA
"experimental",32,4,"hd","upper","bamboo","w","w","g","g",1,0.70072534866631,NA,NA,NA
"experimental",32,5,"hd","upper","hubris","w","w","g","g",1,0.950999887194484,NA,NA,NA
"experimental",32,6,"hd","upper","ephically","nw","nw","h","h",1,0.893959840293974,NA,NA,NA
"experimental",32,7,"hd","upper","outfit","w","w","g","g",1,1.0166069814004,NA,NA,NA
"experimental",32,8,"hd","upper","igiom","nw","nw","h","h",1,0.59064190974459,NA,NA,NA
"experimental",32,9,"hd","upper","catacomb","w","w","g","h",0,0.789411528035998,NA,NA,NA
"experimental",32,10,"hd","upper","swatches","w","w","g","g",1,1.11644916096702,NA,NA,NA
"experimental",32,11,"hd","upper","region","w","w","g","g",1,0.686212980654091,NA,NA,NA
"experimental",32,12,"hd","upper","cills","nw","nw","h","h",1,0.760768182110041,NA,NA,NA
"experimental",32,13,"hd","upper","hangar","w","w","g","g",1,0.664869023021311,NA,NA,NA
"experimental",32,14,"hd","upper","churnad","nw","nw","h","h",1,0.740928928833455,NA,NA,NA
"experimental",32,15,"hd","upper","priant","nw","nw","h","h",1,1.01260668598115,NA,NA,NA
"experimental",32,16,"hd","upper","student","w","w","g","g",1,0.70664385240525,NA,NA,NA
"experimental",32,17,"hd","upper","funtair","nw","nw","h","h",1,0.788616633974016,NA,NA,NA
"experimental",32,18,"hd","upper","surface","w","w","g","g",1,0.811422587838024,NA,NA,NA
"experimental",32,19,"hd","upper","pranny","nw","nw","h","h",1,0.833373724482954,NA,NA,NA
"experimental",32,20,"hd","upper","veclors","nw","nw","h","h",1,1.18282400257885,NA,NA,NA
"experimental",32,21,"hd","upper","wrestle","w","w","g","g",1,0.701634461525828,NA,NA,NA
"experimental",32,22,"hd","upper","ezulated","nw","nw","h","h",1,1.32727131200954,NA,NA,NA
"experimental",32,23,"hd","upper","whirlpool","w","w","g","g",1,1.20134196290746,NA,NA,NA
"experimental",32,24,"hd","upper","befin","nw","nw","h","h",1,0.76732299849391,NA,NA,NA
"experimental",32,25,"hd","upper","miurnal","nw","nw","h","h",1,1.27812392823398,NA,NA,NA
"experimental",32,26,"hd","upper","persona","w","w","g","g",1,0.705536098685116,NA,NA,NA
"experimental",32,27,"hd","upper","culinary","w","w","g","g",1,0.651526318397373,NA,NA,NA
"experimental",32,28,"hd","upper","arrested","w","w","g","g",1,0.767666316125542,NA,NA,NA
"experimental",32,29,"hd","upper","greft","nw","nw","h","h",1,0.75104901753366,NA,NA,NA
"experimental",32,30,"hd","upper","golemic","nw","nw","h","h",1,0.743009029887617,NA,NA,NA
"experimental",33,1,"ld","lower","lecked","nw","nw","h","h",1,0.81543678836897,NA,NA,NA
"experimental",33,2,"ld","lower","other","w","w","g","g",1,0.749541002325714,NA,NA,NA
"experimental",33,3,"ld","lower","intrude","w","w","g","g",1,0.702159866690636,NA,NA,NA
"experimental",33,4,"ld","lower","appain","nw","nw","h","g",0,1.84830654878169,NA,NA,NA
"experimental",33,5,"ld","lower","curricula","w","w","g","g",1,0.916236416436732,NA,NA,NA
"experimental",33,6,"ld","lower","hostade","nw","nw","h","h",1,1.33386254636571,NA,NA,NA
"experimental",33,7,"ld","lower","recipus","nw","nw","h","h",1,1.247005186975,NA,NA,NA
"experimental",33,8,"ld","lower","blueberry","w","w","g","g",1,0.731293524615467,NA,NA,NA
"experimental",33,9,"ld","lower","fuestion","nw","nw","h","h",1,0.884713771753013,NA,NA,NA
"experimental",33,10,"ld","lower","brimitive","nw","nw","h","h",1,0.869958730880171,NA,NA,NA
"experimental",33,11,"ld","lower","caloric","w","w","g","g",1,1.01022663805634,NA,NA,NA
"experimental",33,12,"ld","lower","donastic","nw","nw","h","h",1,1.43936665216461,NA,NA,NA
"experimental",33,13,"ld","lower","grested","nw","nw","h","h",1,0.771944378037006,NA,NA,NA
"experimental",33,14,"ld","lower","apop","nw","nw","h","h",1,0.579373015090823,NA,NA,NA
"experimental",33,15,"ld","lower","ebince","nw","nw","h","h",1,0.802731058560312,NA,NA,NA
"experimental",33,16,"ld","lower","mabit","nw","nw","h","h",1,0.70437636738643,NA,NA,NA
"experimental",33,17,"ld","lower","cherry","w","w","g","g",1,0.706874275580049,NA,NA,NA
"experimental",33,18,"ld","lower","natch","nw","nw","h","h",1,1.25291640684009,NA,NA,NA
"experimental",33,19,"ld","lower","define","w","w","g","g",1,1.02496843598783,NA,NA,NA
"experimental",33,20,"ld","lower","rational","w","w","g","g",1,0.653462404385209,NA,NA,NA
"experimental",33,21,"ld","lower","monopoly","w","w","g","g",1,0.721432000398636,NA,NA,NA
"experimental",33,22,"ld","lower","vinegar","w","w","g","g",1,0.610755287110806,NA,NA,NA
"experimental",33,23,"ld","lower","lasprey","nw","nw","h","h",1,0.736843880265951,NA,NA,NA
"experimental",33,24,"ld","lower","ottans","nw","nw","h","h",1,1.08953697001562,NA,NA,NA
"experimental",33,25,"ld","lower","postal","w","w","g","g",1,0.724209330510348,NA,NA,NA
"experimental",33,26,"ld","lower","emission","w","w","g","g",1,0.973648252431303,NA,NA,NA
"experimental",33,27,"ld","lower","arrigns","nw","nw","h","h",1,0.837064802180976,NA,NA,NA
"experimental",33,28,"ld","lower","relaying","w","w","g","g",1,0.62570731388405,NA,NA,NA
"experimental",33,29,"ld","lower","gaining","w","w","g","g",1,1.08618192654103,NA,NA,NA
"experimental",33,30,"ld","lower","maintain","w","w","g","g",1,0.552723692264408,NA,NA,NA
"experimental",34,1,"hd","upper","realize","w","w","g","g",1,0.568456045817584,NA,NA,NA
"experimental",34,2,"hd","upper","etuip","nw","nw","h","h",1,0.624936256557703,NA,NA,NA
"experimental",34,3,"hd","upper","create","w","w","g","g",1,0.654232799541205,NA,NA,NA
"experimental",34,4,"hd","upper","impirt","nw","nw","h","h",1,0.82536916108802,NA,NA,NA
"experimental",34,5,"hd","upper","surdens","nw","nw","h","h",1,0.726795964874327,NA,NA,NA
"experimental",34,6,"hd","upper","gettle","nw","nw","h","h",1,0.496122973039746,NA,NA,NA
"experimental",34,7,"hd","upper","rillains","nw","nw","h","h",1,0.73088796576485,NA,NA,NA
"experimental",34,8,"hd","upper","managed","w","w","g","g",1,0.588226106017828,NA,NA,NA
"experimental",34,9,"hd","upper","rander","nw","nw","h","h",1,0.706949428189546,NA,NA,NA
"experimental",34,10,"hd","upper","urgent","w","w","g","g",1,0.524592177011073,NA,NA,NA
"experimental",34,11,"hd","upper","thamp","nw","nw","h","h",1,0.6383650386706,NA,NA,NA
"experimental",34,12,"hd","upper","brudent","nw","nw","h","h",1,0.571116840001196,NA,NA,NA
"experimental",34,13,"hd","upper","padicals","nw","nw","h","h",1,1.04956944100559,NA,NA,NA
"experimental",34,14,"hd","upper","retain","w","w","g","h",0,0.454120699781924,NA,NA,NA
"experimental",34,15,"hd","upper","handcuff","w","w","g","g",1,0.434365537948906,NA,NA,NA
"experimental",34,16,"hd","upper","blerapies","nw","nw","h","h",1,0.846224461682141,NA,NA,NA
"experimental",34,17,"hd","upper","lancos","nw","nw","h","h",1,1.11491631576791,NA,NA,NA
"experimental",34,18,"hd","upper","prillway","nw","nw","h","h",1,0.772959432564676,NA,NA,NA
"experimental",34,19,"hd","upper","shamrock","w","w","g","h",0,1.70851504895836,NA,NA,NA
"experimental",34,20,"hd","upper","telecast","w","w","g","g",1,0.958402568940073,NA,NA,NA
"experimental",34,21,"hd","upper","vorm","nw","nw","h","h",1,0.741471218410879,NA,NA,NA
"experimental",34,22,"hd","upper","terrify","w","w","g","g",1,0.726103039458394,NA,NA,NA
"experimental",34,23,"hd","upper","result","w","w","g","g",1,0.638797413557768,NA,NA,NA
"experimental",34,24,"hd","upper","dazid","nw","nw","h","h",1,0.628142981324345,NA,NA,NA
"experimental",34,25,"hd","upper","actively","w","w","g","g",1,0.593628805596381,NA,NA,NA
"experimental",34,26,"hd","upper","daylight","w","w","g","g",1,0.455305923707783,NA,NA,NA
"experimental",34,27,"hd","upper","tuckel","nw","nw","h","g",0,0.484349199570715,NA,NA,NA
"experimental",34,28,"hd","upper","giraffe","target","target","q","g",0,0.727674288675189,1,1,NA
"experimental",34,29,"hd","upper","inside","aftertar1","w","g","g",1,0.601174177601933,NA,NA,NA
"experimental",34,30,"hd","upper","handbook","aftertar2","w","g","g",1,0.863120188936591,NA,NA,NA
"experimental",35,1,"hd","upper","naxis","nw","nw","h","h",1,0.827042047400028,NA,NA,NA
"experimental",35,2,"hd","upper","ronic","nw","nw","h","h",1,0.672449488192797,NA,NA,NA
"experimental",35,3,"hd","upper","tusied","nw","nw","h","h",1,0.72382131870836,NA,NA,NA
"experimental",35,4,"hd","upper","mineluyer","nw","nw","h","h",1,1.04521490307525,NA,NA,NA
"experimental",35,5,"hd","upper","venturous","w","w","g","g",1,1.04894637130201,NA,NA,NA
"experimental",35,6,"hd","upper","addition","w","w","g","g",1,0.621603062842041,NA,NA,NA
"experimental",35,7,"hd","upper","grummer","nw","nw","h","h",1,0.819006032776088,NA,NA,NA
"experimental",35,8,"hd","upper","rapport","w","w","g","g",1,0.935724406968802,NA,NA,NA
"experimental",35,9,"hd","upper","intercede","w","w","g","g",1,0.896443513222039,NA,NA,NA
"experimental",35,10,"hd","upper","dolphin","target","target","q","g",0,0.547113412991166,NA,NA,NA
"experimental",35,11,"hd","upper","newstrint","aftertar1","nw","h","h",1,1.60387503076345,NA,NA,NA
"experimental",35,12,"hd","upper","kilotin","aftertar2","nw","h","g",0,0.713876033667475,NA,NA,NA
"experimental",35,13,"hd","upper","alomalous","aftertar3","nw","h","h",1,0.802981345914304,NA,NA,NA
"experimental",35,14,"hd","upper","embrace","nw","w","g","g",1,0.944859898649156,NA,NA,NA
"experimental",35,15,"hd","upper","fraft","w","nw","h","h",1,0.633198059629649,NA,NA,NA
"experimental",35,16,"hd","upper","hindsight","nw","w","g","g",1,1.35910350549966,NA,NA,NA
"experimental",35,17,"hd","upper","hackal","w","nw","h","h",1,0.703120294958353,NA,NA,NA
"experimental",35,18,"hd","upper","leather","nw","w","g","g",1,0.864519282709807,NA,NA,NA
"experimental",35,19,"hd","upper","sooled","w","nw","h","h",1,1.36451646871865,NA,NA,NA
"experimental",35,20,"hd","upper","grefab","nw","nw","h","h",1,0.884645571932197,NA,NA,NA
"experimental",35,21,"hd","upper","corduroy","nw","w","g","g",1,1.64641694491729,NA,NA,NA
"experimental",35,22,"hd","upper","abhorrent","w","w","g","g",1,0.851001442875713,NA,NA,NA
"experimental",35,23,"hd","upper","asthmatic","w","w","g","g",1,0.743060345295817,NA,NA,NA
"experimental",35,24,"hd","upper","dumult","w","nw","h","h",1,0.855704595800489,NA,NA,NA
"experimental",35,25,"hd","upper","party","nw","w","g","g",1,0.907732934225351,NA,NA,NA
"experimental",35,26,"hd","upper","cutout","w","w","g","g",1,1.14187452569604,NA,NA,NA
"experimental",35,27,"hd","upper","pepperoni","w","w","g","g",1,0.670458444859833,NA,NA,NA
"experimental",35,28,"hd","upper","pallir","w","nw","h","h",1,0.810070175211877,NA,NA,NA
"experimental",35,29,"hd","upper","finish","nw","w","g","g",1,0.606906620785594,NA,NA,NA
"experimental",35,30,"hd","upper","figure","w","w","g","g",1,0.540973424445838,NA,NA,NA
"experimental",36,1,"hd","upper","minister","w","w","g","g",1,1.19850669614971,NA,NA,NA
"experimental",36,2,"hd","upper","puggers","nw","nw","h","h",1,0.693184611853212,NA,NA,NA
"experimental",36,3,"hd","upper","huests","nw","nw","h","h",1,0.919023679103702,NA,NA,NA
"experimental",36,4,"hd","upper","gigoho","nw","nw","h","g",0,1.98435797309503,NA,NA,NA
"experimental",36,5,"hd","upper","ready","w","w","g","g",1,0.718387498520315,NA,NA,NA
"experimental",36,6,"hd","upper","handle","w","w","g","g",1,1.02444766601548,NA,NA,NA
"experimental",36,7,"hd","upper","dests","nw","nw","h","h",1,1.62180402129889,NA,NA,NA
"experimental",36,8,"hd","upper","servant","w","w","g","g",1,0.627172952052206,NA,NA,NA
"experimental",36,9,"hd","upper","shimble","nw","nw","h","h",1,0.848622387740761,NA,NA,NA
"experimental",36,10,"hd","upper","larger","w","w","g","g",1,0.533406533300877,NA,NA,NA
"experimental",36,11,"hd","upper","irfirm","nw","nw","h","h",1,0.941697867587209,NA,NA,NA
"experimental",36,12,"hd","upper","demise","w","w","g","g",1,0.694579070433974,NA,NA,NA
"experimental",36,13,"hd","upper","pegend","nw","nw","h","h",1,0.64912375761196,NA,NA,NA
"experimental",36,14,"hd","upper","chone","nw","nw","h","h",1,1.83785439934582,NA,NA,NA
"experimental",36,15,"hd","upper","elpired","nw","nw","h","h",1,0.94653808278963,NA,NA,NA
"experimental",36,16,"hd","upper","tinion","nw","nw","h","h",1,0.787507886998355,NA,NA,NA
"experimental",36,17,"hd","upper","wimpid","nw","nw","h","h",1,0.706071766559035,NA,NA,NA
"experimental",36,18,"hd","upper","fillings","w","w","g","g",1,0.571146635804325,NA,NA,NA
"experimental",36,19,"hd","upper","oleandur","nw","nw","h","h",1,0.72198885679245,NA,NA,NA
"experimental",36,20,"hd","upper","fashing","nw","nw","h","g",0,0.71577272284776,NA,NA,NA
"experimental",36,21,"hd","upper","stooping","w","w","g","g",1,1.16582067823038,NA,NA,NA
"experimental",36,22,"hd","upper","happen","w","w","g","g",1,0.685859399847686,NA,NA,NA
"experimental",36,23,"hd","upper","volition","w","w","g","g",1,1.20064738206565,NA,NA,NA
"experimental",36,24,"hd","upper","coyote","target","target","q","g",0,1.41453787218779,NA,NA,NA
"experimental",36,25,"hd","upper","shazer","aftertar1","nw","h","q",0,0.292580677662045,NA,NA,1
"experimental",36,26,"hd","upper","attract","aftertar2","w","g","g",1,2.09539124649018,NA,NA,NA
"experimental",36,27,"hd","upper","derisury","aftertar3","nw","h","h",1,1.24105258285999,NA,NA,NA
"experimental",36,28,"hd","upper","budget","nw","w","g","g",1,0.627916200086474,NA,NA,NA
"experimental",36,29,"hd","upper","organize","w","w","g","g",1,0.834543387871236,NA,NA,NA
"experimental",36,30,"hd","upper","dishwater","w","w","g","g",1,0.919187226332724,NA,NA,NA
"experimental",37,1,"hd","upper","racile","nw","nw","h","h",1,0.735996345989406,NA,NA,NA
"experimental",37,2,"hd","upper","clattest","nw","nw","h","h",1,0.727825917303562,NA,NA,NA
"experimental",37,3,"hd","upper","chesume","nw","nw","h","h",1,0.929187799338251,NA,NA,NA
"experimental",37,4,"hd","upper","footstep","w","w","g","g",1,0.834533455781639,NA,NA,NA
"experimental",37,5,"hd","upper","ulcer","w","w","g","g",1,1.38273117085919,NA,NA,NA
"experimental",37,6,"hd","upper","vergas","nw","nw","h","h",1,0.990067903883755,NA,NA,NA
"experimental",37,7,"hd","upper","erithets","nw","nw","h","h",1,1.0207784390077,NA,NA,NA
