"procedure","block","trial","PMdemand","context","stim","role","word_type","correct_key","response","correct","reaction_time","pressedQ","pressedQ_blank","pressedQ_fix"
"LDTpractice",1,1,NA,"lower","hiring","","w","g","g",1,0.596413259394467,NA,NA,NA
"LDTpractice",2,1,NA,"lower","summary","","w","g","g",1,0.480399729683995,NA,NA,NA
"LDTpractice",3,1,NA,"lower","alolition","","nw","h","h",1,0.443553841672838,NA,NA,NA
"LDTpractice",4,1,NA,"lower","lurshing","","nw","h","g",0,0.50486499723047,NA,NA,NA
"LDTpractice",5,1,NA,"lower","grocus","","nw","h","h",1,0.554661605041474,NA,NA,NA
"LDTpractice",6,1,NA,"lower","hasking","","nw","h","g",0,0.402948344592005,NA,NA,NA
"LDTpractice",7,1,NA,"lower","treeps","","nw","h","g",0,0.464189644437283,NA,NA,NA
"LDTpractice",8,1,NA,"lower","grimace","","w","g","h",0,0.38886934472248,NA,NA,NA
"LDTpractice",9,1,NA,"lower","revival","","w","g","g",1,0.507263253908604,NA,NA,NA
"LDTpractice",10,1,NA,"lower","picture","","w","g","g",1,0.485526980832219,NA,NA,NA
"LDTpractice",11,1,NA,"lower","turative","","nw","h","h",1,0.504228353034705,NA,NA,NA
"LDTpractice",12,1,NA,"lower","umpire","","w","g","h",0,0.538261818233877,NA,NA,NA
"LDTpractice",13,1,NA,"lower","slumber","","w","g","g",1,0.451265740673989,NA,NA,NA
"LDTpractice",14,1,NA,"lower","curlecs","","nw","h","h",1,0.471710848622024,NA,NA,NA
"LDTpractice",1,2,NA,"upper","sponsor","","w","g","g",1,0.482911542989314,NA,NA,NA
"LDTpractice",2,2,NA,"upper","infinity","","w","g","g",1,0.524374175351113,NA,NA,NA
"LDTpractice",3,2,NA,"upper","trotch","","nw","h","h",1,0.447619357146323,NA,NA,NA
"LDTpractice",4,2,NA,"upper","crinklo","","nw","h","h",1,0.371369749307633,NA,NA,NA
"LDTpractice",5,2,NA,"upper","grutch","","nw","h","h",1,0.666729134973139,NA,NA,NA
"LDTpractice",6,2,NA,"upper","latador","","nw","h","g",0,0.374224218074232,NA,NA,NA
"LDTpractice",7,2,NA,"upper","lumbigo","","nw","h","h",1,0.590120649430901,NA,NA,NA
"LDTpractice",8,2,NA,"upper","overshoot","","w","g","g",1,0.444818852934986,NA,NA,NA
"LDTpractice",9,2,NA,"upper","unscrew","","w","g","g",1,0.569557019509375,NA,NA,NA
"LDTpractice",10,2,NA,"upper","tricycle","","w","g","h",0,0.463970808312297,NA,NA,NA
"LDTpractice",11,2,NA,"upper","julled","","nw","h","h",1,0.451815975829959,NA,NA,NA
"LDTpractice",12,2,NA,"upper","reputable","","w","g","g",1,0.520052412990481,NA,NA,NA
"LDTpractice",13,2,NA,"upper","busted","","w","g","g",1,0.585432725958526,NA,NA,NA
"LDTpractice",14,2,NA,"upper","raestro","","nw","h","h",1,0.440154434647411,NA,NA,NA
"experimental",1,1,"hd","lower","snorls","nw","nw","h","q",0,0.723172266036272,NA,NA,NA
"experimental",1,2,"hd","lower","sweeping","w","w","g","g",1,0.685132215265185,NA,NA,NA
"experimental",1,3,"hd","lower","ahead","w","w","g","g",1,0.64051020052284,NA,NA,NA
"experimental",1,4,"hd","lower","otiates","nw","nw","h","h",1,0.885013891849667,NA,NA,NA
"experimental",1,5,"hd","lower","tablet","w","w","g","g",1,0.576342259068042,NA,NA,NA
"experimental",1,6,"hd","lower","endgume","nw","nw","h","h",1,0.904341644141823,NA,NA,NA
"experimental",1,7,"hd","lower","tinker","w","w","g","g",1,0.619030836038291,NA,NA,NA
"experimental",1,8,"hd","lower","cartles","nw","nw","h","h",1,0.72109977947548,NA,NA,NA
"experimental",1,9,"hd","lower","blerapies","nw","nw","h","h",1,0.690984173677862,NA,NA,NA
"experimental",1,10,"hd","lower","stooping","w","w","g","g",1,0.69435709528625,NA,NA,NA
"experimental",1,11,"hd","lower","oginous","nw","nw","h","h",1,0.569766916334629,NA,NA,NA
"experimental",1,12,"hd","lower","perishing","w","w","g","g",1,0.72969033382833,NA,NA,NA
"experimental",1,13,"hd","lower","tragedy","w","w","g","g",1,0.611294769216329,NA,NA,NA
"experimental",1,14,"hd","lower","insertion","w","w","g","g",1,0.576646179426461,NA,NA,NA
"experimental",1,15,"hd","lower","expired","w","w","g","g",1,0.567846059333533,NA,NA,NA
"experimental",1,16,"hd","lower","trewl","nw","nw","h","h",1,0.561542854644358,NA,NA,NA
"experimental",1,17,"hd","lower","absent","w","w","g","g",1,0.554323584772646,NA,NA,NA
"experimental",1,18,"hd","lower","adok","nw","nw","h","h",1,0.530923694837838,NA,NA,NA
"experimental",1,19,"hd","lower","neliefs","nw","nw","h","h",1,0.653128859587014,NA,NA,NA
"experimental",1,20,"hd","lower","lonnote","nw","nw","h","h",1,0.585724065545946,NA,NA,NA
"experimental",1,21,"hd","lower","inversion","w","w","g","g",1,0.513152954634279,NA,NA,NA
"experimental",1,22,"hd","lower","affluent","w","w","g","h",0,0.979826485272497,NA,NA,NA
"experimental",1,23,"hd","lower","elpired","nw","nw","h","h",1,0.683080917224288,NA,NA,NA
"experimental",1,24,"hd","lower","create","w","w","g","g",1,0.470906022004783,NA,NA,NA
"experimental",1,25,"hd","lower","poars","nw","nw","h","h",1,0.922941378783435,NA,NA,NA
"experimental",1,26,"hd","lower","harfing","nw","nw","h","h",1,0.660988746210933,NA,NA,NA
"experimental",1,27,"hd","lower","gontracts","nw","nw","h","h",1,0.618025050964206,NA,NA,NA
"experimental",1,28,"hd","lower","kangaroo","target","target","q","g",0,0.535765233915299,NA,NA,NA
"experimental",1,29,"hd","lower","statute","aftertar1","w","g","h",0,1.00915679754689,NA,NA,NA
"experimental",1,30,"hd","lower","twarfs","aftertar2","nw","h","h",1,0.792064217384905,NA,NA,NA
"experimental",2,1,"hd","lower","ulcer","w","w","g","h",0,0.654316400643438,NA,NA,NA
"experimental",2,2,"hd","lower","porghum","nw","nw","h","h",1,0.6991883716546,NA,NA,NA
"experimental",2,3,"hd","lower","eightiech","nw","nw","h","h",1,0.702309681102633,NA,NA,NA
"experimental",2,4,"hd","lower","frigs","nw","nw","h","h",1,0.817204863298684,NA,NA,NA
"experimental",2,5,"hd","lower","deadly","w","w","g","g",1,0.59104134934023,NA,NA,NA
"experimental",2,6,"hd","lower","fudden","nw","nw","h","h",1,0.65434884512797,NA,NA,NA
"experimental",2,7,"hd","lower","advantage","w","w","g","g",1,0.673307126387954,NA,NA,NA
"experimental",2,8,"hd","lower","diatonic","w","w","g","h",0,0.886206398252398,NA,NA,NA
"experimental",2,9,"hd","lower","frogmy","nw","nw","h","h",1,0.609567586798221,NA,NA,NA
"experimental",2,10,"hd","lower","maunches","nw","nw","h","h",1,0.71225264808163,NA,NA,NA
"experimental",2,11,"hd","lower","trises","nw","nw","h","h",1,0.650948114227504,NA,NA,NA
"experimental",2,12,"hd","lower","grieving","w","w","g","g",1,0.615740350913256,NA,NA,NA
"experimental",2,13,"hd","lower","system","w","w","g","g",1,0.566554562654346,NA,NA,NA
"experimental",2,14,"hd","lower","divider","w","w","g","g",1,0.639088924974203,NA,NA,NA
"experimental",2,15,"hd","lower","paying","w","w","g","g",1,0.604469800833613,NA,NA,NA
"experimental",2,16,"hd","lower","entropy","w","w","g","h",0,0.698208409827203,NA,NA,NA
"experimental",2,17,"hd","lower","vergas","nw","nw","h","h",1,0.621540994383395,NA,NA,NA
"experimental",2,18,"hd","lower","sorping","nw","nw","h","h",1,0.603588166646659,NA,NA,NA
"experimental",2,19,"hd","lower","maiden","w","w","g","g",1,0.642301609739661,NA,NA,NA
"experimental",2,20,"hd","lower","trooper","w","w","g","g",1,0.711865298449993,NA,NA,NA
"experimental",2,21,"hd","lower","rocket","w","w","g","g",1,0.586387856863439,NA,NA,NA
"experimental",2,22,"hd","lower","anonymous","w","w","g","g",1,0.785999050363898,NA,NA,NA
"experimental",2,23,"hd","lower","dazid","nw","nw","h","h",1,0.813942187465727,NA,NA,NA
"experimental",2,24,"hd","lower","catgup","nw","nw","h","h",1,0.647133879363537,NA,NA,NA
"experimental",2,25,"hd","lower","fravity","nw","nw","h","h",1,0.731580401305109,NA,NA,NA
"experimental",2,26,"hd","lower","pracking","nw","nw","h","h",1,0.717516630422324,NA,NA,NA
"experimental",2,27,"hd","lower","ralliep","nw","nw","h","h",1,0.6956747462973,NA,NA,NA
"experimental",2,28,"hd","lower","reprint","w","w","g","h",0,0.714746914803982,NA,NA,NA
"experimental",2,29,"hd","lower","retain","w","w","g","g",1,0.565518651157618,NA,NA,NA
"experimental",2,30,"hd","lower","filny","nw","nw","h","h",1,0.670152709819376,NA,NA,NA
"experimental",3,1,"ld","upper","thrapping","nw","nw","h","h",1,0.68196720443666,NA,NA,NA
"experimental",3,2,"ld","upper","dests","nw","nw","h","h",1,0.742076251655817,NA,NA,NA
"experimental",3,3,"ld","upper","outflow","w","w","g","g",1,0.583493990823627,NA,NA,NA
"experimental",3,4,"ld","upper","cookbook","w","w","g","g",1,0.695412871427834,NA,NA,NA
"experimental",3,5,"ld","upper","aefated","nw","nw","h","h",1,0.714838289655745,NA,NA,NA
"experimental",3,6,"ld","upper","hostade","nw","nw","h","h",1,0.805447312537581,NA,NA,NA
"experimental",3,7,"ld","upper","rootsie","nw","nw","h","h",1,0.67615629825741,NA,NA,NA
"experimental",3,8,"ld","upper","fonducts","nw","nw","h","h",1,0.584176984615624,NA,NA,NA
"experimental",3,9,"ld","upper","forecast","w","w","g","g",1,0.639575926586986,NA,NA,NA
"experimental",3,10,"ld","upper","earnest","w","w","g","g",1,0.66800639545545,NA,NA,NA
"experimental",3,11,"ld","upper","stuggard","nw","nw","h","h",1,0.680049989372492,NA,NA,NA
"experimental",3,12,"ld","upper","geborn","nw","nw","h","h",1,0.619991926476359,NA,NA,NA
"experimental",3,13,"ld","upper","monkey","target","target","q","q",1,0.698223639279604,1,NA,NA
"experimental",3,14,"ld","upper","withep","aftertar1","nw","h","h",1,0.701452877372503,NA,NA,NA
"experimental",3,15,"ld","upper","aicline","aftertar2","nw","h","h",1,0.792073818389326,NA,NA,NA
"experimental",3,16,"ld","upper","etuip","aftertar3","nw","h","h",1,0.599670307245106,NA,NA,NA
"experimental",3,17,"ld","upper","monopoly","nw","w","g","g",1,0.646765069570392,NA,NA,NA
"experimental",3,18,"ld","upper","rodeo","w","w","g","g",1,0.660175974015146,NA,NA,NA
"experimental",3,19,"ld","upper","agony","w","w","g","g",1,0.711871257517487,NA,NA,NA
"experimental",3,20,"ld","upper","tapling","w","nw","h","h",1,0.642442313954234,NA,NA,NA
"experimental",3,21,"ld","upper","volition","nw","w","g","h",0,0.823164088185877,NA,NA,NA
"experimental",3,22,"ld","upper","surround","w","w","g","g",1,0.613889018073678,NA,NA,NA
"experimental",3,23,"ld","upper","spaceship","w","w","g","g",1,0.572580663487315,NA,NA,NA
"experimental",3,24,"ld","upper","purport","w","w","g","h",0,0.668629797175527,NA,NA,NA
"experimental",3,25,"ld","upper","inforl","w","nw","h","h",1,0.601001531817019,NA,NA,NA
"experimental",3,26,"ld","upper","heaviest","nw","w","g","g",1,0.615899594500661,NA,NA,NA
"experimental",3,27,"ld","upper","nearsipe","w","nw","h","h",1,0.623364516999573,NA,NA,NA
"experimental",3,28,"ld","upper","yellep","nw","nw","h","h",1,0.572442608419806,NA,NA,NA
"experimental",3,29,"ld","upper","module","nw","w","g","g",1,0.620477934833616,NA,NA,NA
"experimental",3,30,"ld","upper","ignoble","w","w","g","h",0,0.602542322594672,NA,NA,NA
"experimental",4,1,"ld","upper","arrival","w","w","g","g",1,0.60138590214774,NA,NA,NA
"experimental",4,2,"ld","upper","pregs","nw","nw","h","h",1,0.600088445935398,NA,NA,NA
"experimental",4,3,"ld","upper","noblin","nw","nw","h","h",1,0.6224759304896,NA,NA,NA
"experimental",4,4,"ld","upper","dominion","w","w","g","g",1,0.932730730623007,NA,NA,NA
"experimental",4,5,"ld","upper","latpin","nw","nw","h","h",1,0.726554457098246,NA,NA,NA
"experimental",4,6,"ld","upper","regards","w","w","g","g",1,0.552533830981702,NA,NA,NA
"experimental",4,7,"ld","upper","sporidic","nw","nw","h","h",1,0.585336384829134,NA,NA,NA
"experimental",4,8,"ld","upper","atch","nw","nw","h","h",1,0.576625322457403,NA,NA,NA
"experimental",4,9,"ld","upper","decant","w","w","g","h",0,0.704724823124707,NA,NA,NA
"experimental",4,10,"ld","upper","fission","w","w","g","h",0,0.563385910820216,NA,NA,NA
"experimental",4,11,"ld","upper","describe","w","w","g","g",1,0.556050435639918,NA,NA,NA
"experimental",4,12,"ld","upper","optional","w","w","g","g",1,0.555728968698531,NA,NA,NA
"experimental",4,13,"ld","upper","quittint","nw","nw","h","h",1,0.601994073949754,NA,NA,NA
"experimental",4,14,"ld","upper","plartly","nw","nw","h","h",1,0.731054333969951,NA,NA,NA
"experimental",4,15,"ld","upper","company","w","w","g","g",1,0.621104977559298,NA,NA,NA
"experimental",4,16,"ld","upper","hatred","w","w","g","h",0,0.667283674236387,NA,NA,NA
"experimental",4,17,"ld","upper","neuran","nw","nw","h","h",1,0.591152257286012,NA,NA,NA
"experimental",4,18,"ld","upper","trembla","nw","nw","h","h",1,0.606085744220763,NA,NA,NA
"experimental",4,19,"ld","upper","plymie","nw","nw","h","h",1,0.581189095508307,NA,NA,NA
"experimental",4,20,"ld","upper","finstrel","nw","nw","h","h",1,0.49320842185989,NA,NA,NA
"experimental",4,21,"ld","upper","presence","w","w","g","g",1,0.60863860975951,NA,NA,NA
"experimental",4,22,"ld","upper","ounside","nw","nw","h","h",1,0.654373344033957,NA,NA,NA
"experimental",4,23,"ld","upper","assent","w","w","g","h",0,0.595058860257268,NA,NA,NA
"experimental",4,24,"ld","upper","ergonomic","w","w","g","h",0,0.746409601531923,NA,NA,NA
"experimental",4,25,"ld","upper","pimorous","nw","nw","h","h",1,0.547759167384356,NA,NA,NA
"experimental",4,26,"ld","upper","prame","nw","nw","h","h",1,0.60506605450064,NA,NA,NA
"experimental",4,27,"ld","upper","roughly","w","w","g","g",1,0.571770208887756,NA,NA,NA
"experimental",4,28,"ld","upper","mosary","nw","nw","h","h",1,0.531698063015938,NA,NA,NA
"experimental",4,29,"ld","upper","usage","w","w","g","g",1,0.557730937376618,NA,NA,NA
"experimental",4,30,"ld","upper","maximized","w","w","g","g",1,0.5743995513767,NA,NA,NA
"experimental",5,1,"ld","upper","upstairs","w","w","g","g",1,0.581373500172049,NA,NA,NA
"experimental",5,2,"ld","upper","sefraud","nw","nw","h","h",1,0.661423769313842,NA,NA,NA
"experimental",5,3,"ld","upper","amms","nw","nw","h","h",1,0.538338956888765,NA,NA,NA
"experimental",5,4,"ld","upper","podges","nw","nw","h","h",1,0.547500933986157,NA,NA,NA
"experimental",5,5,"ld","upper","blassed","nw","nw","h","h",1,0.661065223161131,NA,NA,NA
"experimental",5,6,"ld","upper","distrust","w","w","g","g",1,0.689471855293959,NA,NA,NA
"experimental",5,7,"ld","upper","boutique","w","w","g","g",1,0.651214624289423,NA,NA,NA
"experimental",5,8,"ld","upper","cayward","nw","nw","h","h",1,0.671741505153477,NA,NA,NA
"experimental",5,9,"ld","upper","lecked","nw","nw","h","h",1,0.707827923353761,NA,NA,NA
"experimental",5,10,"ld","upper","surface","w","w","g","g",1,0.53367189085111,NA,NA,NA
"experimental",5,11,"ld","upper","mustled","nw","nw","h","h",1,0.600672119297087,NA,NA,NA
"experimental",5,12,"ld","upper","triplet","w","w","g","g",1,0.647941685281694,NA,NA,NA
"experimental",5,13,"ld","upper","emotion","w","w","g","g",1,0.637468678411096,NA,NA,NA
"experimental",5,14,"ld","upper","topefuls","nw","nw","h","h",1,0.658653723075986,NA,NA,NA
"experimental",5,15,"ld","upper","aqueduct","w","w","g","h",0,0.983428505714983,NA,NA,NA
"experimental",5,16,"ld","upper","buaint","nw","nw","h","h",1,0.614424023777246,NA,NA,NA
"experimental",5,17,"ld","upper","cills","nw","nw","h","h",1,0.709128028247505,NA,NA,NA
"experimental",5,18,"ld","upper","courier","w","w","g","h",0,0.672107997816056,NA,NA,NA
"experimental",5,19,"ld","upper","levels","w","w","g","g",1,0.507850237190723,NA,NA,NA
"experimental",5,20,"ld","upper","personify","w","w","g","h",0,0.69458818109706,NA,NA,NA
"experimental",5,21,"ld","upper","dariner","nw","nw","h","h",1,0.722027101553977,NA,NA,NA
"experimental",5,22,"ld","upper","innocent","w","w","g","g",1,0.564048377797008,NA,NA,NA
"experimental",5,23,"ld","upper","corg","nw","nw","h","h",1,0.692636535037309,NA,NA,NA
"experimental",5,24,"ld","upper","markot","nw","nw","h","h",1,0.616104856599122,NA,NA,NA
"experimental",5,25,"ld","upper","olerates","nw","nw","h","h",1,0.701749513857067,NA,NA,NA
"experimental",5,26,"ld","upper","phonology","w","w","g","g",1,0.920421950984746,NA,NA,NA
"experimental",5,27,"ld","upper","parent","w","w","g","g",1,0.514425911009312,NA,NA,NA
"experimental",5,28,"ld","upper","ignore","w","w","g","g",1,0.573174600023776,NA,NA,NA
"experimental",5,29,"ld","upper","blueberry","w","w","g","g",1,0.885200282558799,NA,NA,NA
"experimental",5,30,"ld","upper","troven","nw","nw","h","h",1,0.672575134783983,NA,NA,NA
"experimental",6,1,"hd","lower","rasuals","nw","nw","h","h",1,0.739641908556223,NA,NA,NA
"experimental",6,2,"hd","lower","facienda","nw","nw","h","h",1,0.556150749325752,NA,NA,NA
"experimental",6,3,"hd","lower","acroad","nw","nw","h","h",1,0.565752054098994,NA,NA,NA
"experimental",6,4,"hd","lower","pastnoss","nw","nw","h","h",1,0.654388573486358,NA,NA,NA
"experimental",6,5,"hd","lower","amaze","w","w","g","g",1,0.562789325602353,NA,NA,NA
"experimental",6,6,"hd","lower","detrabe","nw","nw","h","h",1,0.795863223262131,NA,NA,NA
"experimental",6,7,"hd","lower","failure","w","w","g","g",1,0.57131002470851,NA,NA,NA
"experimental",6,8,"hd","lower","duries","nw","nw","h","h",1,0.619280130136758,NA,NA,NA
"experimental",6,9,"hd","lower","decency","w","w","g","g",1,0.649396067019552,NA,NA,NA
"experimental",6,10,"hd","lower","giraffe","target","target","q","q",1,0.837663875892758,1,NA,NA
"experimental",6,11,"hd","lower","nostril","aftertar1","w","g","g",1,0.715040240902454,NA,NA,NA
"experimental",6,12,"hd","lower","balign","aftertar2","nw","h","h",1,0.933808025904,NA,NA,NA
"experimental",6,13,"hd","lower","flougy","aftertar3","nw","h","h",1,0.655725094955415,NA,NA,NA
"experimental",6,14,"hd","lower","boulder","nw","w","g","g",1,0.876423006411642,NA,NA,NA
"experimental",6,15,"hd","lower","meteoroid","w","w","g","g",1,0.985418886877596,NA,NA,NA
"experimental",6,16,"hd","lower","rainfall","w","w","g","g",1,0.583932656329125,NA,NA,NA
"experimental",6,17,"hd","lower","prison","w","w","g","g",1,0.567274966742843,NA,NA,NA
"experimental",6,18,"hd","lower","frequency","w","w","g","g",1,0.591222112532705,NA,NA,NA
"experimental",6,19,"hd","lower","hustle","w","w","g","g",1,0.589549556840211,NA,NA,NA
"experimental",6,20,"hd","lower","intersect","w","w","g","g",1,0.676925369072706,NA,NA,NA
"experimental",6,21,"hd","lower","metebing","w","nw","h","h",1,0.680969365406781,NA,NA,NA
"experimental",6,22,"hd","lower","cobalt","nw","w","g","g",1,0.733068221248686,NA,NA,NA
"experimental",6,23,"hd","lower","rualify","w","nw","h","h",1,0.630922800395638,NA,NA,NA
"experimental",6,24,"hd","lower","moyeur","nw","nw","h","h",1,0.596874768380076,NA,NA,NA
"experimental",6,25,"hd","lower","buzzer","nw","w","g","g",1,0.668269264046103,NA,NA,NA
"experimental",6,26,"hd","lower","remover","w","w","g","g",1,0.64021323248744,NA,NA,NA
"experimental",6,27,"hd","lower","eugenifs","w","nw","h","h",1,0.613647007383406,NA,NA,NA
"experimental",6,28,"hd","lower","audience","nw","w","g","g",1,0.626587464474142,NA,NA,NA
"experimental",6,29,"hd","lower","draze","w","nw","h","g",0,0.55934886680916,NA,NA,NA
"experimental",6,30,"hd","lower","doxing","nw","nw","h","h",1,0.770007139071822,NA,NA,NA
"experimental",7,1,"ld","upper","slears","nw","nw","h","h",1,0.778049113228917,NA,NA,NA
"experimental",7,2,"ld","upper","shimble","nw","nw","h","h",1,0.722063187509775,NA,NA,NA
"experimental",7,3,"ld","upper","supplier","w","w","g","g",1,0.659099009353667,NA,NA,NA
"experimental",7,4,"ld","upper","dislokes","nw","nw","h","h",1,0.695795586332679,NA,NA,NA
"experimental",7,5,"ld","upper","minister","w","w","g","g",1,0.71505646314472,NA,NA,NA
"experimental",7,6,"ld","upper","summon","w","w","g","g",1,0.789750051684678,NA,NA,NA
"experimental",7,7,"ld","upper","engineer","w","w","g","g",1,0.501067646313459,NA,NA,NA
"experimental",7,8,"ld","upper","asclibed","nw","nw","h","h",1,0.631779273971915,NA,NA,NA
"experimental",7,9,"ld","upper","erithets","nw","nw","h","h",1,0.645875489339232,NA,NA,NA
"experimental",7,10,"ld","upper","figure","w","w","g","g",1,0.539277534466237,NA,NA,NA
"experimental",7,11,"ld","upper","horks","nw","nw","h","h",1,0.62860598647967,NA,NA,NA
"experimental",7,12,"ld","upper","marvel","w","w","g","g",1,0.489715322852135,NA,NA,NA
"experimental",7,13,"ld","upper","tunneg","nw","nw","h","h",1,0.508609707467258,NA,NA,NA
"experimental",7,14,"ld","upper","gradielts","nw","nw","h","h",1,0.551594921853393,NA,NA,NA
"experimental",7,15,"ld","upper","daining","nw","nw","h","g",0,0.480356028769165,NA,NA,NA
"experimental",7,16,"ld","upper","afternoon","w","w","g","g",1,0.852354358881712,NA,NA,NA
"experimental",7,17,"ld","upper","lindo","nw","nw","h","h",1,0.65710266912356,NA,NA,NA
"experimental",7,18,"ld","upper","publish","w","w","g","g",1,0.597794475499541,NA,NA,NA
"experimental",7,19,"ld","upper","bookend","w","w","g","h",0,0.557135014329106,NA,NA,NA
"experimental",7,20,"ld","upper","digest","w","w","g","g",1,0.573770853225142,NA,NA,NA
"experimental",7,21,"ld","upper","border","w","w","g","g",1,0.469865806400776,NA,NA,NA
"experimental",7,22,"ld","upper","hinsome","nw","nw","h","h",1,0.640931650064886,NA,NA,NA
"experimental",7,23,"ld","upper","leuter","nw","nw","h","h",1,0.566251304466277,NA,NA,NA
"experimental",7,24,"ld","upper","lavilion","nw","nw","h","h",1,0.566924034617841,NA,NA,NA
"experimental",7,25,"ld","upper","orange","w","w","g","g",1,0.75157062150538,NA,NA,NA
"experimental",7,26,"ld","upper","pariah","w","w","g","q",0,0.912302837707102,NA,NA,NA
"experimental",7,27,"ld","upper","cogantly","nw","nw","h","h",1,0.754360863007605,NA,NA,NA
"experimental",7,28,"ld","upper","sunhess","nw","nw","h","h",1,0.62705460190773,NA,NA,NA
"experimental",7,29,"ld","upper","emergence","w","w","g","g",1,0.697030800860375,NA,NA,NA
"experimental",7,30,"ld","upper","whirlpool","w","w","g","g",1,0.628406683448702,NA,NA,NA
"experimental",8,1,"hd","lower","abhorrent","w","w","g","h",0,0.673919271212071,NA,NA,NA
"experimental",8,2,"hd","lower","erony","nw","nw","h","h",1,0.893046926707029,NA,NA,NA
"experimental",8,3,"hd","lower","addma","nw","nw","h","h",1,0.592447726521641,NA,NA,NA
"experimental",8,4,"hd","lower","flicking","w","w","g","g",1,0.800040971022099,NA,NA,NA
"experimental",8,5,"hd","lower","brimitive","nw","nw","h","h",1,0.574408821295947,NA,NA,NA
"experimental",8,6,"hd","lower","splatter","w","w","g","g",1,0.789371309801936,NA,NA,NA
"experimental",8,7,"hd","lower","currowing","nw","nw","h","h",1,0.604184420313686,NA,NA,NA
"experimental",8,8,"hd","lower","nollow","nw","nw","h","h",1,0.642663466744125,NA,NA,NA
"experimental",8,9,"hd","lower","integral","w","w","g","g",1,0.719340484123677,NA,NA,NA
"experimental",8,10,"hd","lower","column","w","w","g","g",1,0.569335203617811,NA,NA,NA
"experimental",8,11,"hd","lower","lentils","w","w","g","h",0,0.649490090087056,NA,NA,NA
"experimental",8,12,"hd","lower","sonnet","w","w","g","g",1,0.918219023849815,NA,NA,NA
"experimental",8,13,"hd","lower","befriend","w","w","g","g",1,0.680344639811665,NA,NA,NA
"experimental",8,14,"hd","lower","chicken","target","target","q","g",0,0.676244693342596,NA,NA,NA
"experimental",8,15,"hd","lower","number","aftertar1","w","g","g",1,0.607125629205257,NA,NA,NA
"experimental",8,16,"hd","lower","numbled","aftertar2","nw","h","h",1,1.31733778724447,NA,NA,NA
"experimental",8,17,"hd","lower","farochial","aftertar3","nw","h","h",1,0.591439955402166,NA,NA,NA
"experimental",8,18,"hd","lower","spigat","nw","nw","h","h",1,0.638160610571504,NA,NA,NA
"experimental",8,19,"hd","lower","offonents","nw","nw","h","h",1,0.738831453956664,NA,NA,NA
"experimental",8,20,"hd","lower","gackpedal","nw","nw","h","h",1,0.716147332917899,NA,NA,NA
"experimental",8,21,"hd","lower","walsams","nw","nw","h","h",1,0.606088392436504,NA,NA,NA
"experimental",8,22,"hd","lower","relaying","nw","w","g","g",1,0.596133838407695,NA,NA,NA
"experimental",8,23,"hd","lower","fictional","w","w","g","g",1,0.554933081381023,NA,NA,NA
"experimental",8,24,"hd","lower","neally","w","nw","h","h",1,0.722218127455562,NA,NA,NA
"experimental",8,25,"hd","lower","inverted","nw","w","g","g",1,0.66791899362579,NA,NA,NA
"experimental",8,26,"hd","lower","command","w","w","g","g",1,0.679990065749735,NA,NA,NA
"experimental",8,27,"hd","lower","urgency","w","w","g","g",1,0.611351050436497,NA,NA,NA
"experimental",8,28,"hd","lower","ebciting","w","nw","h","h",1,0.929402502719313,NA,NA,NA
"experimental",8,29,"hd","lower","treason","nw","w","g","g",1,0.658727220259607,NA,NA,NA
"experimental",8,30,"hd","lower","alomalous","w","nw","h","h",1,0.703416772652417,NA,NA,NA
"experimental",9,1,"hd","lower","hecture","nw","nw","h","h",1,0.656955013051629,NA,NA,NA
"experimental",9,2,"hd","lower","incorrect","w","w","g","g",1,0.525038628373295,NA,NA,NA
"experimental",9,3,"hd","lower","sheerio","nw","nw","h","h",1,0.590355376712978,NA,NA,NA
"experimental",9,4,"hd","lower","whirling","w","w","g","g",1,0.51700791111216,NA,NA,NA
"experimental",9,5,"hd","lower","fards","nw","nw","h","h",1,0.60708027286455,NA,NA,NA
"experimental",9,6,"hd","lower","obviously","w","w","g","g",1,0.541258646175265,NA,NA,NA
"experimental",9,7,"hd","lower","garment","w","w","g","h",0,0.478447752073407,NA,NA,NA
"experimental",9,8,"hd","lower","persona","w","w","g","g",1,0.696883475873619,NA,NA,NA
"experimental",9,9,"hd","lower","postal","w","w","g","g",1,0.507502616383135,NA,NA,NA
"experimental",9,10,"hd","lower","slowning","nw","nw","h","h",1,0.749680885113776,NA,NA,NA
"experimental",9,11,"hd","lower","midday","w","w","g","g",1,0.686308499891311,NA,NA,NA
"experimental",9,12,"hd","lower","ganter","nw","nw","h","h",1,0.640930325724185,NA,NA,NA
"experimental",9,13,"hd","lower","goblet","w","w","g","h",0,0.90193908335641,NA,NA,NA
"experimental",9,14,"hd","lower","scrib","nw","nw","h","h",1,0.545038450043648,NA,NA,NA
"experimental",9,15,"hd","lower","century","w","w","g","g",1,0.529786144848913,NA,NA,NA
"experimental",9,16,"hd","lower","caterpillar","target","target","q","g",0,0.595077069476247,NA,NA,NA
"experimental",9,17,"hd","lower","painter","aftertar1","w","g","g",1,0.5618063849397,NA,NA,NA
"experimental",9,18,"hd","lower","lasprey","aftertar2","nw","h","h",1,0.833203727379441,NA,NA,NA
"experimental",9,19,"hd","lower","triangle","aftertar3","w","g","g",1,0.710227173753083,NA,NA,NA
"experimental",9,20,"hd","lower","expounded","w","w","g","h",0,0.800260800402611,NA,NA,NA
"experimental",9,21,"hd","lower","flooted","w","nw","h","h",1,0.686978250276297,NA,NA,NA
"experimental",9,22,"hd","lower","haurded","nw","nw","h","h",1,0.561678592581302,NA,NA,NA
"experimental",9,23,"hd","lower","clypaper","nw","nw","h","h",1,0.77770414063707,NA,NA,NA
"experimental",9,24,"hd","lower","landing","nw","w","g","g",1,0.673057831823826,NA,NA,NA
"experimental",9,25,"hd","lower","veclors","w","nw","h","h",1,0.564432085957378,NA,NA,NA
"experimental",9,26,"hd","lower","unwose","nw","nw","h","h",1,0.548411371186376,NA,NA,NA
"experimental",9,27,"hd","lower","scarlet","nw","w","g","g",1,0.964089827612042,NA,NA,NA
"experimental",9,28,"hd","lower","prama","w","nw","h","h",1,0.62080999603495,NA,NA,NA
"experimental",9,29,"hd","lower","gepealed","nw","nw","h","h",1,0.66609845077619,NA,NA,NA
"experimental",9,30,"hd","lower","seeming","nw","w","g","g",1,0.821927880402654,NA,NA,NA
"experimental",10,1,"ld","upper","tasher","nw","nw","h","h",1,0.658805683255196,NA,NA,NA
"experimental",10,2,"ld","upper","decantel","nw","nw","h","h",1,0.590783778578043,NA,NA,NA
"experimental",10,3,"ld","upper","student","w","w","g","g",1,0.605408709961921,NA,NA,NA
"experimental",10,4,"ld","upper","hangar","w","w","g","h",0,0.763419216033071,NA,NA,NA
"experimental",10,5,"ld","upper","harmful","w","w","g","g",1,0.547429423779249,NA,NA,NA
"experimental",10,6,"ld","upper","manage","w","w","g","g",1,0.516252413857728,NA,NA,NA
"experimental",10,7,"ld","upper","bingu","nw","nw","h","h",1,0.590222949162126,NA,NA,NA
"experimental",10,8,"ld","upper","gunrunker","nw","nw","h","h",1,0.74092082446441,NA,NA,NA
"experimental",10,9,"ld","upper","deserve","w","w","g","g",1,0.605621255934238,NA,NA,NA
"experimental",10,10,"ld","upper","compose","w","w","g","g",1,0.52271122019738,NA,NA,NA
"experimental",10,11,"ld","upper","threaded","w","w","g","h",0,0.636124211363494,NA,NA,NA
"experimental",10,12,"ld","upper","pranny","nw","nw","h","h",1,0.688716689124703,NA,NA,NA
"experimental",10,13,"ld","upper","armada","w","w","g","h",0,0.731369842309505,NA,NA,NA
"experimental",10,14,"ld","upper","grested","nw","nw","h","h",1,0.692716322373599,NA,NA,NA
"experimental",10,15,"ld","upper","chone","nw","nw","h","h",1,0.639438533224165,NA,NA,NA
"experimental",10,16,"ld","upper","hutting","nw","nw","h","h",1,0.476168017834425,NA,NA,NA
"experimental",10,17,"ld","upper","desert","w","w","g","g",1,0.511423455085605,NA,NA,NA
"experimental",10,18,"ld","upper","runabouk","nw","nw","h","h",1,0.521396217867732,NA,NA,NA
"experimental",10,19,"ld","upper","nores","nw","nw","h","h",1,0.522575813811272,NA,NA,NA
"experimental",10,20,"ld","upper","overcoat","w","w","g","g",1,0.595958703197539,NA,NA,NA
"experimental",10,21,"ld","upper","aggepting","nw","nw","h","h",1,0.753723888192326,NA,NA,NA
"experimental",10,22,"ld","upper","stalemate","w","w","g","h",0,0.761876769829541,NA,NA,NA
"experimental",10,23,"ld","upper","nauling","nw","nw","h","h",1,0.570344630163163,NA,NA,NA
"experimental",10,24,"ld","upper","germeated","nw","nw","h","h",1,0.58578696846962,NA,NA,NA
"experimental",10,25,"ld","upper","gablus","nw","nw","h","h",1,0.59307576296851,NA,NA,NA
"experimental",10,26,"ld","upper","afford","w","w","g","g",1,0.687809562310576,NA,NA,NA
"experimental",10,27,"ld","upper","emission","w","w","g","g",1,0.522605610080063,NA,NA,NA
"experimental",10,28,"ld","upper","handle","w","w","g","g",1,0.507897249422967,NA,NA,NA
"experimental",10,29,"ld","upper","erlighten","nw","nw","h","h",1,0.606032442301512,NA,NA,NA
"experimental",10,30,"ld","upper","exit","w","w","g","g",1,0.6189623051323,NA,NA,NA
"experimental",11,1,"hd","lower","tyena","nw","nw","h","h",1,1.01720208209008,NA,NA,NA
"experimental",11,2,"hd","lower","unlined","w","w","g","g",1,0.71124520804733,NA,NA,NA
"experimental",11,3,"hd","lower","portify","nw","nw","h","h",1,0.697207260411233,NA,NA,NA
"experimental",11,4,"hd","lower","breiled","nw","nw","h","h",1,0.571839733514935,NA,NA,NA
"experimental",11,5,"hd","lower","crudios","nw","nw","h","h",1,0.594047116581351,NA,NA,NA
"experimental",11,6,"hd","lower","vivid","w","w","g","g",1,0.592658948153257,NA,NA,NA
"experimental",11,7,"hd","lower","fomes","nw","nw","h","h",1,0.639363049529493,NA,NA,NA
"experimental",11,8,"hd","lower","ludictous","nw","nw","h","h",1,0.763882049359381,NA,NA,NA
"experimental",11,9,"hd","lower","gelfry","nw","nw","h","h",1,0.667941506486386,NA,NA,NA
"experimental",11,10,"hd","lower","oppose","w","w","g","g",1,0.551978961098939,NA,NA,NA
"experimental",11,11,"hd","lower","condensed","w","w","g","g",1,0.656618316657841,NA,NA,NA
"experimental",11,12,"hd","lower","welayed","nw","nw","h","h",1,0.612675653770566,NA,NA,NA
"experimental",11,13,"hd","lower","crazy","w","w","g","g",1,0.585419814102352,NA,NA,NA
"experimental",11,14,"hd","lower","joadbed","nw","nw","h","h",1,0.856742334552109,NA,NA,NA
"experimental",11,15,"hd","lower","maroon","w","w","g","g",1,0.637133637443185,NA,NA,NA
"experimental",11,16,"hd","lower","mestowal","nw","nw","h","h",1,0.681720889639109,NA,NA,NA
"experimental",11,17,"hd","lower","elormity","nw","nw","h","h",1,0.654045586939901,NA,NA,NA
"experimental",11,18,"hd","lower","serving","w","w","g","g",1,0.545940610580146,NA,NA,NA
"experimental",11,19,"hd","lower","computer","w","w","g","g",1,0.482780770864338,NA,NA,NA
"experimental",11,20,"hd","lower","miability","nw","nw","h","h",1,0.590049469377846,NA,NA,NA
"experimental",11,21,"hd","lower","butterfly","target","target","q","g",0,0.452762499451637,NA,NA,NA
"experimental",11,22,"hd","lower","potter","aftertar1","w","g","g",1,0.592799983453006,NA,NA,NA
"experimental",11,23,"hd","lower","foster","aftertar2","w","g","g",1,0.58256203494966,NA,NA,NA
"experimental",11,24,"hd","lower","pretzel","aftertar3","w","g","g",1,0.509699914604425,NA,NA,NA
"experimental",11,25,"hd","lower","lifetime","w","w","g","g",1,0.583705212455243,NA,NA,NA
"experimental",11,26,"hd","lower","repayment","w","w","g","g",1,0.559063486289233,NA,NA,NA
"experimental",11,27,"hd","lower","baladroit","w","nw","h","h",1,0.687091144733131,NA,NA,NA
"experimental",11,28,"hd","lower","hodels","nw","nw","h","h",1,0.569554701913148,NA,NA,NA
"experimental",11,29,"hd","lower","potent","nw","w","g","g",1,0.872991485986859,NA,NA,NA
"experimental",11,30,"hd","lower","tenpince","w","nw","h","h",1,0.700298111885786,NA,NA,NA
"experimental",12,1,"hd","lower","beggarlan","nw","nw","h","h",1,0.702679815236479,NA,NA,NA
"experimental",12,2,"hd","lower","huffle","nw","nw","h","h",1,0.720660783350468,NA,NA,NA
"experimental",12,3,"hd","lower","gallon","w","w","g","g",1,0.70612192992121,NA,NA,NA
"experimental",12,4,"hd","lower","single","w","w","g","g",1,0.668033212423325,NA,NA,NA
"experimental",12,5,"hd","lower","efficient","w","w","g","g",1,0.591242969967425,NA,NA,NA
"experimental",12,6,"hd","lower","mamps","nw","nw","h","h",1,0.678900520782918,NA,NA,NA
"experimental",12,7,"hd","lower","vintnel","nw","nw","h","h",1,0.777295933570713,NA,NA,NA
"experimental",12,8,"hd","lower","hotplate","w","w","g","g",1,0.744543039705604,NA,NA,NA
"experimental",12,9,"hd","lower","schinter","nw","nw","h","h",1,0.737347275484353,NA,NA,NA
"experimental",12,10,"hd","lower","pakened","nw","nw","h","h",1,0.634221562650055,NA,NA,NA
"experimental",12,11,"hd","lower","fallacy","w","w","g","g",1,0.599726588930935,NA,NA,NA
"experimental",12,12,"hd","lower","butled","nw","nw","h","g",0,0.998086874838918,NA,NA,NA
"experimental",12,13,"hd","lower","quickel","nw","nw","h","h",1,0.820775763597339,NA,NA,NA
"experimental",12,14,"hd","lower","matter","w","w","g","g",1,0.602046714164317,NA,NA,NA
"experimental",12,15,"hd","lower","female","w","w","g","g",1,0.54475869750604,NA,NA,NA
"experimental",12,16,"hd","lower","potatoes","w","w","g","g",1,0.704521546605974,NA,NA,NA
"experimental",12,17,"hd","lower","ausht","nw","nw","h","h",1,0.650608107447624,NA,NA,NA
"experimental",12,18,"hd","lower","entitle","w","w","g","g",1,0.775236690416932,NA,NA,NA
"experimental",12,19,"hd","lower","sodent","nw","nw","h","h",1,0.5985397095792,NA,NA,NA
"experimental",12,20,"hd","lower","butler","w","w","g","g",1,0.645288174971938,NA,NA,NA
"experimental",12,21,"hd","lower","drine","nw","nw","h","h",1,0.609991685021669,NA,NA,NA
"experimental",12,22,"hd","lower","brials","nw","nw","h","h",1,0.680049989372492,NA,NA,NA
"experimental",12,23,"hd","lower","demon","w","w","g","g",1,0.747460080776364,NA,NA,NA
"experimental",12,24,"hd","lower","infested","w","w","g","g",1,0.58813490299508,NA,NA,NA
"experimental",12,25,"hd","lower","release","w","w","g","g",1,0.595280345063657,NA,NA,NA
"experimental",12,26,"hd","lower","serfume","nw","nw","h","h",1,0.953052018303424,NA,NA,NA
"experimental",12,27,"hd","lower","shockwave","w","w","g","g",1,0.816992648877203,NA,NA,NA
"experimental",12,28,"hd","lower","stretches","w","w","g","g",1,0.534969346132129,NA,NA,NA
"experimental",12,29,"hd","lower","egect","nw","nw","h","h",1,0.631553153973073,NA,NA,NA
"experimental",12,30,"hd","lower","dusmy","nw","nw","h","h",1,0.933119073044509,NA,NA,NA
"experimental",13,1,"ld","upper","coupling","w","w","g","h",0,0.917491336353123,NA,NA,NA
"experimental",13,2,"ld","upper","surdens","nw","nw","h","h",1,0.631563086528331,NA,NA,NA
"experimental",13,3,"ld","upper","dentures","w","w","g","g",1,0.701046325266361,NA,NA,NA
"experimental",13,4,"ld","upper","fraft","nw","nw","h","h",1,0.622972863726318,NA,NA,NA
"experimental",13,5,"ld","upper","shamrock","w","w","g","g",1,0.588339834008366,NA,NA,NA
"experimental",13,6,"ld","upper","pepperoni","w","w","g","g",1,0.562881362624466,NA,NA,NA
"experimental",13,7,"ld","upper","passet","nw","nw","h","h",1,0.674902874510735,NA,NA,NA
"experimental",13,8,"ld","upper","unamufed","nw","nw","h","h",1,0.678303274326026,NA,NA,NA
"experimental",13,9,"ld","upper","ronic","nw","nw","h","h",1,0.600701253395528,NA,NA,NA
"experimental",13,10,"ld","upper","arrigns","nw","nw","h","h",1,0.734703697264194,NA,NA,NA
"experimental",13,11,"ld","upper","hivinity","nw","nw","h","h",1,0.528050023596734,NA,NA,NA
"experimental",13,12,"ld","upper","euphoric","w","w","g","g",1,0.641434211749583,NA,NA,NA
"experimental",13,13,"ld","upper","antwers","nw","nw","h","h",1,0.582086620852351,NA,NA,NA
"experimental",13,14,"ld","upper","greakable","nw","nw","h","h",1,0.653509918600321,NA,NA,NA
"experimental",13,15,"ld","upper","pegend","nw","nw","h","h",1,0.521520699840039,NA,NA,NA
"experimental",13,16,"ld","upper","venturous","w","w","g","h",0,0.458790586795658,NA,NA,NA
"experimental",13,17,"ld","upper","become","w","w","g","g",1,0.526951871346682,NA,NA,NA
"experimental",13,18,"ld","upper","rational","w","w","g","g",1,0.560092114377767,NA,NA,NA
"experimental",13,19,"ld","upper","hackal","nw","nw","h","h",1,0.70317244483158,NA,NA,NA
"experimental",13,20,"ld","upper","humanize","w","w","g","g",1,0.569286205340177,NA,NA,NA
"experimental",13,21,"ld","upper","preclude","w","w","g","h",0,0.673075378872454,NA,NA,NA
"experimental",13,22,"ld","upper","ghists","nw","nw","h","h",1,0.572070156689733,NA,NA,NA
"experimental",13,23,"ld","upper","flamingo","target","target","q","g",0,0.635860680602491,NA,NA,NA
"experimental",13,24,"ld","upper","unspoken","aftertar1","w","g","g",1,0.560519854538143,NA,NA,NA
"experimental",13,25,"ld","upper","tracing","aftertar2","w","g","g",1,0.528631048742682,NA,NA,NA
"experimental",13,26,"ld","upper","party","aftertar3","w","g","g",1,0.489966934546828,NA,NA,NA
"experimental",13,27,"ld","upper","demise","w","w","g","g",1,0.54065113607794,NA,NA,NA
"experimental",13,28,"ld","upper","mogus","w","nw","h","h",1,0.709416056983173,NA,NA,NA
"experimental",13,29,"ld","upper","stable","nw","w","g","g",1,0.6862717512995,NA,NA,NA
"experimental",13,30,"ld","upper","seighing","w","nw","h","h",1,1.16108889412135,NA,NA,NA
"experimental",14,1,"ld","upper","brighten","w","w","g","g",1,0.553772356826812,NA,NA,NA
"experimental",14,2,"ld","upper","peems","nw","nw","h","h",1,0.601688498165458,NA,NA,NA
"experimental",14,3,"ld","upper","wrestle","w","w","g","g",1,0.502767018508166,NA,NA,NA
"experimental",14,4,"ld","upper","chraps","nw","nw","h","h",1,0.624707659706473,NA,NA,NA
"experimental",14,5,"ld","upper","egcused","nw","nw","h","h",1,0.694097869098186,NA,NA,NA
"experimental",14,6,"ld","upper","halents","nw","nw","h","g",0,0.704779117833823,NA,NA,NA
"experimental",14,7,"ld","upper","greft","nw","nw","h","h",1,0.762812368571758,NA,NA,NA
"experimental",14,8,"ld","upper","mitten","w","w","g","g",1,0.666728804353625,NA,NA,NA
"experimental",14,9,"ld","upper","beartiset","nw","nw","h","h",1,0.878821925725788,NA,NA,NA
"experimental",14,10,"ld","upper","comment","w","w","g","g",1,0.594150409568101,NA,NA,NA
"experimental",14,11,"ld","upper","swatches","w","w","g","h",0,0.528800555039197,NA,NA,NA
"experimental",14,12,"ld","upper","intended","w","w","g","h",0,0.569955625105649,NA,NA,NA
"experimental",14,13,"ld","upper","culinary","w","w","g","g",1,0.601406428497285,NA,NA,NA
"experimental",14,14,"ld","upper","cemoir","nw","nw","h","g",0,0.456032458692789,NA,NA,NA
"experimental",14,15,"ld","upper","committed","w","w","g","g",1,0.508070398122072,NA,NA,NA
"experimental",14,16,"ld","upper","treenery","nw","nw","h","h",1,0.774671888444573,NA,NA,NA
"experimental",14,17,"ld","upper","stranded","w","w","g","g",1,0.638059966266155,NA,NA,NA
"experimental",14,18,"ld","upper","clume","nw","nw","h","h",1,0.690864658448845,NA,NA,NA
"experimental",14,19,"ld","upper","ringlat","nw","nw","h","h",1,0.661595593672246,NA,NA,NA
"experimental",14,20,"ld","upper","befin","nw","nw","h","h",1,0.60957950539887,NA,NA,NA
"experimental",14,21,"ld","upper","miurnal","nw","nw","h","h",1,0.583620127756149,NA,NA,NA
"experimental",14,22,"ld","upper","ameld","nw","nw","h","h",1,0.598061647731811,NA,NA,NA
"experimental",14,23,"ld","upper","resume","w","w","g","h",0,0.564686676952988,NA,NA,NA
"experimental",14,24,"ld","upper","splinging","nw","nw","h","g",0,0.756754154339433,NA,NA,NA
"experimental",14,25,"ld","upper","duplex","w","w","g","h",0,0.516897665336728,NA,NA,NA
"experimental",14,26,"ld","upper","scack","nw","nw","h","h",1,0.734795734286308,NA,NA,NA
"experimental",14,27,"ld","upper","previous","w","w","g","g",1,0.600197698920965,NA,NA,NA
"experimental",14,28,"ld","upper","marinate","w","w","g","g",1,0.726925915572792,NA,NA,NA
"experimental",14,29,"ld","upper","anemic","w","w","g","h",0,0.624282569158822,NA,NA,NA
"experimental",14,30,"ld","upper","sequence","w","w","g","g",1,0.597604442853481,NA,NA,NA
"experimental",15,1,"ld","upper","except","w","w","g","g",1,0.580048565752804,NA,NA,NA
"experimental",15,2,"ld","upper","misobeyed","nw","nw","h","g",0,0.659393329638988,NA,NA,NA
"experimental",15,3,"ld","upper","intrude","w","w","g","g",1,0.663471094332635,NA,NA,NA
"experimental",15,4,"ld","upper","tritical","nw","nw","h","h",1,0.69936383748427,NA,NA,NA
"experimental",15,5,"ld","upper","argue","w","w","g","g",1,0.638431424275041,NA,NA,NA
"experimental",15,6,"ld","upper","wienegs","nw","nw","h","h",1,0.625438326969743,NA,NA,NA
"experimental",15,7,"ld","upper","tipoff","w","w","g","h",0,0.671124394517392,NA,NA,NA
"experimental",15,8,"ld","upper","regional","w","w","g","g",1,0.594533124472946,NA,NA,NA
"experimental",15,9,"ld","upper","soluced","nw","nw","h","h",1,0.689212628640234,NA,NA,NA
"experimental",15,10,"ld","upper","mabit","nw","nw","h","h",1,0.732699742075056,NA,NA,NA
"experimental",15,11,"ld","upper","puyer","nw","nw","h","h",1,0.574068483430892,NA,NA,NA
"experimental",15,12,"ld","upper","paranoid","w","w","g","g",1,0.57343448838219,NA,NA,NA
"experimental",15,13,"ld","upper","contusiok","nw","nw","h","h",1,0.652776934206486,NA,NA,NA
"experimental",15,14,"ld","upper","throttle","w","w","g","h",0,0.536757776048034,NA,NA,NA
"experimental",15,15,"ld","upper","geissue","nw","nw","h","h",1,0.585460535250604,NA,NA,NA
"experimental",15,16,"ld","upper","incidonts","nw","nw","h","h",1,0.527198847848922,NA,NA,NA
"experimental",15,17,"ld","upper","chesume","nw","nw","h","h",1,0.497252418193966,NA,NA,NA
"experimental",15,18,"ld","upper","skiing","w","w","g","g",1,0.667940844316036,NA,NA,NA
"experimental",15,19,"ld","upper","truthful","w","w","g","g",1,0.599477294832468,NA,NA,NA
"experimental",15,20,"ld","upper","infusion","w","w","g","g",1,0.533983756322414,NA,NA,NA
"experimental",15,21,"ld","upper","shests","nw","nw","h","h",1,0.759408326819539,NA,NA,NA
"experimental",15,22,"ld","upper","rantho","nw","nw","h","h",1,0.543473490979522,NA,NA,NA
"experimental",15,23,"ld","upper","defeat","w","w","g","g",1,0.712099032476544,NA,NA,NA
"experimental",15,24,"ld","upper","igiom","nw","nw","h","h",1,0.6020672400482,NA,NA,NA
"experimental",15,25,"ld","upper","resent","w","w","g","g",1,0.599289579316974,NA,NA,NA
"experimental",15,26,"ld","upper","trocess","nw","nw","h","h",1,0.717797045130283,NA,NA,NA
"experimental",15,27,"ld","upper","fuintets","nw","nw","h","h",1,0.67112174583599,NA,NA,NA
"experimental",15,28,"ld","upper","trophy","w","w","g","g",1,0.554489449597895,NA,NA,NA
"experimental",15,29,"ld","upper","hubris","w","w","g","h",0,0.554368278943002,NA,NA,NA
"experimental",15,30,"ld","upper","companion","w","w","g","g",1,0.63537367945537,NA,NA,NA
"experimental",16,1,"hd","lower","snays","nw","nw","h","h",1,0.751087924465537,NA,NA,NA
"experimental",16,2,"hd","lower","arrested","w","w","g","g",1,0.511000681202859,NA,NA,NA
"experimental",16,3,"hd","lower","snocks","nw","nw","h","h",1,0.993135752622038,NA,NA,NA
"experimental",16,4,"hd","lower","mitro","nw","nw","h","h",1,0.799850937910378,NA,NA,NA
"experimental",16,5,"hd","lower","puggers","nw","nw","h","h",1,0.830477050505579,NA,NA,NA
"experimental",16,6,"hd","lower","aligning","w","w","g","g",1,0.643840745091438,NA,NA,NA
"experimental",16,7,"hd","lower","ounwit","nw","nw","h","h",1,0.80847592279315,NA,NA,NA
"experimental",16,8,"hd","lower","plashed","nw","nw","h","h",1,0.670517547056079,NA,NA,NA
"experimental",16,9,"hd","lower","gymnasium","w","w","g","g",1,0.664982089307159,NA,NA,NA
"experimental",16,10,"hd","lower","practice","w","w","g","g",1,0.525037966668606,NA,NA,NA
"experimental",16,11,"hd","lower","sequence","w","w","g","g",1,0.582262087147683,NA,NA,NA
"experimental",16,12,"hd","lower","tiery","nw","nw","h","g",0,0.909973443020135,NA,NA,NA
"experimental",16,13,"hd","lower","actual","w","w","g","g",1,0.488479776773602,NA,NA,NA
"experimental",16,14,"hd","lower","protest","w","w","g","g",1,0.563055173493922,NA,NA,NA
"experimental",16,15,"hd","lower","preserve","w","w","g","g",1,0.491065418347716,NA,NA,NA
"experimental",16,16,"hd","lower","churnad","nw","nw","h","h",1,0.677725891582668,NA,NA,NA
"experimental",16,17,"hd","lower","blocking","w","w","g","g",1,0.873087496031076,NA,NA,NA
"experimental",16,18,"hd","lower","omners","nw","nw","h","h",1,0.635448169894516,NA,NA,NA
"experimental",16,19,"hd","lower","curtail","w","w","g","g",1,0.959991536103189,NA,NA,NA
"experimental",16,20,"hd","lower","derisury","nw","nw","h","h",1,0.759981405455619,NA,NA,NA
"experimental",16,21,"hd","lower","bellicove","nw","nw","h","h",1,0.791994031053036,NA,NA,NA
"experimental",16,22,"hd","lower","saturate","w","w","g","g",1,0.814562609419227,NA,NA,NA
"experimental",16,23,"hd","lower","ronvince","nw","nw","h","h",1,0.683629828505218,NA,NA,NA
"experimental",16,24,"hd","lower","squirrel","target","target","q","q",1,1.23044599639252,1,NA,NA
"experimental",16,25,"hd","lower","ragtam","aftertar1","nw","h","h",1,0.589315491728485,NA,NA,NA
"experimental",16,26,"hd","lower","seldom","aftertar2","w","g","g",1,0.756058580242097,NA,NA,NA
"experimental",16,27,"hd","lower","attract","aftertar3","w","g","g",1,0.52292012469843,NA,NA,NA
"experimental",16,28,"hd","lower","huests","w","nw","h","h",1,0.54096134705469,NA,NA,NA
"experimental",16,29,"hd","lower","organize","nw","w","g","g",1,0.621673421468586,NA,NA,NA
"experimental",16,30,"hd","lower","enabled","w","w","g","g",1,0.779125415720046,NA,NA,NA
"experimental",17,1,"ld","upper","veranpah","nw","nw","h","h",1,0.875424505211413,NA,NA,NA
"experimental",17,2,"ld","upper","leather","w","w","g","g",1,0.757556663360447,NA,NA,NA
"experimental",17,3,"ld","upper","function","w","w","g","g",1,0.566630377434194,NA,NA,NA
"experimental",17,4,"ld","upper","baults","nw","nw","h","h",1,0.894446351099759,NA,NA,NA
"experimental",17,5,"ld","upper","prawls","nw","nw","h","h",1,0.593127077911049,NA,NA,NA
"experimental",17,6,"ld","upper","warden","w","w","g","h",0,0.911864172667265,NA,NA,NA
"experimental",17,7,"ld","upper","combat","w","w","g","g",1,0.545890950132161,NA,NA,NA
"experimental",17,8,"ld","upper","colored","w","w","g","g",1,0.578671984840184,NA,NA,NA
"experimental",17,9,"ld","upper","oppose","w","w","g","g",1,1.1540301926434,NA,NA,NA
"experimental",17,10,"ld","upper","congraks","nw","nw","h","h",1,0.617023239843547,NA,NA,NA
"experimental",17,11,"ld","upper","elpousal","nw","nw","h","h",1,0.534993845038116,NA,NA,NA
"experimental",17,12,"ld","upper","causality","w","w","g","g",1,0.727517534047365,NA,NA,NA
"experimental",17,13,"ld","upper","itfidels","nw","nw","h","h",1,0.617719475645572,NA,NA,NA
"experimental",17,14,"ld","upper","laser","w","w","g","g",1,0.751013102941215,NA,NA,NA
"experimental",17,15,"ld","upper","walnut","w","w","g","g",1,0.879651581868529,NA,NA,NA
"experimental",17,16,"ld","upper","kettle","w","w","g","g",1,0.603034621104598,NA,NA,NA
"experimental",17,17,"ld","upper","naxis","nw","nw","h","h",1,0.617170564830303,NA,NA,NA
"experimental",17,18,"ld","upper","enunciate","w","w","g","g",1,1.03130425745621,NA,NA,NA
"experimental",17,19,"ld","upper","nopping","nw","nw","h","h",1,0.651582440361381,NA,NA,NA
"experimental",17,20,"ld","upper","fragment","w","w","g","g",1,0.79160734359175,NA,NA,NA
"experimental",17,21,"ld","upper","sonkers","nw","nw","h","h",1,0.878342539072037,NA,NA,NA
"experimental",17,22,"ld","upper","reddar","nw","nw","h","h",1,1.80979556031525,NA,NA,NA
"experimental",17,23,"ld","upper","chemical","w","w","g","g",1,0.583871739916503,NA,NA,NA
"experimental",17,24,"ld","upper","traze","nw","nw","h","h",1,0.630480162799358,NA,NA,NA
"experimental",17,25,"ld","upper","professor","w","w","g","g",1,0.883877996820956,NA,NA,NA
"experimental",17,26,"ld","upper","casino","w","w","g","g",1,1.0386364213191,NA,NA,NA
"experimental",17,27,"ld","upper","coster","nw","nw","h","h",1,1.31427805637941,NA,NA,NA
"experimental",17,28,"ld","upper","fassed","nw","nw","h","h",1,0.66055670240894,NA,NA,NA
"experimental",17,29,"ld","upper","gund","nw","nw","h","h",1,0.760941502638161,NA,NA,NA
"experimental",17,30,"ld","upper","labitable","nw","nw","h","h",1,0.985021605622023,NA,NA,NA
"experimental",18,1,"hd","lower","ements","nw","nw","h","h",1,0.886946335434914,NA,NA,NA
"experimental",18,2,"hd","lower","comply","w","w","g","g",1,0.769587013870478,NA,NA,NA
"experimental",18,3,"hd","lower","micron","w","w","g","h",0,0.704926112201065,NA,NA,NA
"experimental",18,4,"hd","lower","drobate","nw","nw","h","h",1,0.690957026556134,NA,NA,NA
"experimental",18,5,"hd","lower","gerby","nw","nw","h","h",1,0.62916449829936,NA,NA,NA
"experimental",18,6,"hd","lower","formation","w","w","g","g",1,0.603040249086916,NA,NA,NA
"experimental",18,7,"hd","lower","couple","w","w","g","g",1,0.520539745222777,NA,NA,NA
"experimental",18,8,"hd","lower","listless","w","w","g","g",1,0.890314953401685,NA,NA,NA
"experimental",18,9,"hd","lower","refebs","nw","nw","h","h",1,0.589043023064733,NA,NA,NA
"experimental",18,10,"hd","lower","giving","w","w","g","h",0,0.834752132184803,NA,NA,NA
"experimental",18,11,"hd","lower","sustain","w","w","g","g",1,0.567357403226197,NA,NA,NA
"experimental",18,12,"hd","lower","jaguar","target","target","q","h",0,0.638798909727484,NA,NA,NA
"experimental",18,13,"hd","lower","plogging","aftertar1","nw","h","h",1,0.843433068133891,NA,NA,NA
"experimental",18,14,"hd","lower","burning","aftertar2","w","g","g",1,0.592211013194174,NA,NA,NA
"experimental",18,15,"hd","lower","chight","aftertar3","nw","h","h",1,0.942812745459378,NA,NA,NA
"experimental",18,16,"hd","lower","nimp","nw","nw","h","h",1,0.799813196528703,NA,NA,NA
"experimental",18,17,"hd","lower","smabled","nw","nw","h","h",1,0.782311283517629,NA,NA,NA
"experimental",18,18,"hd","lower","scatter","nw","w","g","g",1,0.71778611978516,NA,NA,NA
"experimental",18,19,"hd","lower","huzzles","w","nw","h","h",1,0.76624951697886,NA,NA,NA
"experimental",18,20,"hd","lower","govern","nw","w","g","g",1,0.73402269044891,NA,NA,NA
"experimental",18,21,"hd","lower","warmer","w","w","g","g",1,0.590707633178681,NA,NA,NA
"experimental",18,22,"hd","lower","season","w","w","g","g",1,0.829416970722377,NA,NA,NA
"experimental",18,23,"hd","lower","borrent","w","nw","h","h",1,0.674641992896795,NA,NA,NA
"experimental",18,24,"hd","lower","pamine","nw","nw","h","h",1,0.98200425086543,NA,NA,NA
"experimental",18,25,"hd","lower","snife","nw","nw","h","h",1,0.781355158891529,NA,NA,NA
"experimental",18,26,"hd","lower","suddenly","nw","w","g","g",1,0.772730174008757,NA,NA,NA
"experimental",18,27,"hd","lower","eaglot","w","nw","h","h",1,1.06721256067976,NA,NA,NA
"experimental",18,28,"hd","lower","turntable","nw","w","g","g",1,0.910498848184943,NA,NA,NA
"experimental",18,29,"hd","lower","roodies","w","nw","h","h",1,0.671892141457647,NA,NA,NA
"experimental",18,30,"hd","lower","gigglod","nw","nw","h","h",1,0.915813483763486,NA,NA,NA
"experimental",19,1,"hd","lower","gremieres","nw","nw","h","h",1,1.23010135442019,NA,NA,NA
"experimental",19,2,"hd","lower","contain","w","w","g","g",1,0.834475690498948,NA,NA,NA
"experimental",19,3,"hd","lower","achieve","w","w","g","g",1,0.519134030211717,NA,NA,NA
"experimental",19,4,"hd","lower","cutout","w","w","g","g",1,0.63268507597968,NA,NA,NA
"experimental",19,5,"hd","lower","cooray","nw","nw","h","h",1,0.869781780987978,NA,NA,NA
"experimental",19,6,"hd","lower","prominent","w","w","g","g",1,0.889217793475837,NA,NA,NA
"experimental",19,7,"hd","lower","result","w","w","g","g",1,0.571895352564752,NA,NA,NA
"experimental",19,8,"hd","lower","criminal","w","w","g","g",1,0.675257117021829,NA,NA,NA
"experimental",19,9,"hd","lower","mixture","w","w","g","g",1,0.814618559554219,NA,NA,NA
"experimental",19,10,"hd","lower","octopus","target","target","q","g",0,0.451710365246981,NA,NA,NA
"experimental",19,11,"hd","lower","slightly","aftertar1","w","g","g",1,0.759989351034164,NA,NA,NA
"experimental",19,12,"hd","lower","urique","aftertar2","nw","h","h",1,0.800377336330712,NA,NA,NA
"experimental",19,13,"hd","lower","graciap","aftertar3","nw","h","h",1,0.63115024426952,NA,NA,NA
"experimental",19,14,"hd","lower","newstrint","nw","nw","h","h",1,1.40471061971039,NA,NA,NA
"experimental",19,15,"hd","lower","telecast","nw","w","g","h",0,1.3864906206727,NA,NA,NA
"experimental",19,16,"hd","lower","cessation","w","w","g","g",1,1.12922558002174,NA,NA,NA
"experimental",19,17,"hd","lower","lovud","w","nw","h","h",1,1.61863322369754,NA,NA,NA
"experimental",19,18,"hd","lower","oalis","nw","nw","h","h",1,0.621806510724127,NA,NA,NA
"experimental",19,19,"hd","lower","slooping","nw","nw","h","h",1,0.64366229949519,NA,NA,NA
"experimental",19,20,"hd","lower","dredigest","nw","nw","h","g",0,1.16076444741338,NA,NA,NA
"experimental",19,21,"hd","lower","graveyard","nw","w","g","h",0,0.64897494809702,NA,NA,NA
"experimental",19,22,"hd","lower","ethical","w","w","g","g",1,0.63769115600735,NA,NA,NA
"experimental",19,23,"hd","lower","gettle","w","nw","h","h",1,0.770438520703465,NA,NA,NA
"experimental",19,24,"hd","lower","birn","nw","nw","h","h",1,0.61776814237237,NA,NA,NA
"experimental",19,25,"hd","lower","pigned","nw","nw","h","h",1,0.887200264725834,NA,NA,NA
"experimental",19,26,"hd","lower","obtuse","nw","w","g","g",1,1.12987745320424,NA,NA,NA
"experimental",19,27,"hd","lower","robbery","w","w","g","g",1,0.650574669707566,NA,NA,NA
"experimental",19,28,"hd","lower","rillains","w","nw","h","h",1,0.758964033331722,NA,NA,NA
"experimental",19,29,"hd","lower","halter","nw","w","g","g",1,0.983091147150844,NA,NA,NA
"experimental",19,30,"hd","lower","dricked","w","nw","h","h",1,0.710381451528519,NA,NA,NA
"experimental",20,1,"ld","upper","buttress","w","w","g","h",0,5.53646014537662,NA,NA,NA
"experimental",20,2,"ld","upper","disuse","w","w","g","g",1,0.697057948447764,NA,NA,NA
"experimental",20,3,"ld","upper","grefab","nw","nw","h","h",1,0.611659605521709,NA,NA,NA
"experimental",20,4,"ld","upper","ephically","nw","nw","h","h",1,0.786204644013196,NA,NA,NA
"experimental",20,5,"ld","upper","atble","nw","nw","h","h",1,0.513010264374316,NA,NA,NA
"experimental",20,6,"ld","upper","holdup","w","w","g","g",1,0.619020903948694,NA,NA,NA
"experimental",20,7,"ld","upper","praiged","nw","nw","h","g",0,0.385151450056583,NA,NA,NA
"experimental",20,8,"ld","upper","tredits","nw","nw","h","h",1,0.528491006698459,NA,NA,NA
"experimental",20,9,"ld","upper","cavern","w","w","g","g",1,0.87291368516162,NA,NA,NA
"experimental",20,10,"ld","upper","lignpost","nw","nw","h","h",1,0.668152065481991,NA,NA,NA
"experimental",20,11,"ld","upper","movie","w","w","g","g",1,0.639601418748498,NA,NA,NA
"experimental",20,12,"ld","upper","menarthe","nw","nw","h","h",1,0.700292152352631,NA,NA,NA
"experimental",20,13,"ld","upper","louches","nw","nw","h","h",1,0.663029781077057,NA,NA,NA
"experimental",20,14,"ld","upper","batire","nw","nw","h","h",1,0.642885944806039,NA,NA,NA
"experimental",20,15,"ld","upper","talate","nw","nw","h","h",1,0.655593330040574,NA,NA,NA
"experimental",20,16,"ld","upper","dorth","nw","nw","h","h",1,0.715670925565064,NA,NA,NA
"experimental",20,17,"ld","upper","stifle","w","w","g","h",0,0.500698174349964,NA,NA,NA
"experimental",20,18,"ld","upper","tharcely","nw","nw","h","h",1,0.574632623698562,NA,NA,NA
"experimental",20,19,"ld","upper","airmen","w","w","g","g",1,0.878055834211409,NA,NA,NA
"experimental",20,20,"ld","upper","lightels","nw","nw","h","h",1,0.817348546814173,NA,NA,NA
"experimental",20,21,"ld","upper","country","w","w","g","g",1,0.70269636856392,NA,NA,NA
"experimental",20,22,"ld","upper","asthmatic","w","w","g","g",1,0.927333327941596,NA,NA,NA
"experimental",20,23,"ld","upper","expensive","w","w","g","g",1,0.817035687621683,NA,NA,NA
"experimental",20,24,"ld","upper","dealer","w","w","g","g",1,0.558696662541479,NA,NA,NA
"experimental",20,25,"ld","upper","dehydrate","w","w","g","g",1,0.974764785729349,NA,NA,NA
"experimental",20,26,"ld","upper","sefine","nw","nw","h","h",1,0.917269189842045,NA,NA,NA
"experimental",20,27,"ld","upper","outfit","w","w","g","g",1,0.62244878243655,NA,NA,NA
"experimental",20,28,"ld","upper","showdown","w","w","g","g",1,0.835861541796476,NA,NA,NA
"experimental",20,29,"ld","upper","atsless","nw","nw","h","h",1,0.776577184442431,NA,NA,NA
"experimental",20,30,"ld","upper","rivet","w","w","g","h",0,1.75993273826316,NA,NA,NA
"experimental",21,1,"hd","lower","rudder","w","w","g","h",0,1.13510965323076,NA,NA,NA
"experimental",21,2,"hd","lower","ascending","w","w","g","g",1,0.735792911145836,NA,NA,NA
"experimental",21,3,"hd","lower","primal","w","w","g","h",0,0.888544070068747,NA,NA,NA
"experimental",21,4,"hd","lower","seartfelt","nw","nw","h","h",1,0.827287209685892,NA,NA,NA
"experimental",21,5,"hd","lower","loneliest","w","w","g","g",1,0.864554547704756,NA,NA,NA
"experimental",21,6,"hd","lower","ilcurring","nw","nw","h","h",1,1.69266004068777,NA,NA,NA
"experimental",21,7,"hd","lower","plunging","w","w","g","g",1,0.726477980148047,NA,NA,NA
"experimental",21,8,"hd","lower","airbis","nw","nw","h","h",1,0.871795668266714,NA,NA,NA
"experimental",21,9,"hd","lower","abraid","nw","nw","h","h",1,0.515039049088955,NA,NA,NA
"experimental",21,10,"hd","lower","spiud","nw","nw","h","g",0,0.81242390954867,NA,NA,NA
"experimental",21,11,"hd","lower","porcupine","target","target","q","q",1,1.5067931371741,1,NA,NA
"experimental",21,12,"hd","lower","undertake","aftertar1","w","g","g",1,0.652519032359123,NA,NA,NA
"experimental",21,13,"hd","lower","reconcile","aftertar2","w","g","g",1,0.608570078853518,NA,NA,NA
"experimental",21,14,"hd","lower","cherry","aftertar3","w","g","g",1,0.990634533111006,NA,NA,NA
"experimental",21,15,"hd","lower","trecious","w","nw","h","h",1,0.869248430710286,NA,NA,NA
"experimental",21,16,"hd","lower","delegate","nw","w","g","g",1,0.631591226905584,NA,NA,NA
"experimental",21,17,"hd","lower","checkout","w","w","g","g",1,0.629097622353584,NA,NA,NA
"experimental",21,18,"hd","lower","fomrade","w","nw","h","h",1,0.771062915213406,NA,NA,NA
"experimental",21,19,"hd","lower","frader","nw","nw","h","h",1,1.15437218593433,NA,NA,NA
"experimental",21,20,"hd","lower","rationale","nw","w","g","g",1,0.681790745351464,NA,NA,NA
"experimental",21,21,"hd","lower","efcorted","w","nw","h","h",1,0.660025669261813,NA,NA,NA
"experimental",21,22,"hd","lower","suspect","nw","w","g","g",1,0.689869799185544,NA,NA,NA
"experimental",21,23,"hd","lower","handbook","w","w","g","g",1,1.46854914864525,NA,NA,NA
"experimental",21,24,"hd","lower","glocked","w","nw","h","h",1,0.663003626279533,NA,NA,NA
"experimental",21,25,"hd","lower","index","nw","w","g","g",1,1.28406644100323,NA,NA,NA
"experimental",21,26,"hd","lower","fuhrek","w","nw","h","h",1,4.98995385691524,NA,NA,NA
"experimental",21,27,"hd","lower","impirt","nw","nw","h","h",1,0.724616384599358,NA,NA,NA
"experimental",21,28,"hd","lower","unmarked","nw","w","g","g",1,1.213541330304,NA,NA,NA
"experimental",21,29,"hd","lower","slending","w","nw","h","h",1,1.2031487734057,NA,NA,NA
"experimental",21,30,"hd","lower","recipus","nw","nw","h","g",0,0.600988620426506,NA,NA,NA
"experimental",22,1,"hd","lower","inside","w","w","g","g",1,2.75913784420118,NA,NA,NA
"experimental",22,2,"hd","lower","fisco","nw","nw","h","h",1,1.00709689222276,NA,NA,NA
"experimental",22,3,"hd","lower","submit","w","w","g","g",1,0.613293427042663,NA,NA,NA
"experimental",22,4,"hd","lower","browting","nw","nw","h","h",1,1.37822749279439,NA,NA,NA
"experimental",22,5,"hd","lower","contact","w","w","g","h",0,6.28975452110171,NA,NA,NA
"experimental",22,6,"hd","lower","other","w","w","g","g",1,0.508442849386483,NA,NA,NA
"experimental",22,7,"hd","lower","prillway","nw","nw","h","h",1,0.670390085782856,NA,NA,NA
"experimental",22,8,"hd","lower","apop","nw","nw","h","h",1,0.697996195405722,NA,NA,NA
"experimental",22,9,"hd","lower","scrobby","nw","nw","h","h",1,0.731556895188987,NA,NA,NA
"experimental",22,10,"hd","lower","brongs","nw","nw","h","h",1,1.61298420932144,NA,NA,NA
"experimental",22,11,"hd","lower","reloant","nw","nw","h","h",1,0.80302654299885,NA,NA,NA
"experimental",22,12,"hd","lower","sording","nw","nw","h","h",1,0.697074501775205,NA,NA,NA
"experimental",22,13,"hd","lower","turning","w","w","g","g",1,0.659738964401186,NA,NA,NA
"experimental",22,14,"hd","lower","railroad","w","w","g","g",1,0.543774763122201,NA,NA,NA
"experimental",22,15,"hd","lower","harder","w","w","g","g",1,0.584443163126707,NA,NA,NA
"experimental",22,16,"hd","lower","apology","w","w","g","g",1,0.534282711334527,NA,NA,NA
"experimental",22,17,"hd","lower","nameplate","w","w","g","g",1,0.551838256884366,NA,NA,NA
"experimental",22,18,"hd","lower","exclusion","w","w","g","g",1,5.83122129179537,NA,NA,NA
"experimental",22,19,"hd","lower","rander","nw","nw","h","h",1,0.813091673888266,NA,NA,NA
"experimental",22,20,"hd","lower","amidst","w","w","g","h",0,1.18708402710035,NA,NA,NA
"experimental",22,21,"hd","lower","deceit","w","w","g","g",1,5.92893967032433,NA,NA,NA
"experimental",22,22,"hd","lower","ciping","nw","nw","h","h",1,0.714580056723207,NA,NA,NA
"experimental",22,23,"hd","lower","bettled","nw","nw","h","g",0,0.811791569460183,NA,NA,NA
"experimental",22,24,"hd","lower","uncorked","w","w","g","g",1,17.274002965074,NA,NA,NA
"experimental",22,25,"hd","lower","bloodless","w","w","g","g",1,0.924738416448236,NA,NA,NA
"experimental",22,26,"hd","lower","moozy","nw","nw","h","h",1,0.654079355765134,NA,NA,NA
"experimental",22,27,"hd","lower","scrooner","nw","nw","h","h",1,0.650178050156683,NA,NA,NA
"experimental",22,28,"hd","lower","doads","nw","nw","h","h",1,0.550365997012705,NA,NA,NA
"experimental",22,29,"hd","lower","suburb","w","w","g","h",0,0.549813113640994,NA,NA,NA
"experimental",22,30,"hd","lower","profats","nw","nw","h","h",1,0.549953817855567,NA,NA,NA
"experimental",23,1,"ld","upper","ifling","nw","nw","h","h",1,4.59159125341102,NA,NA,NA
"experimental",23,2,"ld","upper","uncarled","nw","nw","h","h",1,0.652148235589266,NA,NA,NA
"experimental",23,3,"ld","upper","sengry","nw","nw","h","h",1,0.505234137643129,NA,NA,NA
"experimental",23,4,"ld","upper","redefloy","nw","nw","h","h",1,0.587141036987305,NA,NA,NA
"experimental",23,5,"ld","upper","issue","w","w","g","g",1,0.641876187175512,NA,NA,NA
"experimental",23,6,"ld","upper","angry","w","w","g","g",1,0.414680734276772,NA,NA,NA
"experimental",23,7,"ld","upper","dialogues","w","w","g","g",1,0.636704573407769,NA,NA,NA
"experimental",23,8,"ld","upper","glassware","w","w","g","g",1,0.489323669113219,NA,NA,NA
"experimental",23,9,"ld","upper","elderly","w","w","g","g",1,0.516091183759272,NA,NA,NA
"experimental",23,10,"ld","upper","nomma","nw","nw","h","h",1,0.782029875554144,NA,NA,NA
"experimental",23,11,"ld","upper","glaims","nw","nw","h","h",1,0.500623353291303,NA,NA,NA
"experimental",23,12,"ld","upper","antique","w","w","g","g",1,0.510401447769254,NA,NA,NA
"experimental",23,13,"ld","upper","chiffol","nw","nw","h","g",0,0.496441632509232,NA,NA,NA
"experimental",23,14,"ld","upper","yearnungs","nw","nw","h","h",1,0.539170268923044,NA,NA,NA
"experimental",23,15,"ld","upper","favoting","nw","nw","h","h",1,0.795881763100624,NA,NA,NA
"experimental",23,16,"ld","upper","teamwork","w","w","g","h",0,0.570862089749426,NA,NA,NA
"experimental",23,17,"ld","upper","togglo","nw","nw","h","h",1,0.657945899758488,NA,NA,NA
"experimental",23,18,"ld","upper","unversed","w","w","g","h",0,0.749989440198988,NA,NA,NA
"experimental",23,19,"ld","upper","spider","target","target","q","g",0,0.558682095725089,NA,NA,NA
"experimental",23,20,"ld","upper","vaporize","aftertar1","w","g","g",1,0.566757838707417,NA,NA,NA
"experimental",23,21,"ld","upper","derived","aftertar2","w","g","g",1,0.469699278939515,NA,NA,NA
"experimental",23,22,"ld","upper","carnival","aftertar3","w","g","g",1,0.473082463722676,NA,NA,NA
"experimental",23,23,"ld","upper","frunted","w","nw","h","h",1,0.636370525695384,NA,NA,NA
"experimental",23,24,"ld","upper","volder","nw","nw","h","h",1,0.681017038878053,NA,NA,NA
"experimental",23,25,"ld","upper","cegalia","nw","nw","h","g",0,1.36442228639498,NA,NA,NA
"experimental",23,26,"ld","upper","mounting","nw","w","g","g",1,0.804345848970115,NA,NA,NA
"experimental",23,27,"ld","upper","bloves","w","nw","h","h",1,1.106323285494,NA,NA,NA
"experimental",23,28,"ld","upper","solidity","nw","w","g","h",0,0.643584829289466,NA,NA,NA
"experimental",23,29,"ld","upper","living","w","w","g","g",1,0.639595790300518,NA,NA,NA
"experimental",23,30,"ld","upper","chrayed","w","nw","h","h",1,0.668625824153423,NA,NA,NA
"experimental",24,1,"ld","upper","massacre","w","w","g","g",1,1.10410777805373,NA,NA,NA
"experimental",24,2,"ld","upper","legalosm","nw","nw","h","h",1,0.81014053337276,NA,NA,NA
"experimental",24,3,"ld","upper","enacted","w","w","g","g",1,1.88731315918267,NA,NA,NA
"experimental",24,4,"ld","upper","slutches","nw","nw","h","h",1,0.777925294358283,NA,NA,NA
"experimental",24,5,"ld","upper","smallash","nw","nw","h","h",1,0.689297382254153,NA,NA,NA
"experimental",24,6,"ld","upper","sopes","nw","nw","h","h",1,1.15603017434478,NA,NA,NA
"experimental",24,7,"ld","upper","embrace","w","w","g","g",1,1.01207085838541,NA,NA,NA
"experimental",24,8,"ld","upper","unrealon","nw","nw","h","h",1,1.60210763011128,NA,NA,NA
"experimental",24,9,"ld","upper","pender","nw","nw","h","h",1,0.95216078357771,NA,NA,NA
"experimental",24,10,"ld","upper","fivalve","nw","nw","h","h",1,0.576410458888859,NA,NA,NA
"experimental",24,11,"ld","upper","smolvers","nw","nw","h","h",1,0.734575573820621,NA,NA,NA
"experimental",24,12,"ld","upper","subpoena","w","w","g","h",0,0.615214614663273,NA,NA,NA
"experimental",24,13,"ld","upper","podes","nw","nw","h","h",1,1.56532464502379,NA,NA,NA
"experimental",24,14,"ld","upper","surfaced","w","w","g","h",0,6.39748870115727,NA,NA,NA
"experimental",24,15,"ld","upper","disperse","w","w","g","g",1,1.14005448529497,NA,NA,NA
"experimental",24,16,"ld","upper","rowel","nw","nw","h","h",1,9.03628517594188,NA,NA,NA
"experimental",24,17,"ld","upper","dingly","nw","nw","h","h",1,1.11293736333027,NA,NA,NA
"experimental",24,18,"ld","upper","exemplify","w","w","g","h",0,3.90596752008423,NA,NA,NA
"experimental",24,19,"ld","upper","category","w","w","g","g",1,0.819837185554206,NA,NA,NA
"experimental",24,20,"ld","upper","minimum","w","w","g","g",1,0.657229799311608,NA,NA,NA
"experimental",24,21,"ld","upper","pressing","w","w","g","g",1,7.09356624027714,NA,NA,NA
"experimental",24,22,"ld","upper","irfirm","nw","nw","h","h",1,0.792105932254344,NA,NA,NA
"experimental",24,23,"ld","upper","sength","nw","nw","h","g",0,10.0141459931619,NA,NA,NA
"experimental",24,24,"ld","upper","rewrite","w","w","g","g",1,0.63590173330158,NA,NA,NA
"experimental",24,25,"ld","upper","grenavier","nw","nw","h","h",1,0.680172153282911,NA,NA,NA
"experimental",24,26,"ld","upper","fillings","w","w","g","g",1,1.74712636368349,NA,NA,NA
"experimental",24,27,"ld","upper","hardest","w","w","g","g",1,8.08416456962004,NA,NA,NA
"experimental",24,28,"ld","upper","kilotin","nw","nw","h","h",1,1.00649335514754,NA,NA,NA
"experimental",24,29,"ld","upper","forbid","w","w","g","g",1,8.4998936788179,NA,NA,NA
"experimental",24,30,"ld","upper","expected","w","w","g","g",1,0.926445734221488,NA,NA,NA
"experimental",25,1,"ld","upper","undimmec","nw","nw","h","h",1,0.719621561001986,NA,NA,NA
"experimental",25,2,"ld","upper","accessory","w","w","g","g",1,0.617049393709749,NA,NA,NA
"experimental",25,3,"ld","upper","purpose","w","w","g","g",1,0.382958124391735,NA,NA,NA
"experimental",25,4,"ld","upper","overflow","w","w","g","g",1,0.550222313497216,NA,NA,NA
"experimental",25,5,"ld","upper","outset","w","w","g","g",1,0.502801118884236,NA,NA,NA
"experimental",25,6,"ld","upper","roaned","nw","nw","h","h",1,0.761014999821782,NA,NA,NA
"experimental",25,7,"ld","upper","subber","nw","nw","h","h",1,0.569074984174222,NA,NA,NA
"experimental",25,8,"ld","upper","rangel","nw","nw","h","h",1,0.680416150949895,NA,NA,NA
"experimental",25,9,"ld","upper","frose","nw","nw","h","h",1,0.547794591635466,NA,NA,NA
"experimental",25,10,"ld","upper","arranged","w","w","g","g",1,0.500568395480514,NA,NA,NA
"experimental",25,11,"ld","upper","oldest","w","w","g","g",1,0.445574018638581,NA,NA,NA
"experimental",25,12,"ld","upper","capobly","nw","nw","h","h",1,0.826290363911539,NA,NA,NA
"experimental",25,13,"ld","upper","populace","w","w","g","g",1,0.559659077320248,NA,NA,NA
"experimental",25,14,"ld","upper","permute","w","w","g","g",1,0.487695807591081,NA,NA,NA
"experimental",25,15,"ld","upper","mebase","nw","nw","h","h",1,0.946407813578844,NA,NA,NA
"experimental",25,16,"ld","upper","poughest","nw","nw","h","h",1,0.627079431898892,NA,NA,NA
"experimental",25,17,"ld","upper","rejoiced","w","w","g","g",1,0.536442599259317,NA,NA,NA
"experimental",25,18,"ld","upper","inducing","w","w","g","g",1,0.481126755010337,NA,NA,NA
"experimental",25,19,"ld","upper","caution","w","w","g","g",1,0.46051809983328,NA,NA,NA
"experimental",25,20,"ld","upper","jiggling","w","w","g","g",1,0.591636278666556,NA,NA,NA
"experimental",25,21,"ld","upper","deakers","nw","nw","h","h",1,0.798254196532071,NA,NA,NA
"experimental",25,22,"ld","upper","yash","nw","nw","h","h",1,0.620987779460847,NA,NA,NA
"experimental",25,23,"ld","upper","guffy","nw","nw","h","h",1,0.738359019625932,NA,NA,NA
"experimental",25,24,"ld","upper","atabaster","nw","nw","h","h",1,0.731064266059548,NA,NA,NA
"experimental",25,25,"ld","upper","bailmenz","nw","nw","h","h",1,0.676715803332627,NA,NA,NA
"experimental",25,26,"ld","upper","hegacy","nw","nw","h","h",1,0.743781252298504,NA,NA,NA
"experimental",25,27,"ld","upper","even","w","w","g","g",1,0.78436357434839,NA,NA,NA
"experimental",25,28,"ld","upper","sludding","nw","nw","h","h",1,0.639103161171079,NA,NA,NA
"experimental",25,29,"ld","upper","railway","w","w","g","g",1,1.80295569449663,NA,NA,NA
"experimental",25,30,"ld","upper","outrank","w","w","g","g",1,0.792885928414762,NA,NA,NA
"experimental",26,1,"hd","lower","image","w","w","g","g",1,0.759687416721135,NA,NA,NA
"experimental",26,2,"hd","lower","typical","w","w","g","g",1,0.46369800856337,NA,NA,NA
"experimental",26,3,"hd","lower","geadpan","nw","nw","h","h",1,0.866816735826433,NA,NA,NA
"experimental",26,4,"hd","lower","handcuff","w","w","g","h",0,1.02280077431351,NA,NA,NA
"experimental",26,5,"hd","lower","pypecast","nw","nw","h","g",0,0.588176948949695,NA,NA,NA
"experimental",26,6,"hd","lower","teliever","nw","nw","h","h",1,0.610872325953096,NA,NA,NA
"experimental",26,7,"hd","lower","violate","w","w","g","g",1,0.704908565618098,NA,NA,NA
"experimental",26,8,"hd","lower","pester","w","w","g","h",0,6.43517748871818,NA,NA,NA
"experimental",26,9,"hd","lower","iolize","nw","nw","h","h",1,0.886758951004595,NA,NA,NA
"experimental",26,10,"hd","lower","defensa","nw","nw","h","h",1,0.865406717173755,NA,NA,NA
"experimental",26,11,"hd","lower","brouhuha","nw","nw","h","h",1,0.693427787628025,NA,NA,NA
"experimental",26,12,"hd","lower","rabbit","target","target","q","g",0,0.560117275454104,NA,NA,NA
"experimental",26,13,"hd","lower","allained","aftertar1","nw","h","g",0,0.752256263513118,NA,NA,NA
"experimental",26,14,"hd","lower","machinery","aftertar2","w","g","g",1,0.512229936663061,NA,NA,NA
"experimental",26,15,"hd","lower","martial","aftertar3","w","g","g",1,1.06630311673507,NA,NA,NA
"experimental",26,16,"hd","lower","chonemic","w","nw","h","h",1,0.758358178660274,NA,NA,NA
"experimental",26,17,"hd","lower","lawsuit","nw","w","g","g",1,0.934489032719284,NA,NA,NA
"experimental",26,18,"hd","lower","fetching","w","w","g","g",1,5.74225469771773,NA,NA,NA
"experimental",26,19,"hd","lower","godomy","w","nw","h","h",1,1.00681283557788,NA,NA,NA
"experimental",26,20,"hd","lower","rearrange","nw","w","g","g",1,10.0203435872681,NA,NA,NA
"experimental",26,21,"hd","lower","fracture","w","w","g","g",1,0.513486339710653,NA,NA,NA
"experimental",26,22,"hd","lower","theles","w","nw","h","g",0,1.13154272548854,NA,NA,NA
"experimental",26,23,"hd","lower","thamp","nw","nw","h","h",1,0.733114239294082,NA,NA,NA
"experimental",26,24,"hd","lower","nogwhell","nw","nw","h","h",1,0.830345947761089,NA,NA,NA
"experimental",26,25,"hd","lower","culer","nw","nw","h","h",1,11.4592113741674,NA,NA,NA
"experimental",26,26,"hd","lower","ilterfere","nw","nw","h","h",1,0.60687070665881,NA,NA,NA
"experimental",26,27,"hd","lower","cassette","nw","w","g","g",1,0.508912966120988,NA,NA,NA
"experimental",26,28,"hd","lower","dabble","w","w","g","g",1,0.342897896654904,NA,NA,NA
"experimental",26,29,"hd","lower","cervical","w","w","g","g",1,0.391615553759039,NA,NA,NA
"experimental",26,30,"hd","lower","equitable","w","w","g","g",1,0.484504973515868,NA,NA,NA
"experimental",27,1,"ld","upper","gaioty","nw","nw","h","g",0,2.97624333575368,NA,NA,NA
"experimental",27,2,"ld","upper","abstain","w","w","g","g",1,0.567283243872225,NA,NA,NA
"experimental",27,3,"ld","upper","observer","w","w","g","g",1,0.58338142791763,NA,NA,NA
"experimental",27,4,"ld","upper","illness","w","w","g","g",1,0.453770270571113,NA,NA,NA
"experimental",27,5,"ld","upper","ubefully","nw","nw","h","h",1,0.649843009188771,NA,NA,NA
"experimental",27,6,"ld","upper","edasion","nw","nw","h","h",1,0.694450456649065,NA,NA,NA
"experimental",27,7,"ld","upper","kraums","nw","nw","h","h",1,0.713191557209939,NA,NA,NA
"experimental",27,8,"ld","upper","sullen","w","w","g","h",0,0.515200941357762,NA,NA,NA
"experimental",27,9,"ld","upper","trallion","nw","nw","h","g",0,0.773249620106071,NA,NA,NA
"experimental",27,10,"ld","upper","halms","nw","nw","h","g",0,0.492635674308986,NA,NA,NA
"experimental",27,11,"ld","upper","gensions","nw","nw","h","g",0,0.623360875528306,NA,NA,NA
"experimental",27,12,"ld","upper","exploit","w","w","g","h",0,0.524647306185216,NA,NA,NA
"experimental",27,13,"ld","upper","moral","w","w","g","g",1,0.508637517224997,NA,NA,NA
"experimental",27,14,"ld","upper","collute","nw","nw","h","g",0,0.495046511292458,NA,NA,NA
"experimental",27,15,"ld","upper","acorn","w","w","g","g",1,0.505779406521469,NA,NA,NA
"experimental",27,16,"ld","upper","oleandur","nw","nw","h","h",1,0.771687640808523,NA,NA,NA
"experimental",27,17,"ld","upper","pleamed","nw","nw","h","h",1,0.555086365435272,NA,NA,NA
"experimental",27,18,"ld","upper","strenuous","w","w","g","h",0,0.539148749317974,NA,NA,NA
"experimental",27,19,"ld","upper","chining","nw","nw","h","g",0,0.523791826330125,NA,NA,NA
"experimental",27,20,"ld","upper","begut","nw","nw","h","h",1,0.72516926843673,NA,NA,NA
"experimental",27,21,"ld","upper","educate","w","w","g","g",1,0.549992883577943,NA,NA,NA
"experimental",27,22,"ld","upper","bullet","w","w","g","g",1,0.527255129534751,NA,NA,NA
"experimental",27,23,"ld","upper","patio","w","w","g","g",1,0.783829892519861,NA,NA,NA
"experimental",27,24,"ld","upper","sarlock","nw","nw","h","g",0,1.16715836524963,NA,NA,NA
"experimental",27,25,"ld","upper","glating","nw","nw","h","g",0,0.88703340664506,NA,NA,NA
"experimental",27,26,"ld","upper","apticle","nw","nw","h","h",1,0.76196152344346,NA,NA,NA
"experimental",27,27,"ld","upper","coverall","w","w","g","h",0,0.793927137274295,NA,NA,NA
"experimental",27,28,"ld","upper","colicky","w","w","g","h",0,0.75254197511822,NA,NA,NA
"experimental",27,29,"ld","upper","larger","w","w","g","h",0,0.592593727633357,NA,NA,NA
"experimental",27,30,"ld","upper","removable","w","w","g","g",1,0.583334416151047,NA,NA,NA
"experimental",28,1,"hd","lower","setwixt","nw","nw","h","h",1,0.630503668449819,NA,NA,NA
"experimental",28,2,"hd","lower","wimpid","nw","nw","h","h",1,0.603875533677638,NA,NA,NA
"experimental",28,3,"hd","lower","rarren","nw","nw","h","h",1,0.450136798899621,NA,NA,NA
"experimental",28,4,"hd","lower","fidelity","w","w","g","h",0,0.486658240668476,NA,NA,NA
"experimental",28,5,"hd","lower","trembles","w","w","g","g",1,0.545433745253831,NA,NA,NA
"experimental",28,6,"hd","lower","padicals","nw","nw","h","g",0,0.409132695756853,NA,NA,NA
"experimental",28,7,"hd","lower","zears","nw","nw","h","h",1,0.711093247868121,NA,NA,NA
"experimental",28,8,"hd","lower","phambled","nw","nw","h","h",1,0.720987878739834,NA,NA,NA
"experimental",28,9,"hd","lower","gestalion","nw","nw","h","h",1,0.602356262505054,NA,NA,NA
"experimental",28,10,"hd","lower","arrow","w","w","g","h",0,0.616485915612429,NA,NA,NA
"experimental",28,11,"hd","lower","digar","nw","nw","h","h",1,0.750330440700054,NA,NA,NA
"experimental",28,12,"hd","lower","lizard","target","target","q","g",0,0.453910974785686,NA,NA,NA
"experimental",28,13,"hd","lower","envelop","aftertar1","w","g","g",1,0.715172337368131,NA,NA,NA
"experimental",28,14,"hd","lower","probable","aftertar2","w","g","g",1,0.667398554738611,NA,NA,NA
"experimental",28,15,"hd","lower","blanned","aftertar3","nw","h","h",1,9.18404482211918,NA,NA,NA
"experimental",28,16,"hd","lower","regiment","nw","w","g","g",1,0.782563557382673,NA,NA,NA
"experimental",28,17,"hd","lower","realize","w","w","g","g",1,0.557806751690805,NA,NA,NA
"experimental",28,18,"hd","lower","loached","w","nw","h","h",1,1.34185635624453,NA,NA,NA
"experimental",28,19,"hd","lower","pressures","nw","w","g","h",0,0.438521937932819,NA,NA,NA
"experimental",28,20,"hd","lower","noils","w","nw","h","g",0,0.906328052747995,NA,NA,NA
"experimental",28,21,"hd","lower","measure","nw","w","g","g",1,6.44453413411975,NA,NA,NA
"experimental",28,22,"hd","lower","renown","w","w","g","g",1,0.417240221519023,NA,NA,NA
"experimental",28,23,"hd","lower","forfeit","w","w","g","g",1,0.510498450603336,NA,NA,NA
"experimental",28,24,"hd","lower","pripend","w","nw","h","g",0,0.504535584244877,NA,NA,NA
"experimental",28,25,"hd","lower","reason","nw","w","g","g",1,0.650619032792747,NA,NA,NA
"experimental",28,26,"hd","lower","burrowing","w","w","g","g",1,0.989562534727156,NA,NA,NA
"experimental",28,27,"hd","lower","happen","w","w","g","g",1,0.524287435226142,NA,NA,NA
"experimental",28,28,"hd","lower","itself","w","w","g","g",1,0.59761702362448,NA,NA,NA
"experimental",28,29,"hd","lower","theery","w","nw","h","g",0,0.20428665401414,NA,NA,NA
"experimental",28,30,"hd","lower","ufionize","nw","nw","h","g",0,0.386235035955906,NA,NA,NA
"experimental",29,1,"hd","lower","awful","w","w","g","g",1,1.55297613749281,NA,NA,NA
"experimental",29,2,"hd","lower","schides","nw","nw","h","h",1,0.568860120605677,NA,NA,NA
"experimental",29,3,"hd","lower","catacomb","w","w","g","h",0,0.496405214536935,NA,NA,NA
"experimental",29,4,"hd","lower","tuckel","nw","nw","h","h",1,0.635026389267296,NA,NA,NA
"experimental",29,5,"hd","lower","ezulated","nw","nw","h","h",1,0.631681940052658,NA,NA,NA
"experimental",29,6,"hd","lower","etcess","nw","nw","h","h",1,0.781074744649231,NA,NA,NA
"experimental",29,7,"hd","lower","daylight","w","w","g","g",1,0.556464932858944,NA,NA,NA
"experimental",29,8,"hd","lower","official","w","w","g","g",1,0.404565281234682,NA,NA,NA
"experimental",29,9,"hd","lower","ebince","nw","nw","h","h",1,0.530372465960681,NA,NA,NA
"experimental",29,10,"hd","lower","retona","nw","nw","h","h",1,0.618765319697559,NA,NA,NA
"experimental",29,11,"hd","lower","bropic","nw","nw","h","h",1,0.760027755051851,NA,NA,NA
"experimental",29,12,"hd","lower","dialect","w","w","g","g",1,0.712051359005272,NA,NA,NA
"experimental",29,13,"hd","lower","gaining","w","w","g","g",1,0.554056081920862,NA,NA,NA
"experimental",29,14,"hd","lower","planar","w","w","g","h",0,0.682069835718721,NA,NA,NA
"experimental",29,15,"hd","lower","dorte","nw","nw","h","h",1,0.613408638164401,NA,NA,NA
"experimental",29,16,"hd","lower","preight","nw","nw","h","h",1,0.723405668977648,NA,NA,NA
"experimental",29,17,"hd","lower","staircase","w","w","g","g",1,0.71672107372433,NA,NA,NA
"experimental",29,18,"hd","lower","mantos","nw","nw","h","g",0,0.0226309360004961,NA,NA,NA
"experimental",29,19,"hd","lower","amplifier","w","w","g","g",1,0.0599605152383447,NA,NA,NA
"experimental",29,20,"hd","lower","ipiocy","nw","nw","h","g",0,0.0319359349086881,NA,NA,NA
"experimental",29,21,"hd","lower","uncounted","w","w","g","g",1,0.0843304344452918,NA,NA,NA
"experimental",29,22,"hd","lower","brank","nw","nw","h","h",1,0.759034550748765,NA,NA,NA
"experimental",29,23,"hd","lower","virulent","w","w","g","g",1,0.6629559523426,NA,NA,NA
"experimental",29,24,"hd","lower","peahem","nw","nw","h","h",1,0.810961913317442,NA,NA,NA
"experimental",29,25,"hd","lower","ladybug","target","target","q","q",1,8.67226128233597,1,NA,NA
"experimental",29,26,"hd","lower","hasks","aftertar1","nw","h","h",1,1.69943667249754,NA,NA,NA
"experimental",29,27,"hd","lower","mennel","aftertar2","nw","h","h",1,0.662023996002972,NA,NA,NA
"experimental",29,28,"hd","lower","calming","aftertar3","w","g","g",1,0.618308445904404,NA,NA,NA
"experimental",29,29,"hd","lower","axis","w","w","g","g",1,0.743393240496516,NA,NA,NA
"experimental",29,30,"hd","lower","epic","w","w","g","g",1,0.832067501265556,NA,NA,NA
"experimental",30,1,"ld","upper","worps","nw","nw","h","h",1,0.733086429536343,NA,NA,NA
"experimental",30,2,"ld","upper","gazes","w","w","g","h",0,0.486312274355441,NA,NA,NA
"experimental",30,3,"ld","upper","clooped","nw","nw","h","h",1,0.601131641305983,NA,NA,NA
"experimental",30,4,"ld","upper","despise","w","w","g","g",1,0.687061679549515,NA,NA,NA
"experimental",30,5,"ld","upper","vented","w","w","g","g",1,0.625772705767304,NA,NA,NA
"experimental",30,6,"ld","upper","tucker","w","w","g","g",1,0.455001181922853,NA,NA,NA
"experimental",30,7,"ld","upper","resonant","w","w","g","g",1,0.210963303688914,NA,NA,NA
"experimental",30,8,"ld","upper","calcify","w","w","g","g",1,0.401032784953713,NA,NA,NA
"experimental",30,9,"ld","upper","crundle","nw","nw","h","g",0,0.126963061280549,NA,NA,NA
"experimental",30,10,"ld","upper","fatho","nw","nw","h","g",0,0.327463172376156,NA,NA,NA
"experimental",30,11,"ld","upper","entertain","w","w","g","g",1,0.632784727495164,NA,NA,NA
"experimental",30,12,"ld","upper","chappef","nw","nw","h","h",1,0.734713298268616,NA,NA,NA
"experimental",30,13,"ld","upper","guitar","w","w","g","g",1,5.21632097801194,NA,NA,NA
"experimental",30,14,"ld","upper","huntry","nw","nw","h","g",0,0.446263633668423,NA,NA,NA
"experimental",30,15,"ld","upper","shazer","nw","nw","h","h",1,1.41898495005444,NA,NA,NA
"experimental",30,16,"ld","upper","blipover","nw","nw","h","h",1,0.615407958626747,NA,NA,NA
"experimental",30,17,"ld","upper","carbled","nw","nw","h","h",1,0.77342376159504,NA,NA,NA
"experimental",30,18,"ld","upper","wrecber","nw","nw","h","h",1,0.612726307474077,NA,NA,NA
"experimental",30,19,"ld","upper","filter","w","w","g","g",1,0.722789220046252,NA,NA,NA
"experimental",30,20,"ld","upper","misest","nw","nw","h","g",0,0.564095058478415,NA,NA,NA
"experimental",30,21,"ld","upper","egpended","nw","nw","h","h",1,0.59582197247073,NA,NA,NA
"experimental",30,22,"ld","upper","parody","w","w","g","g",1,0.6908428077586,NA,NA,NA
"experimental",30,23,"ld","upper","sprea","nw","nw","h","g",0,0.445551506243646,NA,NA,NA
"experimental",30,24,"ld","upper","budget","w","w","g","g",1,0.0175258670933545,NA,NA,NA
"experimental",30,25,"ld","upper","mubby","nw","nw","h","g",0,0.126926643773913,NA,NA,NA
"experimental",30,26,"ld","upper","bickering","w","w","g","g",1,0.363240373320878,NA,NA,NA
"experimental",30,27,"ld","upper","valif","nw","nw","h","g",0,0.186999935656786,NA,NA,NA
"experimental",30,28,"ld","upper","acting","w","w","g","g",1,0.153617019299418,NA,NA,NA
"experimental",30,29,"ld","upper","partner","w","w","g","g",1,0.56962886126712,NA,NA,NA
"experimental",30,30,"ld","upper","explosion","w","w","g","g",1,0.42513420805335,NA,NA,NA
"experimental",31,1,"hd","lower","gairs","nw","nw","h","h",1,15.3828915799968,NA,NA,NA
"experimental",31,2,"hd","lower","fallint","nw","nw","h","h",1,0.605726535432041,NA,NA,NA
"experimental",31,3,"hd","lower","unstatle","nw","nw","h","h",1,0.522662222385406,NA,NA,NA
"experimental",31,4,"hd","lower","plapping","nw","nw","h","h",1,0.540024093352258,NA,NA,NA
"experimental",31,5,"hd","lower","shivering","w","w","g","g",1,0.540598496329039,NA,NA,NA
"experimental",31,6,"hd","lower","dileting","nw","nw","h","g",0,0.717379567679018,NA,NA,NA
"experimental",31,7,"hd","lower","slooch","nw","nw","h","h",1,0.62205679807812,NA,NA,NA
"experimental",31,8,"hd","lower","ready","w","w","g","g",1,0.643427572213113,NA,NA,NA
"experimental",31,9,"hd","lower","tycoon","w","w","g","g",1,0.656066757626832,NA,NA,NA
"experimental",31,10,"hd","lower","require","w","w","g","g",1,0.508107477333397,NA,NA,NA
"experimental",31,11,"hd","lower","iflaid","nw","nw","h","h",1,0.790076815988868,NA,NA,NA
"experimental",31,12,"hd","lower","forgery","w","w","g","h",0,0.691850248258561,NA,NA,NA
"experimental",31,13,"hd","lower","racile","nw","nw","h","h",1,0.638533061835915,NA,NA,NA
"experimental",31,14,"hd","lower","remade","w","w","g","g",1,0.555292951874435,NA,NA,NA
"experimental",31,15,"hd","lower","gelented","nw","nw","h","h",1,0.643275611568242,NA,NA,NA
"experimental",31,16,"hd","lower","downtrund","nw","nw","h","h",1,0.543828065041453,NA,NA,NA
"experimental",31,17,"hd","lower","disease","w","w","g","g",1,0.712667807471007,NA,NA,NA
"experimental",31,18,"hd","lower","encounter","w","w","g","g",1,0.218071665614843,NA,NA,NA
"experimental",31,19,"hd","lower","glattery","nw","nw","h","g",0,0.104627885855734,NA,NA,NA
"experimental",31,20,"hd","lower","galashes","nw","nw","h","g",0,0.0266706291586161,NA,NA,NA
"experimental",31,21,"hd","lower","footstep","w","w","g","g",1,0.255017867777497,NA,NA,NA
"experimental",31,22,"hd","lower","gigoho","nw","nw","h","g",0,0.0593990231864154,NA,NA,NA
"experimental",31,23,"hd","lower","crocodile","target","target","q","g",0,0.17478253133595,NA,NA,NA
"experimental",31,24,"hd","lower","arcients","aftertar1","nw","h","h",1,1.91802203888074,NA,NA,NA
"experimental",31,25,"hd","lower","sliding","aftertar2","w","g","g",1,1.17534137377515,NA,NA,NA
"experimental",31,26,"hd","lower","baseline","aftertar3","w","g","g",1,0.822978359181434,NA,NA,NA
"experimental",31,27,"hd","lower","sazer","w","nw","h","h",1,0.764082676265389,NA,NA,NA
"experimental",31,28,"hd","lower","restock","nw","w","g","g",1,0.588072000071406,NA,NA,NA
"experimental",31,29,"hd","lower","record","w","w","g","g",1,0.666791707277298,NA,NA,NA
"experimental",31,30,"hd","lower","located","w","w","g","g",1,0.638729385565966,NA,NA,NA
"experimental",32,1,"hd","lower","noblest","w","w","g","g",1,0.667288640048355,NA,NA,NA
"experimental",32,2,"hd","lower","heuls","nw","nw","h","h",1,0.574000283144414,NA,NA,NA
"experimental",32,3,"hd","lower","caloric","w","w","g","g",1,0.701375076081604,NA,NA,NA
"experimental",32,4,"hd","lower","cabinet","w","w","g","g",1,0.67143328115344,NA,NA,NA
"experimental",32,5,"hd","lower","gewer","nw","nw","h","h",1,0.690726934466511,NA,NA,NA
"experimental",32,6,"hd","lower","flacked","nw","nw","h","h",1,0.772389836143702,NA,NA,NA
"experimental",32,7,"hd","lower","unbridled","w","w","g","h",0,0.699799523223191,NA,NA,NA
"experimental",32,8,"hd","lower","fullity","nw","nw","h","g",0,0.414405285846442,NA,NA,NA
"experimental",32,9,"hd","lower","kiner","nw","nw","h","g",0,0.356456788722426,NA,NA,NA
"experimental",32,10,"hd","lower","finish","w","w","g","g",1,0.412914486136287,NA,NA,NA
"experimental",32,11,"hd","lower","latirizes","nw","nw","h","h",1,0.385742737911642,NA,NA,NA
"experimental",32,12,"hd","lower","joses","nw","nw","h","h",1,0.409232347272336,NA,NA,NA
"experimental",32,13,"hd","lower","sputter","w","w","g","h",0,0.478572234045714,NA,NA,NA
"experimental",32,14,"hd","lower","latter","w","w","g","h",0,0.402642106637359,NA,NA,NA
"experimental",32,15,"hd","lower","reses","nw","nw","h","h",1,1.76615979755297,NA,NA,NA
"experimental",32,16,"hd","lower","classify","w","w","g","g",1,9.71586923580617,NA,NA,NA
"experimental",32,17,"hd","lower","miracle","w","w","g","g",1,0.645579514559358,NA,NA,NA
"experimental",32,18,"hd","lower","pallir","nw","nw","h","h",1,0.594202056061476,NA,NA,NA
"experimental",32,19,"hd","lower","goltish","nw","nw","h","h",1,0.576016488019377,NA,NA,NA
"experimental",32,20,"hd","lower","infancy","w","w","g","g",1,0.647287826053798,NA,NA,NA
"experimental",32,21,"hd","lower","donastic","nw","nw","h","g",0,0.396011806558818,NA,NA,NA
"experimental",32,22,"hd","lower","picnic","w","w","g","g",1,0.49072309397161,NA,NA,NA
"experimental",32,23,"hd","lower","tining","nw","nw","h","h",1,0.621476104483008,NA,NA,NA
"experimental",32,24,"hd","lower","kickoff","w","w","g","g",1,0.0347063126973808,NA,NA,NA
"experimental",32,25,"hd","lower","houted","nw","nw","h","h",1,0.534722038544714,NA,NA,NA
"experimental",32,26,"hd","lower","mining","w","w","g","g",1,0.58283748337999,NA,NA,NA
"experimental",32,27,"hd","lower","ensues","w","w","g","h",0,0.590081252157688,NA,NA,NA
"experimental",32,28,"hd","lower","glapula","nw","nw","h","h",1,0.508805368561298,NA,NA,NA
"experimental",32,29,"hd","lower","visible","w","w","g","g",1,0.566005321219563,NA,NA,NA
"experimental",32,30,"hd","lower","elvisages","nw","nw","h","h",1,0.693833345547318,NA,NA,NA
"experimental",33,1,"ld","upper","extruded","w","w","g","h",0,0.101554249878973,NA,NA,NA
"experimental",33,2,"ld","upper","hindsight","w","w","g","h",0,1.09345268411562,NA,NA,NA
"experimental",33,3,"ld","upper","implode","w","w","g","h",0,0.24808199191466,NA,NA,NA
"experimental",33,4,"ld","upper","correct","w","w","g","h",0,0.380813134368509,NA,NA,NA
"experimental",33,5,"ld","upper","superstar","w","w","g","g",1,13.5637831920758,NA,NA,NA
"experimental",33,6,"ld","upper","sponto","nw","nw","h","h",1,0.418408891651779,NA,NA,NA
"experimental",33,7,"ld","upper","graiking","nw","nw","h","g",0,0.398704383056611,NA,NA,NA
"experimental",33,8,"ld","upper","frowsed","nw","nw","h","g",0,0.221109215170145,NA,NA,NA
"experimental",33,9,"ld","upper","fabstand","nw","nw","h","g",0,7.20974497310817,NA,NA,NA
"experimental",33,10,"ld","upper","punctual","w","w","g","g",1,1.66070137917995,NA,NA,NA
"experimental",33,11,"ld","upper","stagger","w","w","g","g",1,0.431609568186104,NA,NA,NA
"experimental",33,12,"ld","upper","earmaff","nw","nw","h","g",0,0.596912510693073,NA,NA,NA
"experimental",33,13,"ld","upper","gorilla","target","target","q","g",0,0.507566512096673,NA,NA,NA
"experimental",33,14,"ld","upper","rumblos","aftertar1","nw","h","h",1,0.581237762235105,NA,NA,NA
"experimental",33,15,"ld","upper","slogan","aftertar2","w","g","h",0,0.548969552386552,NA,NA,NA
"experimental",33,16,"ld","upper","dumult","aftertar3","nw","h","h",1,0.725664215162396,NA,NA,NA
"experimental",33,17,"ld","upper","servant","nw","w","g","g",1,0.550112398806959,NA,NA,NA
"experimental",33,18,"ld","upper","athcan","w","nw","h","h",1,0.598438734188676,NA,NA,NA
"experimental",33,19,"ld","upper","grolific","nw","nw","h","h",1,0.565176657401025,NA,NA,NA
"experimental",33,20,"ld","upper","omission","nw","w","g","h",0,0.869051445275545,NA,NA,NA
"experimental",33,21,"ld","upper","arpired","w","nw","h","h",1,0.910708083305508,NA,NA,NA
"experimental",33,22,"ld","upper","bengths","nw","nw","h","h",1,0.672742986585945,NA,NA,NA
"experimental",33,23,"ld","upper","paterways","nw","nw","h","g",0,0.636090772692114,NA,NA,NA
"experimental",33,24,"ld","upper","admire","nw","w","g","g",1,0.51213160995394,NA,NA,NA
"experimental",33,25,"ld","upper","mystery","w","w","g","g",1,0.562051043845713,NA,NA,NA
"experimental",33,26,"ld","upper","fashing","w","nw","h","g",0,0.482203719671816,NA,NA,NA
"experimental",33,27,"ld","upper","melodic","nw","w","g","g",1,0.845321149099618,NA,NA,NA
"experimental",33,28,"ld","upper","posing","w","w","g","h",0,0.674310924485326,NA,NA,NA
"experimental",33,29,"ld","upper","lenie","w","nw","h","h",1,0.701657477300614,NA,NA,NA
"experimental",33,30,"ld","upper","gures","nw","nw","h","h",1,0.646774008404464,NA,NA,NA
"experimental",34,1,"ld","upper","usually","w","w","g","g",1,0.428144278936088,NA,NA,NA
"experimental",34,2,"ld","upper","recollect","w","w","g","g",1,0.409474357962608,NA,NA,NA
"experimental",34,3,"ld","upper","mineluyer","nw","nw","h","h",1,0.567622588481754,NA,NA,NA
"experimental",34,4,"ld","upper","urgent","w","w","g","g",1,0.606867064721882,NA,NA,NA
"experimental",34,5,"ld","upper","standard","w","w","g","g",1,0.516344781499356,NA,NA,NA
"experimental",34,6,"ld","upper","brudent","nw","nw","h","g",0,0.445761072449386,NA,NA,NA
"experimental",34,7,"ld","upper","alticles","nw","nw","h","h",1,0.905737427528948,NA,NA,NA
"experimental",34,8,"ld","upper","drauns","nw","nw","h","h",1,0.180711297784001,NA,NA,NA
"experimental",34,9,"ld","upper","castaway","w","w","g","h",0,0.020033045206219,NA,NA,NA
"experimental",34,10,"ld","upper","penalize","w","w","g","h",0,0.0173629815690219,NA,NA,NA
"experimental",34,11,"ld","upper","odacles","nw","nw","h","g",0,0.76706261979416,NA,NA,NA
"experimental",34,12,"ld","upper","clattest","nw","nw","h","g",0,0.102928513661027,NA,NA,NA
"experimental",34,13,"ld","upper","peags","nw","nw","h","h",1,0.335580961313099,NA,NA,NA
"experimental",34,14,"ld","upper","maintain","w","w","g","h",0,0.470604750327766,NA,NA,NA
"experimental",34,15,"ld","upper","analysis","w","w","g","g",1,0.161634163465351,NA,NA,NA
"experimental",34,16,"ld","upper","attended","w","w","g","h",0,0.225777274928987,NA,NA,NA
"experimental",34,17,"ld","upper","brimitar","nw","nw","h","h",1,5.27030294854194,NA,NA,NA
"experimental",34,18,"ld","upper","ottans","nw","nw","h","g",0,0.185547871049494,NA,NA,NA
"experimental",34,19,"ld","upper","dounger","nw","nw","h","h",1,0.095594032201916,NA,NA,NA
"experimental",34,20,"ld","upper","carony","nw","nw","h","h",1,2.14586307480931,NA,NA,NA
"experimental",34,21,"ld","upper","dishwater","w","w","g","h",0,7.05978637328371,NA,NA,NA
"experimental",34,22,"ld","upper","fuestion","nw","nw","h","h",1,0.105234402697533,NA,NA,NA
"experimental",34,23,"ld","upper","religious","w","w","g","h",0,0.0908799539320171,NA,NA,NA
"experimental",34,24,"ld","upper","intercede","w","w","g","h",0,0.0299985250458121,NA,NA,NA
"experimental",34,25,"ld","upper","vinegar","w","w","g","g",1,0.0348804546520114,NA,NA,NA
"experimental",34,26,"ld","upper","tinion","nw","nw","h","h",1,15.7913113683462,NA,NA,NA
"experimental",34,27,"ld","upper","imotope","nw","nw","h","g",0,0.10996106127277,NA,NA,NA
"experimental",34,28,"ld","upper","pircus","nw","nw","h","h",1,0.59204746549949,NA,NA,NA
"experimental",34,29,"ld","upper","childhood","w","w","g","g",1,0.438710978254676,NA,NA,NA
"experimental",34,30,"ld","upper","knowledge","w","w","g","g",1,0.443372747395188,NA,NA,NA
"experimental",35,1,"ld","upper","elbalm","nw","nw","h","g",0,7.5352325453423,NA,NA,NA
"experimental",35,2,"ld","upper","volume","w","w","g","h",0,0.126287682447582,NA,NA,NA
"experimental",35,3,"ld","upper","seasoning","w","w","g","g",1,0.0686454232782125,NA,NA,NA
"experimental",35,4,"ld","upper","target","w","w","g","g",1,0.0303209852427244,NA,NA,NA
"experimental",35,5,"ld","upper","thesis","w","w","g","g",1,0.387666574213654,NA,NA,NA
"experimental",35,6,"ld","upper","scabry","nw","nw","h","h",1,7.88777334382757,NA,NA,NA
"experimental",35,7,"ld","upper","overwork","w","w","g","h",0,0.241731774993241,NA,NA,NA
"experimental",35,8,"ld","upper","permeable","w","w","g","h",0,7.65335100609809,NA,NA,NA
"experimental",35,9,"ld","upper","lutton","nw","nw","h","g",0,0.0887568145990372,NA,NA,NA
"experimental",35,10,"ld","upper","pexts","nw","nw","h","g",0,0.201744713354856,NA,NA,NA
"experimental",35,11,"ld","upper","opert","nw","nw","h","g",0,0.181550555396825,NA,NA,NA
"experimental",35,12,"ld","upper","shurk","nw","nw","h","h",1,3.54011348169297,NA,NA,NA
"experimental",35,13,"ld","upper","slimped","nw","nw","h","g",0,0.121039591729641,NA,NA,NA
"experimental",35,14,"ld","upper","unsmilung","nw","nw","h","g",0,0.138186930213124,NA,NA,NA
"experimental",35,15,"ld","upper","ifkling","nw","nw","h","g",0,0.00973583571612835,NA,NA,NA
"experimental",35,16,"ld","upper","ucility","nw","nw","h","g",0,0.159045542124659,NA,NA,NA
"experimental",35,17,"ld","upper","trake","nw","nw","h","h",1,0.00067814439535141,NA,NA,NA
"experimental",35,18,"ld","upper","reborn","w","w","g","h",0,0.252090563997626,NA,NA,NA
"experimental",35,19,"ld","upper","pocket","w","w","g","g",1,0.613790360279381,NA,NA,NA
"experimental",35,20,"ld","upper","mandate","w","w","g","g",1,0.427889356855303,NA,NA,NA
"experimental",35,21,"ld","upper","arbitrary","w","w","g","g",1,0.409133689012378,NA,NA,NA
"experimental",35,22,"ld","upper","pammed","nw","nw","h","g",0,0.639570960309356,NA,NA,NA
"experimental",35,23,"ld","upper","phraining","nw","nw","h","g",0,0.699579693842679,NA,NA,NA
"experimental",35,24,"ld","upper","dreaded","w","w","g","g",1,0.510643458925188,NA,NA,NA
"experimental",35,25,"ld","upper","aviation","w","w","g","g",1,0.639714644290507,NA,NA,NA
"experimental",35,26,"ld","upper","confined","w","w","g","g",1,0.684563109185547,NA,NA,NA
"experimental",35,27,"ld","upper","bedding","w","w","g","g",1,1.02994356770068,NA,NA,NA
"experimental",35,28,"ld","upper","razelle","nw","nw","h","h",1,0.506737186573446,NA,NA,NA
"experimental",35,29,"ld","upper","medium","w","w","g","g",1,0.597218417096883,NA,NA,NA
"experimental",35,30,"ld","upper","parlayid","nw","nw","h","h",1,0.587979963049293,NA,NA,NA
"experimental",36,1,"hd","lower","satisfies","w","w","g","g",1,0.738469265401363,NA,NA,NA
"experimental",36,2,"hd","lower","booster","w","w","g","g",1,0.507077855989337,NA,NA,NA
"experimental",36,3,"hd","lower","moisture","w","w","g","g",1,0.221081736497581,NA,NA,NA
"experimental",36,4,"hd","lower","design","w","w","g","g",1,1.11448411270976,NA,NA,NA
"experimental",36,5,"hd","lower","metrol","nw","nw","h","g",0,0.0444367337040603,NA,NA,NA
"experimental",36,6,"hd","lower","senalize","nw","nw","h","g",0,0.0250964001752436,NA,NA,NA
"experimental",36,7,"hd","lower","remain","w","w","g","h",0,0.0218535885214806,NA,NA,NA
"experimental",36,8,"hd","lower","amkles","nw","nw","h","g",0,0.0675555472262204,NA,NA,NA
"experimental",36,9,"hd","lower","sooled","nw","nw","h","h",1,0.115610737819225,NA,NA,NA
"experimental",36,10,"hd","lower","provide","w","w","g","h",0,0.0602505304850638,NA,NA,NA
"experimental",36,11,"hd","lower","curricula","w","w","g","g",1,0.0799854975193739,NA,NA,NA
"experimental",36,12,"hd","lower","hemoter","nw","nw","h","h",1,0.13798464788124,NA,NA,NA
"experimental",36,13,"hd","lower","corduroy","w","w","g","g",1,0.120631715748459,NA,NA,NA
"experimental",36,14,"hd","lower","elephant","target","target","q","h",0,0.105677040759474,NA,NA,NA
"experimental",36,15,"hd","lower","nelvet","aftertar1","nw","h","h",1,1.96383258746937,NA,NA,NA
"experimental",36,16,"hd","lower","natch","aftertar2","nw","h","g",0,0.0414375881664455,NA,NA,NA
"experimental",36,17,"hd","lower","olgies","aftertar3","nw","h","h",1,0.0458699273876846,NA,NA,NA
"experimental",36,18,"hd","lower","temelity","nw","nw","h","h",1,0.186614572070539,NA,NA,NA
"experimental",36,19,"hd","lower","peanimate","nw","nw","h","g",0,0.0399050745181739,NA,NA,NA
"experimental",36,20,"hd","lower","planofoad","nw","nw","h","g",0,0.756676684133708,NA,NA,NA
"experimental",36,21,"hd","lower","gonesty","nw","nw","h","g",0,0.0847349995747209,NA,NA,NA
"experimental",36,22,"hd","lower","hangar","nw","w","g","h",0,0.116139122284949,NA,NA,NA
"experimental",36,23,"hd","lower","standard","w","w","g","h",0,0.0142910010181367,NA,NA,NA
"experimental",36,24,"hd","lower","splum","w","nw","h","g",0,0.5299924002029,NA,NA,NA
"experimental",36,25,"hd","lower","series","nw","w","g","g",1,0.595059853512794,NA,NA,NA
"experimental",36,26,"hd","lower","sampling","w","w","g","h",0,7.2580828955397,NA,NA,NA
"experimental",36,27,"hd","lower","stelled","w","nw","h","h",1,0.117851406335831,NA,NA,NA
"experimental",36,28,"hd","lower","destroy","nw","w","g","h",0,0.0196056365966797,NA,NA,NA
"experimental",36,29,"hd","lower","eggays","w","nw","h","h",1,0.0480294842272997,NA,NA,NA
"experimental",36,30,"hd","lower","revising","nw","w","g","g",1,0.0682623777538538,NA,NA,NA
"experimental",37,1,"ld","upper","pillage","w","w","g","g",1,3.31862762803212,NA,NA,NA
"experimental",37,2,"ld","upper","insole","w","w","g","g",1,0.652192267589271,NA,NA,NA
"experimental",37,3,"ld","upper","peadgear","nw","nw","h","h",1,1.19097540061921,NA,NA,NA
"experimental",37,4,"ld","upper","eyesight","w","w","g","g",1,0.709665682632476,NA,NA,NA
"experimental",37,5,"ld","upper","bamps","nw","nw","h","h",1,0.63967557810247,NA,NA,NA
"experimental",37,6,"ld","upper","ebuating","nw","nw","h","h",1,0.700810274109244,NA,NA,NA
