"procedure","block","trial","PMdemand","context","stim","role","word_type","correct_key","response","correct","reaction_time","pressedQ","pressedQ_blank","pressedQ_fix"
"LDTpractice",1,1,NA,"upper","grutch","","nw","h","g",0,0.471629725681851,NA,NA,NA
"LDTpractice",2,1,NA,"upper","turative","","nw","h","h",1,0.832975354074733,NA,NA,NA
"LDTpractice",3,1,NA,"upper","slumber","","w","g","g",1,0.542534378444543,NA,NA,NA
"LDTpractice",4,1,NA,"upper","unscrew","","w","g","g",1,0.63044842731324,NA,NA,NA
"LDTpractice",5,1,NA,"upper","crinklo","","nw","h","h",1,0.610603414534125,NA,NA,NA
"LDTpractice",6,1,NA,"upper","alolition","","nw","h","h",1,0.697674889626796,NA,NA,NA
"LDTpractice",7,1,NA,"upper","overshoot","","w","g","g",1,0.524371533596423,NA,NA,NA
"LDTpractice",8,1,NA,"upper","umpire","","w","g","g",1,0.637838908442063,NA,NA,NA
"LDTpractice",9,1,NA,"upper","infinity","","w","g","g",1,0.481706179736648,NA,NA,NA
"LDTpractice",10,1,NA,"upper","hasking","","nw","h","h",1,0.678132143992116,NA,NA,NA
"LDTpractice",11,1,NA,"upper","raestro","","nw","h","h",1,0.624556370108621,NA,NA,NA
"LDTpractice",12,1,NA,"upper","lurshing","","nw","h","h",1,1.02203434318653,NA,NA,NA
"LDTpractice",13,1,NA,"upper","sponsor","","w","g","g",1,0.491503872632165,NA,NA,NA
"LDTpractice",14,1,NA,"upper","summary","","w","g","g",1,0.502260676046717,NA,NA,NA
"LDTpractice",1,2,NA,"lower","curlecs","","nw","h","h",1,0.648211670370074,NA,NA,NA
"LDTpractice",2,2,NA,"lower","lumbigo","","nw","h","h",1,0.540983645405504,NA,NA,NA
"LDTpractice",3,2,NA,"lower","grimace","","w","g","g",1,0.493819377952605,NA,NA,NA
"LDTpractice",4,2,NA,"lower","busted","","w","g","g",1,0.55237477942137,NA,NA,NA
"LDTpractice",5,2,NA,"lower","grocus","","nw","h","h",1,0.568594572978327,NA,NA,NA
"LDTpractice",6,2,NA,"lower","trotch","","nw","h","h",1,0.527032676254748,NA,NA,NA
"LDTpractice",7,2,NA,"lower","tricycle","","w","g","g",1,0.552553226269083,NA,NA,NA
"LDTpractice",8,2,NA,"lower","revival","","w","g","g",1,0.52124854795693,NA,NA,NA
"LDTpractice",9,2,NA,"lower","picture","","w","g","g",1,0.426676676404895,NA,NA,NA
"LDTpractice",10,2,NA,"lower","julled","","nw","h","h",1,0.479406896862201,NA,NA,NA
"LDTpractice",11,2,NA,"lower","latador","","nw","h","h",1,0.483793577644974,NA,NA,NA
"LDTpractice",12,2,NA,"lower","treeps","","nw","h","g",0,0.4540707529668,NA,NA,NA
"LDTpractice",13,2,NA,"lower","hiring","","w","g","g",1,0.538137765557622,NA,NA,NA
"LDTpractice",14,2,NA,"lower","reputable","","w","g","g",1,0.498965533872251,NA,NA,NA
"experimental",1,1,"hd","upper","undertake","w","w","g","h",0,0.771097993754665,NA,NA,NA
"experimental",1,2,"hd","upper","reborn","w","w","g","g",1,0.875075571035268,NA,NA,NA
"experimental",1,3,"hd","upper","recipus","nw","nw","h","h",1,0.783213178394362,NA,NA,NA
"experimental",1,4,"hd","upper","punctual","w","w","g","g",1,0.687215056226705,NA,NA,NA
"experimental",1,5,"hd","upper","guivers","nw","nw","h","h",1,0.602674282112275,NA,NA,NA
"experimental",1,6,"hd","upper","cherry","w","w","g","g",1,0.449481788265985,NA,NA,NA
"experimental",1,7,"hd","upper","padicals","nw","nw","h","h",1,0.766805336927064,NA,NA,NA
"experimental",1,8,"hd","upper","bloves","nw","nw","h","h",1,0.623473770407145,NA,NA,NA
"experimental",1,9,"hd","upper","gund","nw","nw","h","h",1,0.541569308668841,NA,NA,NA
"experimental",1,10,"hd","upper","borrent","nw","nw","h","g",0,0.862120792255155,NA,NA,NA
"experimental",1,11,"hd","upper","mineluyer","nw","nw","h","h",1,0.642704647878418,NA,NA,NA
"experimental",1,12,"hd","upper","fuhrek","nw","nw","h","h",1,0.576014188292902,NA,NA,NA
"experimental",1,13,"hd","upper","comply","w","w","g","g",1,0.608148859711946,NA,NA,NA
"experimental",1,14,"hd","upper","donastic","nw","nw","h","h",1,0.678948232147377,NA,NA,NA
"experimental",1,15,"hd","upper","gorilla","target","target","q","g",0,0.498994668058003,1,1,NA
"experimental",1,16,"hd","upper","caloric","aftertar1","w","g","g",1,1.4464313070057,NA,NA,NA
"experimental",1,17,"hd","upper","rarely","aftertar2","w","g","g",1,0.668877406278625,NA,NA,NA
"experimental",1,18,"hd","upper","dests","aftertar3","nw","h","h",1,0.687985787764774,NA,NA,NA
"experimental",1,19,"hd","upper","glamorous","nw","w","g","g",1,0.570541597087868,NA,NA,NA
"experimental",1,20,"hd","upper","intercede","w","w","g","g",1,0.706510161311598,NA,NA,NA
"experimental",1,21,"hd","upper","nature","w","w","g","g",1,0.837282577995211,NA,NA,NA
"experimental",1,22,"hd","upper","volition","w","w","g","g",1,0.738614043206326,NA,NA,NA
"experimental",1,23,"hd","upper","realize","w","w","g","g",1,0.498508325865259,NA,NA,NA
"experimental",1,24,"hd","upper","rumblos","w","nw","h","h",1,0.575407336538774,NA,NA,NA
"experimental",1,25,"hd","upper","enabled","nw","w","g","g",1,0.575510961512919,NA,NA,NA
"experimental",1,26,"hd","upper","knowledge","w","w","g","g",1,0.543559371930314,NA,NA,NA
"experimental",1,27,"hd","upper","lenie","w","nw","h","h",1,0.544957812642679,NA,NA,NA
"experimental",1,28,"hd","upper","ucility","nw","nw","h","h",1,0.610376631419058,NA,NA,NA
"experimental",1,29,"hd","upper","ragtam","nw","nw","h","h",1,0.520202697050991,NA,NA,NA
"experimental",1,30,"hd","upper","kettle","nw","w","g","g",1,0.562222463922808,NA,NA,NA
"experimental",2,1,"hd","upper","seartfelt","nw","nw","h","h",1,0.907264206907712,NA,NA,NA
"experimental",2,2,"hd","upper","army","w","w","g","g",1,0.581971135252388,NA,NA,NA
"experimental",2,3,"hd","upper","permute","w","w","g","g",1,0.733314932833309,NA,NA,NA
"experimental",2,4,"hd","upper","frowsed","nw","nw","h","h",1,0.567235860682558,NA,NA,NA
"experimental",2,5,"hd","upper","oalis","nw","nw","h","h",1,0.663110162582598,NA,NA,NA
"experimental",2,6,"hd","upper","guffy","nw","nw","h","h",1,0.627882963963202,NA,NA,NA
"experimental",2,7,"hd","upper","apticle","nw","nw","h","h",1,0.51393752367585,NA,NA,NA
"experimental",2,8,"hd","upper","suburb","w","w","g","g",1,0.508636426879093,NA,NA,NA
"experimental",2,9,"hd","upper","ipiocy","nw","nw","h","h",1,0.51139987022907,NA,NA,NA
"experimental",2,10,"hd","upper","strenuous","w","w","g","g",1,0.626133919839049,NA,NA,NA
"experimental",2,11,"hd","upper","actual","w","w","g","g",1,0.463903870389913,NA,NA,NA
"experimental",2,12,"hd","upper","adok","nw","nw","h","h",1,0.492952636050177,NA,NA,NA
"experimental",2,13,"hd","upper","snays","nw","nw","h","h",1,0.543517326004803,NA,NA,NA
"experimental",2,14,"hd","upper","theles","nw","nw","h","h",1,0.544886963616591,NA,NA,NA
"experimental",2,15,"hd","upper","digested","w","w","g","g",1,0.570244296017336,NA,NA,NA
"experimental",2,16,"hd","upper","hemoter","nw","nw","h","h",1,0.642278891536989,NA,NA,NA
"experimental",2,17,"hd","upper","forfeit","w","w","g","g",1,0.543705373915145,NA,NA,NA
"experimental",2,18,"hd","upper","moisture","w","w","g","g",1,0.545117057452444,NA,NA,NA
"experimental",2,19,"hd","upper","obtuse","w","w","g","g",1,0.47448851725494,NA,NA,NA
"experimental",2,20,"hd","upper","tragedy","w","w","g","g",1,0.542566492265905,NA,NA,NA
"experimental",2,21,"hd","upper","plunging","w","w","g","g",1,0.544012607104378,NA,NA,NA
"experimental",2,22,"hd","upper","stagger","w","w","g","g",1,0.473365858051693,NA,NA,NA
"experimental",2,23,"hd","upper","ireology","nw","nw","h","h",1,0.740580931553268,NA,NA,NA
"experimental",2,24,"hd","upper","rearrange","w","w","g","g",1,0.533973232915741,NA,NA,NA
"experimental",2,25,"hd","upper","ubefully","nw","nw","h","h",1,0.663248549943091,NA,NA,NA
"experimental",2,26,"hd","upper","browting","nw","nw","h","h",1,1.27600097858522,NA,NA,NA
"experimental",2,27,"hd","upper","porcupine","target","target","q","g",0,0.600073725305265,1,1,NA
"experimental",2,28,"hd","upper","superstar","aftertar1","w","g","g",1,0.799515739519848,NA,NA,NA
"experimental",2,29,"hd","upper","pripend","aftertar2","nw","h","h",1,0.630903979967115,NA,NA,NA
"experimental",2,30,"hd","upper","sponto","aftertar3","nw","h","h",1,0.525039964428288,NA,NA,NA
"experimental",3,1,"ld","lower","razelle","nw","nw","h","h",1,1.44625881941465,NA,NA,NA
"experimental",3,2,"ld","lower","nearsipe","nw","nw","h","h",1,0.707687778194668,NA,NA,NA
"experimental",3,3,"ld","lower","huffle","nw","nw","h","h",1,0.678502942653722,NA,NA,NA
"experimental",3,4,"ld","lower","atsless","nw","nw","h","h",1,0.481285389440018,NA,NA,NA
"experimental",3,5,"ld","lower","mitro","nw","nw","h","h",1,0.622605042066425,NA,NA,NA
"experimental",3,6,"ld","lower","picnic","w","w","g","g",1,0.57267435164249,NA,NA,NA
"experimental",3,7,"ld","lower","comment","w","w","g","g",1,0.54783746166504,NA,NA,NA
"experimental",3,8,"ld","lower","intrude","w","w","g","g",1,0.453293731086887,NA,NA,NA
"experimental",3,9,"ld","lower","gewer","nw","nw","h","h",1,0.585931066481862,NA,NA,NA
"experimental",3,10,"ld","lower","happen","w","w","g","g",1,0.505351878950023,NA,NA,NA
"experimental",3,11,"ld","lower","vopings","nw","nw","h","h",1,0.548033786326414,NA,NA,NA
"experimental",3,12,"ld","lower","scack","nw","nw","h","h",1,0.661502485454548,NA,NA,NA
"experimental",3,13,"ld","lower","ounside","nw","nw","h","h",1,0.546253621592768,NA,NA,NA
"experimental",3,14,"ld","lower","single","w","w","g","g",1,0.491606173338368,NA,NA,NA
"experimental",3,15,"ld","lower","wimpid","nw","nw","h","h",1,0.574995154078351,NA,NA,NA
"experimental",3,16,"ld","lower","aviation","w","w","g","g",1,0.831020384270232,NA,NA,NA
"experimental",3,17,"ld","lower","ahead","w","w","g","g",1,1.49224613212573,NA,NA,NA
"experimental",3,18,"ld","lower","ignoble","w","w","g","h",0,0.65556838233897,NA,NA,NA
"experimental",3,19,"ld","lower","regards","w","w","g","g",1,0.508310322678881,NA,NA,NA
"experimental",3,20,"ld","lower","mabit","nw","nw","h","h",1,0.623046358727152,NA,NA,NA
"experimental",3,21,"ld","lower","ameld","nw","nw","h","h",1,0.581146108204848,NA,NA,NA
"experimental",3,22,"ld","lower","anemic","w","w","g","g",1,0.765187727709417,NA,NA,NA
"experimental",3,23,"ld","lower","remain","w","w","g","g",1,0.557936097422498,NA,NA,NA
"experimental",3,24,"ld","lower","recount","w","w","g","g",1,0.398754542809911,NA,NA,NA
"experimental",3,25,"ld","lower","airmen","w","w","g","g",1,0.598011819820385,NA,NA,NA
"experimental",3,26,"ld","lower","olgies","nw","nw","h","h",1,0.524567858257797,NA,NA,NA
"experimental",3,27,"ld","lower","saturate","w","w","g","g",1,0.742548482041457,NA,NA,NA
"experimental",3,28,"ld","lower","lonnote","nw","nw","h","h",1,0.527944443703745,NA,NA,NA
"experimental",3,29,"ld","lower","couple","w","w","g","g",1,0.561915892874822,NA,NA,NA
"experimental",3,30,"ld","lower","huzzles","nw","nw","h","h",1,0.610600103827892,NA,NA,NA
"experimental",4,1,"ld","lower","integral","w","w","g","g",1,0.680780043825507,NA,NA,NA
"experimental",4,2,"ld","lower","mandlers","nw","nw","h","h",1,0.684781358839246,NA,NA,NA
"experimental",4,3,"ld","lower","despise","w","w","g","h",0,0.61629318780615,NA,NA,NA
"experimental",4,4,"ld","lower","teamwork","w","w","g","g",1,0.598921269789571,NA,NA,NA
"experimental",4,5,"ld","lower","cartles","nw","nw","h","h",1,0.686365861038212,NA,NA,NA
"experimental",4,6,"ld","lower","rander","nw","nw","h","h",1,0.67373023397522,NA,NA,NA
"experimental",4,7,"ld","lower","dishwater","w","w","g","g",1,0.565874168751179,NA,NA,NA
"experimental",4,8,"ld","lower","baseline","w","w","g","g",1,0.510546371137025,NA,NA,NA
"experimental",4,9,"ld","lower","overwork","w","w","g","g",1,0.433338802991784,NA,NA,NA
"experimental",4,10,"ld","lower","doads","nw","nw","h","h",1,1.11935674634879,NA,NA,NA
"experimental",4,11,"ld","lower","desert","w","w","g","g",1,0.52852381663979,NA,NA,NA
"experimental",4,12,"ld","lower","bingu","nw","nw","h","h",1,0.60249186240253,NA,NA,NA
"experimental",4,13,"ld","lower","erony","nw","nw","h","h",1,0.569264659163309,NA,NA,NA
"experimental",4,14,"ld","lower","parlayid","nw","nw","h","h",1,0.60929999097425,NA,NA,NA
"experimental",4,15,"ld","lower","harmful","w","w","g","g",1,0.504048124319525,NA,NA,NA
"experimental",4,16,"ld","lower","unstatle","nw","nw","h","h",1,0.954787023452809,NA,NA,NA
"experimental",4,17,"ld","lower","tasher","nw","nw","h","h",1,0.651504163979553,NA,NA,NA
"experimental",4,18,"ld","lower","tinion","nw","nw","h","h",1,0.768320314382436,NA,NA,NA
"experimental",4,19,"ld","lower","oppose","w","w","g","g",1,0.544360561922076,NA,NA,NA
"experimental",4,20,"ld","lower","inside","w","w","g","g",1,0.496813246194506,NA,NA,NA
"experimental",4,21,"ld","lower","uncarled","nw","nw","h","h",1,0.652205039703404,NA,NA,NA
"experimental",4,22,"ld","lower","coster","nw","nw","h","h",1,0.720872650796082,NA,NA,NA
"experimental",4,23,"ld","lower","colored","w","w","g","g",1,0.538913463140489,NA,NA,NA
"experimental",4,24,"ld","lower","deceit","w","w","g","g",1,0.540275817227666,NA,NA,NA
"experimental",4,25,"ld","lower","labitable","nw","nw","h","h",1,0.693019710874069,NA,NA,NA
"experimental",4,26,"ld","lower","roaned","nw","nw","h","h",1,0.593030536867445,NA,NA,NA
"experimental",4,27,"ld","lower","clooped","nw","nw","h","h",1,0.600564371430664,NA,NA,NA
"experimental",4,28,"ld","lower","arrive","w","w","g","g",1,0.535209780282457,NA,NA,NA
"experimental",4,29,"ld","lower","statute","w","w","g","g",1,0.808478473249124,NA,NA,NA
"experimental",4,30,"ld","lower","purpose","w","w","g","g",1,0.543169702243176,NA,NA,NA
"experimental",5,1,"hd","upper","sording","nw","nw","h","h",1,0.712954112619627,NA,NA,NA
"experimental",5,2,"hd","upper","suspect","w","w","g","g",1,0.507598852709634,NA,NA,NA
"experimental",5,3,"hd","upper","chrayed","nw","nw","h","h",1,0.574330696079414,NA,NA,NA
"experimental",5,4,"hd","upper","railroad","w","w","g","g",1,0.845552381710149,NA,NA,NA
"experimental",5,5,"hd","upper","chesume","nw","nw","h","h",1,0.698932956554927,NA,NA,NA
"experimental",5,6,"hd","upper","aggepting","nw","nw","h","h",1,0.670310940462514,NA,NA,NA
"experimental",5,7,"hd","upper","catgup","nw","nw","h","h",1,0.570327063571312,NA,NA,NA
"experimental",5,8,"hd","upper","bumbo","nw","nw","h","h",1,0.554386362229707,NA,NA,NA
"experimental",5,9,"hd","upper","populace","w","w","g","g",1,1.01115537485748,NA,NA,NA
"experimental",5,10,"hd","upper","flamingo","target","target","q","g",0,0.505904766265303,1,1,NA
"experimental",5,11,"hd","upper","stuggard","aftertar1","nw","h","h",1,0.78061129731941,NA,NA,NA
"experimental",5,12,"hd","upper","mebase","aftertar2","nw","h","h",1,0.96470688127738,NA,NA,NA
"experimental",5,13,"hd","upper","icepick","aftertar3","w","g","g",1,0.756597447994864,NA,NA,NA
"experimental",5,14,"hd","upper","issue","w","w","g","g",1,0.613190728516201,NA,NA,NA
"experimental",5,15,"hd","upper","diatonic","w","w","g","h",0,0.779930285818409,NA,NA,NA
"experimental",5,16,"hd","upper","demon","w","w","g","g",1,1.23608085922024,NA,NA,NA
"experimental",5,17,"hd","upper","dabble","w","w","g","g",1,0.713354045481537,NA,NA,NA
"experimental",5,18,"hd","upper","glocked","w","nw","h","g",0,0.884121403403697,NA,NA,NA
"experimental",5,19,"hd","upper","butler","nw","w","g","g",1,0.831324306753231,NA,NA,NA
"experimental",5,20,"hd","upper","earnest","w","w","g","g",1,0.605703574867221,NA,NA,NA
"experimental",5,21,"hd","upper","loneliest","w","w","g","g",1,0.74850509793032,NA,NA,NA
"experimental",5,22,"hd","upper","beggarlan","w","nw","h","h",1,0.733079210811411,NA,NA,NA
"experimental",5,23,"hd","upper","frunted","nw","nw","h","h",1,1.12689554694225,NA,NA,NA
"experimental",5,24,"hd","upper","rewrite","nw","w","g","g",1,0.640996987538529,NA,NA,NA
"experimental",5,25,"hd","upper","stalemate","w","w","g","g",1,1.19046169660578,NA,NA,NA
"experimental",5,26,"hd","upper","quickel","w","nw","h","h",1,0.741415228578262,NA,NA,NA
"experimental",5,27,"hd","upper","mounting","nw","w","g","g",1,0.654608609693241,NA,NA,NA
"experimental",5,28,"hd","upper","teliever","w","nw","h","h",1,0.731351355192601,NA,NA,NA
"experimental",5,29,"hd","upper","truthful","nw","w","g","g",1,0.541428603813984,NA,NA,NA
"experimental",5,30,"hd","upper","fomrade","w","nw","h","h",1,0.766131608965225,NA,NA,NA
"experimental",6,1,"ld","lower","volume","w","w","g","g",1,0.64693142172473,NA,NA,NA
"experimental",6,2,"ld","lower","finish","w","w","g","g",1,0.604278317463468,NA,NA,NA
"experimental",6,3,"ld","lower","innocent","w","w","g","g",1,0.483071513430332,NA,NA,NA
"experimental",6,4,"ld","lower","mitten","w","w","g","g",1,0.647130063865916,NA,NA,NA
"experimental",6,5,"ld","lower","dontrite","nw","nw","h","h",1,0.603707883419702,NA,NA,NA
"experimental",6,6,"ld","lower","chiffol","nw","nw","h","h",1,0.482410697222804,NA,NA,NA
"experimental",6,7,"ld","lower","pallir","nw","nw","h","h",1,0.486286205530632,NA,NA,NA
"experimental",6,8,"ld","lower","prame","nw","nw","h","h",1,1.04164197859063,NA,NA,NA
"experimental",6,9,"ld","lower","geissue","nw","nw","h","h",1,0.559029622454545,NA,NA,NA
"experimental",6,10,"ld","lower","result","w","w","g","g",1,0.72778970147192,NA,NA,NA
"experimental",6,11,"ld","lower","sampling","w","w","g","g",1,0.521754092216725,NA,NA,NA
"experimental",6,12,"ld","lower","iflaid","nw","nw","h","h",1,0.636011069611413,NA,NA,NA
"experimental",6,13,"ld","lower","overcoat","w","w","g","g",1,0.551938097749371,NA,NA,NA
"experimental",6,14,"ld","lower","surfaced","w","w","g","g",1,0.59402573404077,NA,NA,NA
"experimental",6,15,"ld","lower","treenery","nw","nw","h","h",1,0.592579619187745,NA,NA,NA
"experimental",6,16,"ld","lower","outlaved","nw","nw","h","h",1,0.647909072155016,NA,NA,NA
"experimental",6,17,"ld","lower","throttle","w","w","g","g",1,0.725243109132862,NA,NA,NA
"experimental",6,18,"ld","lower","sefraud","nw","nw","h","h",1,0.59941621980397,NA,NA,NA
"experimental",6,19,"ld","lower","doxing","nw","nw","h","g",0,0.669979208061704,NA,NA,NA
"experimental",6,20,"ld","lower","squirrel","target","target","q","g",0,0.466880522973952,1,1,NA
"experimental",6,21,"ld","lower","rillains","aftertar1","nw","h","h",1,0.759634355374146,NA,NA,NA
"experimental",6,22,"ld","lower","perform","aftertar2","w","g","g",1,0.480305090444745,NA,NA,NA
"experimental",6,23,"ld","lower","solidity","aftertar3","w","g","g",1,0.476350787415868,NA,NA,NA
"experimental",6,24,"ld","lower","static","w","w","g","g",1,0.560425083545852,NA,NA,NA
"experimental",6,25,"ld","lower","shurk","w","nw","h","h",1,1.20829247799702,NA,NA,NA
"experimental",6,26,"ld","lower","fivalve","nw","nw","h","h",1,0.678983325589797,NA,NA,NA
"experimental",6,27,"ld","lower","metrol","nw","nw","h","h",1,0.91509997753019,NA,NA,NA
"experimental",6,28,"ld","lower","hatred","nw","w","g","g",1,0.525751103326911,NA,NA,NA
"experimental",6,29,"ld","lower","amaze","w","w","g","g",1,0.527829231272335,NA,NA,NA
"experimental",6,30,"ld","lower","nauling","w","nw","h","h",1,0.657935865674517,NA,NA,NA
"experimental",7,1,"ld","lower","boulder","w","w","g","g",1,0.726007219258463,NA,NA,NA
"experimental",7,2,"ld","lower","binder","w","w","g","g",1,0.59196217317367,NA,NA,NA
"experimental",7,3,"ld","lower","daylight","w","w","g","g",1,1.24736969251535,NA,NA,NA
"experimental",7,4,"ld","lower","contact","w","w","g","g",1,0.564731645325082,NA,NA,NA
"experimental",7,5,"ld","lower","tuckel","nw","nw","h","h",1,0.653462444504839,NA,NA,NA
"experimental",7,6,"ld","lower","noblin","nw","nw","h","h",1,0.554219171754085,NA,NA,NA
"experimental",7,7,"ld","lower","infusion","w","w","g","g",1,0.498458665315411,NA,NA,NA
"experimental",7,8,"ld","lower","neuran","nw","nw","h","h",1,0.574406511164852,NA,NA,NA
"experimental",7,9,"ld","lower","balign","nw","nw","h","h",1,0.565542105294298,NA,NA,NA
"experimental",7,10,"ld","lower","chyme","nw","nw","h","h",1,0.590197899829946,NA,NA,NA
"experimental",7,11,"ld","lower","tapling","nw","nw","h","h",1,0.669662704924121,NA,NA,NA
"experimental",7,12,"ld","lower","sporidic","nw","nw","h","g",0,0.641709781775717,NA,NA,NA
"experimental",7,13,"ld","lower","neliefs","nw","nw","h","h",1,1.00720074075798,NA,NA,NA
"experimental",7,14,"ld","lower","maximized","w","w","g","g",1,0.653904092192533,NA,NA,NA
"experimental",7,15,"ld","lower","bettled","nw","nw","h","h",1,0.890633224102203,NA,NA,NA
"experimental",7,16,"ld","lower","decant","w","w","g","g",1,0.582081050582929,NA,NA,NA
"experimental",7,17,"ld","lower","contusiok","nw","nw","h","h",1,0.62213161161344,NA,NA,NA
"experimental",7,18,"ld","lower","perishing","w","w","g","g",1,0.5793176072184,NA,NA,NA
"experimental",7,19,"ld","lower","wienegs","nw","nw","h","h",1,0.563305725765531,NA,NA,NA
"experimental",7,20,"ld","lower","purport","w","w","g","h",0,0.851997326215496,NA,NA,NA
"experimental",7,21,"ld","lower","holdup","w","w","g","g",1,1.06478080926172,NA,NA,NA
"experimental",7,22,"ld","lower","gigoho","nw","nw","h","h",1,0.70953183947131,NA,NA,NA
"experimental",7,23,"ld","lower","ready","w","w","g","g",1,0.59225219070504,NA,NA,NA
"experimental",7,24,"ld","lower","geborn","nw","nw","h","h",1,0.735645336317248,NA,NA,NA
"experimental",7,25,"ld","lower","forecast","w","w","g","g",1,0.609047715435736,NA,NA,NA
"experimental",7,26,"ld","lower","defeat","w","w","g","g",1,0.511763054295443,NA,NA,NA
"experimental",7,27,"ld","lower","shests","nw","nw","h","h",1,0.705609981305315,NA,NA,NA
"experimental",7,28,"ld","lower","resent","w","w","g","g",1,0.580311149024055,NA,NA,NA
"experimental",7,29,"ld","lower","dominion","w","w","g","g",1,0.556341663119383,NA,NA,NA
"experimental",7,30,"ld","lower","tredits","nw","nw","h","h",1,0.612344181892695,NA,NA,NA
"experimental",8,1,"ld","lower","dialogues","w","w","g","g",1,0.811328325944487,NA,NA,NA
"experimental",8,2,"ld","lower","moral","w","w","g","g",1,0.529240914809634,NA,NA,NA
"experimental",8,3,"ld","lower","angry","w","w","g","g",1,0.4889586045756,NA,NA,NA
"experimental",8,4,"ld","lower","oginous","nw","nw","h","h",1,1.84600826543465,NA,NA,NA
"experimental",8,5,"ld","lower","atble","nw","nw","h","h",1,0.619388363556936,NA,NA,NA
"experimental",8,6,"ld","lower","glating","nw","nw","h","h",1,0.641495910400408,NA,NA,NA
"experimental",8,7,"ld","lower","abstain","w","w","g","h",0,0.462235276339925,NA,NA,NA
"experimental",8,8,"ld","lower","allained","nw","nw","h","h",1,0.762296160159167,NA,NA,NA
"experimental",8,9,"ld","lower","machinery","w","w","g","g",1,0.634347441606224,NA,NA,NA
"experimental",8,10,"ld","lower","favoting","nw","nw","h","h",1,0.623830664131674,NA,NA,NA
"experimental",8,11,"ld","lower","sequence","w","w","g","g",1,1.03623361502832,NA,NA,NA
"experimental",8,12,"ld","lower","gensions","nw","nw","h","h",1,0.648985712599824,NA,NA,NA
"experimental",8,13,"ld","lower","lightels","nw","nw","h","h",1,0.565699694736395,NA,NA,NA
"experimental",8,14,"ld","lower","expensive","w","w","g","g",1,0.661739531744388,NA,NA,NA
"experimental",8,15,"ld","lower","medium","w","w","g","g",1,0.529828233411536,NA,NA,NA
"experimental",8,16,"ld","lower","intended","w","w","g","g",1,0.53925049265672,NA,NA,NA
"experimental",8,17,"ld","lower","chraps","nw","nw","h","h",1,0.579977761299233,NA,NA,NA
"experimental",8,18,"ld","lower","defensa","nw","nw","h","h",1,0.53935643513978,NA,NA,NA
"experimental",8,19,"ld","lower","attended","w","w","g","g",1,0.516090473494842,NA,NA,NA
"experimental",8,20,"ld","lower","ifkling","nw","nw","h","h",1,0.557214695349103,NA,NA,NA
"experimental",8,21,"ld","lower","glaims","nw","nw","h","h",1,0.669322033631033,NA,NA,NA
"experimental",8,22,"ld","lower","fracture","w","w","g","g",1,0.608659701116267,NA,NA,NA
"experimental",8,23,"ld","lower","absent","w","w","g","g",1,0.502704972328502,NA,NA,NA
"experimental",8,24,"ld","lower","cemoir","nw","nw","h","h",1,0.584703458007425,NA,NA,NA
"experimental",8,25,"ld","lower","clattest","nw","nw","h","h",1,0.632135561289033,NA,NA,NA
"experimental",8,26,"ld","lower","ignore","w","w","g","g",1,0.629521430615569,NA,NA,NA
"experimental",8,27,"ld","lower","nomma","nw","nw","h","h",1,0.586910372279817,NA,NA,NA
"experimental",8,28,"ld","lower","corg","nw","nw","h","h",1,0.849704333697446,NA,NA,NA
"experimental",8,29,"ld","lower","elderly","w","w","g","g",1,1.17356122261845,NA,NA,NA
"experimental",8,30,"ld","lower","stifle","w","w","g","g",1,1.50868443206127,NA,NA,NA
"experimental",9,1,"hd","upper","bedding","w","w","g","g",1,0.751182131949463,NA,NA,NA
"experimental",9,2,"hd","upper","epthuse","nw","nw","h","h",1,0.69595464860322,NA,NA,NA
"experimental",9,3,"hd","upper","unspoken","w","w","g","g",1,0.730475674383342,NA,NA,NA
"experimental",9,4,"hd","upper","scrobby","nw","nw","h","h",1,1.14780163986143,NA,NA,NA
"experimental",9,5,"hd","upper","expected","w","w","g","g",1,1.22058379199007,NA,NA,NA
"experimental",9,6,"hd","upper","etuip","nw","nw","h","h",1,0.601990622046287,NA,NA,NA
"experimental",9,7,"hd","upper","massacre","w","w","g","g",1,0.53655591190909,NA,NA,NA
"experimental",9,8,"hd","upper","terrify","w","w","g","g",1,0.52938658570929,NA,NA,NA
"experimental",9,9,"hd","upper","phraining","nw","nw","h","h",1,0.778890063098515,NA,NA,NA
"experimental",9,10,"hd","upper","apology","w","w","g","g",1,1.29825750704913,NA,NA,NA
"experimental",9,11,"hd","upper","combat","w","w","g","g",1,0.581040496792411,NA,NA,NA
"experimental",9,12,"hd","upper","ciping","nw","nw","h","h",1,0.68351004908618,NA,NA,NA
"experimental",9,13,"hd","upper","antwers","nw","nw","h","h",1,0.750909330061404,NA,NA,NA
"experimental",9,14,"hd","upper","release","w","w","g","g",1,0.679646790362312,NA,NA,NA
"experimental",9,15,"hd","upper","plapping","nw","nw","h","h",1,0.842990891207592,NA,NA,NA
"experimental",9,16,"hd","upper","demise","w","w","g","g",1,0.751678406246356,NA,NA,NA
"experimental",9,17,"hd","upper","grenavier","nw","nw","h","h",1,0.848432361788582,NA,NA,NA
"experimental",9,18,"hd","upper","congraks","nw","nw","h","h",1,0.549304102867609,NA,NA,NA
"experimental",9,19,"hd","upper","pakened","nw","nw","h","h",1,0.510555641099927,NA,NA,NA
"experimental",9,20,"hd","upper","deakers","nw","nw","h","h",1,0.504574526014039,NA,NA,NA
"experimental",9,21,"hd","upper","antonym","w","w","g","g",1,1.02639023443044,NA,NA,NA
"experimental",9,22,"hd","upper","undue","w","w","g","g",1,0.86376919101167,NA,NA,NA
"experimental",9,23,"hd","upper","remade","w","w","g","g",1,0.692117544458597,NA,NA,NA
"experimental",9,24,"hd","upper","amidst","w","w","g","g",1,0.582757096010027,NA,NA,NA
"experimental",9,25,"hd","upper","podes","nw","nw","h","g",0,0.542154971932177,NA,NA,NA
"experimental",9,26,"hd","upper","parody","w","w","g","g",1,0.678933333983878,NA,NA,NA
"experimental",9,27,"hd","upper","pegend","nw","nw","h","h",1,0.65826792914595,NA,NA,NA
"experimental",9,28,"hd","upper","otiates","nw","nw","h","h",1,1.2383526632475,NA,NA,NA
"experimental",9,29,"hd","upper","inducing","w","w","g","g",1,0.507061856769724,NA,NA,NA
"experimental",9,30,"hd","upper","egpended","nw","nw","h","h",1,0.628230587724829,NA,NA,NA
"experimental",10,1,"hd","upper","noblest","w","w","g","g",1,0.762591805891134,NA,NA,NA
"experimental",10,2,"hd","upper","flacked","nw","nw","h","h",1,0.650624179266742,NA,NA,NA
"experimental",10,3,"hd","upper","menarthe","nw","nw","h","h",1,0.575360655609984,NA,NA,NA
"experimental",10,4,"hd","upper","retona","nw","nw","h","h",1,0.53475720724964,NA,NA,NA
"experimental",10,5,"hd","upper","disuse","w","w","g","g",1,0.863344427882112,NA,NA,NA
"experimental",10,6,"hd","upper","deeper","w","w","g","g",1,0.595253011430032,NA,NA,NA
"experimental",10,7,"hd","upper","odacles","nw","nw","h","h",1,0.578042324617854,NA,NA,NA
"experimental",10,8,"hd","upper","glates","nw","nw","h","h",1,1.21744921889331,NA,NA,NA
"experimental",10,9,"hd","upper","nimp","nw","nw","h","h",1,0.559461338052643,NA,NA,NA
"experimental",10,10,"hd","upper","monopoly","w","w","g","g",1,0.583679457733524,NA,NA,NA
"experimental",10,11,"hd","upper","huests","nw","nw","h","h",1,0.614953346506809,NA,NA,NA
"experimental",10,12,"hd","upper","scatter","w","w","g","g",1,0.797063171121408,NA,NA,NA
"experimental",10,13,"hd","upper","arrow","w","w","g","g",1,0.475732017119299,NA,NA,NA
"experimental",10,14,"hd","upper","triangle","w","w","g","g",1,0.405620939738583,NA,NA,NA
"experimental",10,15,"hd","upper","religious","w","w","g","g",1,0.523719656266621,NA,NA,NA
"experimental",10,16,"hd","upper","sonkers","nw","nw","h","h",1,0.597643007553415,NA,NA,NA
"experimental",10,17,"hd","upper","dreaded","w","w","g","g",1,0.916435514911427,NA,NA,NA
"experimental",10,18,"hd","upper","probable","w","w","g","g",1,0.590449844283285,NA,NA,NA
"experimental",10,19,"hd","upper","thaken","nw","nw","h","h",1,0.629229757731082,NA,NA,NA
"experimental",10,20,"hd","upper","peags","nw","nw","h","h",1,1.0827400459093,NA,NA,NA
"experimental",10,21,"hd","upper","laser","w","w","g","g",1,0.702104278461775,NA,NA,NA
"experimental",10,22,"hd","upper","selongs","nw","nw","h","h",1,0.664852254209109,NA,NA,NA
"experimental",10,23,"hd","upper","standard","w","w","g","g",1,0.540016589206061,NA,NA,NA
"experimental",10,24,"hd","upper","digar","nw","nw","h","h",1,0.572648859219044,NA,NA,NA
"experimental",10,25,"hd","upper","phambled","nw","nw","h","h",1,0.596027053674334,NA,NA,NA
"experimental",10,26,"hd","upper","practice","w","w","g","g",1,0.546742612365051,NA,NA,NA
"experimental",10,27,"hd","upper","lutton","nw","nw","h","h",1,1.15555729149492,NA,NA,NA
"experimental",10,28,"hd","upper","hostade","nw","nw","h","g",0,0.87562283014995,NA,NA,NA
"experimental",10,29,"hd","upper","axis","w","w","g","g",1,0.590951746780775,NA,NA,NA
"experimental",10,30,"hd","upper","octopus","target","target","q","g",0,0.517658422177192,NA,NA,NA
"experimental",11,1,"hd","upper","warmer","w","w","g","g",1,0.735173561202828,NA,NA,NA
"experimental",11,2,"hd","upper","stelled","nw","nw","h","h",1,0.72042769237305,NA,NA,NA
"experimental",11,3,"hd","upper","mixture","w","w","g","g",1,0.505609451603959,NA,NA,NA
"experimental",11,4,"hd","upper","dazid","nw","nw","h","h",1,0.627449261926813,NA,NA,NA
"experimental",11,5,"hd","upper","edasion","nw","nw","h","h",1,1.15267135214526,NA,NA,NA
"experimental",11,6,"hd","upper","orange","w","w","g","g",1,0.616476931798388,NA,NA,NA
"experimental",11,7,"hd","upper","snorls","nw","nw","h","h",1,0.565787428349722,NA,NA,NA
"experimental",11,8,"hd","upper","elbalm","nw","nw","h","h",1,0.573904608667362,NA,NA,NA
"experimental",11,9,"hd","upper","gerby","nw","nw","h","h",1,0.565265661629383,NA,NA,NA
"experimental",11,10,"hd","upper","sarlock","nw","nw","h","h",1,0.533322679882986,NA,NA,NA
"experimental",11,11,"hd","upper","sullen","w","w","g","h",0,0.54267607651127,NA,NA,NA
"experimental",11,12,"hd","upper","peanimate","nw","nw","h","h",1,1.41557324244059,NA,NA,NA
"experimental",11,13,"hd","upper","uncle","w","w","g","g",1,0.581601991929347,NA,NA,NA
"experimental",11,14,"hd","upper","chonemic","nw","nw","h","h",1,0.957018105837051,NA,NA,NA
"experimental",11,15,"hd","upper","tinker","w","w","g","g",1,0.861102420167299,NA,NA,NA
"experimental",11,16,"hd","upper","slears","nw","nw","h","h",1,0.992327409883728,NA,NA,NA
"experimental",11,17,"hd","upper","hangar","w","w","g","g",1,0.86295641354809,NA,NA,NA
"experimental",11,18,"hd","upper","retain","w","w","g","g",1,0.530757216532947,NA,NA,NA
"experimental",11,19,"hd","upper","reconcile","w","w","g","g",1,0.836191039386904,NA,NA,NA
"experimental",11,20,"hd","upper","calcify","w","w","g","g",1,0.760678550926968,NA,NA,NA
"experimental",11,21,"hd","upper","carbled","nw","nw","h","h",1,0.688799889496295,NA,NA,NA
"experimental",11,22,"hd","upper","gremieres","nw","nw","h","h",1,0.731445048077148,NA,NA,NA
"experimental",11,23,"hd","upper","felevance","nw","nw","h","h",1,0.596872607100522,NA,NA,NA
"experimental",11,24,"hd","upper","confined","w","w","g","g",1,0.77868844132172,NA,NA,NA
"experimental",11,25,"hd","upper","ladybug","target","target","q","g",0,0.530027868779143,NA,NA,NA
"experimental",11,26,"hd","upper","revising","aftertar1","w","g","g",1,0.628121996676782,NA,NA,NA
"experimental",11,27,"hd","upper","unburnid","aftertar2","nw","h","h",1,1.35348929429892,NA,NA,NA
"experimental",11,28,"hd","upper","cervical","aftertar3","w","g","g",1,0.825559711607639,NA,NA,NA
"experimental",11,29,"hd","upper","removable","w","w","g","g",1,0.48696787917288,NA,NA,NA
"experimental",11,30,"hd","upper","acoustic","w","w","g","g",1,0.457634062040597,NA,NA,NA
"experimental",12,1,"hd","upper","hinsome","nw","nw","h","h",1,0.701763938253862,NA,NA,NA
"experimental",12,2,"hd","upper","legalosm","nw","nw","h","h",1,0.528412245970685,NA,NA,NA
"experimental",12,3,"hd","upper","inversion","w","w","g","h",0,0.89785022441356,NA,NA,NA
"experimental",12,4,"hd","upper","trocess","nw","nw","h","h",1,0.660590055864304,NA,NA,NA
"experimental",12,5,"hd","upper","undimmec","nw","nw","h","h",1,0.608707706298446,NA,NA,NA
"experimental",12,6,"hd","upper","seldom","w","w","g","g",1,0.590753766780836,NA,NA,NA
"experimental",12,7,"hd","upper","index","w","w","g","g",1,0.4934770513064,NA,NA,NA
"experimental",12,8,"hd","upper","extruded","w","w","g","g",1,0.567353721678955,NA,NA,NA
"experimental",12,9,"hd","upper","ringlat","nw","nw","h","h",1,1.13535935783875,NA,NA,NA
"experimental",12,10,"hd","upper","rejoiced","w","w","g","g",1,0.536606565670809,NA,NA,NA
"experimental",12,11,"hd","upper","previous","w","w","g","g",1,0.545230614530738,NA,NA,NA
"experimental",12,12,"hd","upper","rangel","nw","nw","h","h",1,0.681975538478582,NA,NA,NA
"experimental",12,13,"hd","upper","rabbit","target","target","q","g",0,0.525372358955792,1,1,NA
"experimental",12,14,"hd","upper","ounwit","aftertar1","nw","h","h",1,0.702914407360367,NA,NA,NA
"experimental",12,15,"hd","upper","other","aftertar2","w","g","g",1,0.824928360641934,NA,NA,NA
"experimental",12,16,"hd","upper","handed","aftertar3","w","g","g",1,0.51825997683045,NA,NA,NA
"experimental",12,17,"hd","upper","arranged","w","w","g","g",1,0.63148037326755,NA,NA,NA
"experimental",12,18,"hd","upper","hanling","w","nw","h","h",1,0.684820094058523,NA,NA,NA
"experimental",12,19,"hd","upper","glapula","nw","nw","h","h",1,1.24824702867772,NA,NA,NA
"experimental",12,20,"hd","upper","gairs","nw","nw","h","h",1,0.901032802721602,NA,NA,NA
"experimental",12,21,"hd","upper","earmaff","nw","nw","h","h",1,0.543632207394694,NA,NA,NA
"experimental",12,22,"hd","upper","ofsters","nw","nw","h","h",1,0.512378513871226,NA,NA,NA
"experimental",12,23,"hd","upper","mining","nw","w","g","g",1,1.65056127592106,NA,NA,NA
"experimental",12,24,"hd","upper","brother","w","w","g","g",1,0.526887005325989,NA,NA,NA
"experimental",12,25,"hd","upper","digest","w","w","g","g",1,0.527528288410394,NA,NA,NA
"experimental",12,26,"hd","upper","disperse","w","w","g","g",1,0.544907821051311,NA,NA,NA
"experimental",12,27,"hd","upper","beartiset","w","nw","h","h",1,0.713509648499894,NA,NA,NA
"experimental",12,28,"hd","upper","endgume","nw","nw","h","h",1,1.17159367213026,NA,NA,NA
"experimental",12,29,"hd","upper","tipoff","nw","w","g","g",1,0.819106159280636,NA,NA,NA
"experimental",12,30,"hd","upper","marinate","w","w","g","g",1,0.737041790605872,NA,NA,NA
"experimental",13,1,"ld","lower","ensues","w","w","g","g",1,1.51377596140082,NA,NA,NA
"experimental",13,2,"ld","lower","regiment","w","w","g","g",1,0.899839294463163,NA,NA,NA
"experimental",13,3,"ld","lower","fuintets","nw","nw","h","h",1,0.694554883608362,NA,NA,NA
"experimental",13,4,"ld","lower","anterior","w","w","g","g",1,0.585274885263061,NA,NA,NA
"experimental",13,5,"ld","lower","graiking","nw","nw","h","h",1,1.05650041130139,NA,NA,NA
"experimental",13,6,"ld","lower","reforest","w","w","g","g",1,0.612556729000062,NA,NA,NA
"experimental",13,7,"ld","lower","esdings","nw","nw","h","h",1,0.97863335123111,NA,NA,NA
"experimental",13,8,"ld","lower","goltish","nw","nw","h","h",1,0.570026120723924,NA,NA,NA
"experimental",13,9,"ld","lower","temelity","nw","nw","h","h",1,0.560502553984406,NA,NA,NA
"experimental",13,10,"ld","lower","except","w","w","g","g",1,0.600680577073945,NA,NA,NA
"experimental",13,11,"ld","lower","rascaps","nw","nw","h","h",1,0.583254363533342,NA,NA,NA
"experimental",13,12,"ld","lower","design","w","w","g","g",1,0.550661490866332,NA,NA,NA
"experimental",13,13,"ld","lower","frader","nw","nw","h","h",1,1.10269994004921,NA,NA,NA
"experimental",13,14,"ld","lower","gestalion","nw","nw","h","h",1,0.91264840234362,NA,NA,NA
"experimental",13,15,"ld","lower","staircase","w","w","g","g",1,0.602736854387331,NA,NA,NA
"experimental",13,16,"ld","lower","envelop","w","w","g","g",1,0.521517045926885,NA,NA,NA
"experimental",13,17,"ld","lower","trises","nw","nw","h","h",1,1.06606138897769,NA,NA,NA
"experimental",13,18,"ld","lower","slutches","nw","nw","h","h",1,0.782070654968265,NA,NA,NA
"experimental",13,19,"ld","lower","mystery","w","w","g","g",1,0.573390456585912,NA,NA,NA
"experimental",13,20,"ld","lower","brank","nw","nw","h","h",1,0.732892818268738,NA,NA,NA
"experimental",13,21,"ld","lower","horks","nw","nw","h","h",1,0.702376418208587,NA,NA,NA
"experimental",13,22,"ld","lower","minimum","w","w","g","g",1,0.552288701146608,NA,NA,NA
"experimental",13,23,"ld","lower","brouhuha","nw","nw","h","h",1,0.617255940087489,NA,NA,NA
"experimental",13,24,"ld","lower","maiden","w","w","g","g",1,0.623205934578436,NA,NA,NA
"experimental",13,25,"ld","lower","cheathe","nw","nw","h","h",1,0.708613119524671,NA,NA,NA
"experimental",13,26,"ld","lower","violate","w","w","g","g",1,0.614533218365978,NA,NA,NA
"experimental",13,27,"ld","lower","primal","w","w","g","g",1,0.555794735075324,NA,NA,NA
"experimental",13,28,"ld","lower","whirlpool","w","w","g","g",1,0.587836375751067,NA,NA,NA
"experimental",13,29,"ld","lower","forgive","w","w","g","g",1,0.522585740676732,NA,NA,NA
"experimental",13,30,"ld","lower","rarren","nw","nw","h","h",1,0.619963432574878,NA,NA,NA
"experimental",14,1,"ld","lower","mullet","w","w","g","g",1,0.674306958346278,NA,NA,NA
"experimental",14,2,"ld","lower","railway","w","w","g","g",1,0.588792506634491,NA,NA,NA
"experimental",14,3,"ld","lower","miability","nw","nw","h","h",1,0.803509108838625,NA,NA,NA
"experimental",14,4,"ld","lower","farochial","nw","nw","h","h",1,0.585535106467432,NA,NA,NA
"experimental",14,5,"ld","lower","capobly","nw","nw","h","h",1,0.624218016324448,NA,NA,NA
"experimental",14,6,"ld","lower","fission","w","w","g","h",0,0.501612440508325,NA,NA,NA
"experimental",14,7,"ld","lower","nameplate","w","w","g","g",1,0.831676234432962,NA,NA,NA
"experimental",14,8,"ld","lower","sludding","nw","nw","h","h",1,0.58902855971246,NA,NA,NA
"experimental",14,9,"ld","lower","haurded","nw","nw","h","h",1,0.675781214158633,NA,NA,NA
"experimental",14,10,"ld","lower","trembla","nw","nw","h","h",1,0.59082031188882,NA,NA,NA
"experimental",14,11,"ld","lower","clypaper","nw","nw","h","h",1,0.948774456686806,NA,NA,NA
"experimental",14,12,"ld","lower","terming","w","w","g","h",0,0.661750788145582,NA,NA,NA
"experimental",14,13,"ld","lower","protest","w","w","g","g",1,0.649825306754792,NA,NA,NA
"experimental",14,14,"ld","lower","accessory","w","w","g","g",1,0.670538385718828,NA,NA,NA
"experimental",14,15,"ld","lower","whirling","w","w","g","g",1,0.586009530132287,NA,NA,NA
"experimental",14,16,"ld","lower","crazy","w","w","g","g",1,0.552757496625418,NA,NA,NA
"experimental",14,17,"ld","lower","inverted","w","w","g","g",1,0.504848321099416,NA,NA,NA
"experimental",14,18,"ld","lower","impirt","nw","nw","h","g",0,0.434898143867031,NA,NA,NA
"experimental",14,19,"ld","lower","slooch","nw","nw","h","h",1,0.576309171883622,NA,NA,NA
"experimental",14,20,"ld","lower","seeming","w","w","g","h",0,0.550903834286146,NA,NA,NA
"experimental",14,21,"ld","lower","decantel","nw","nw","h","h",1,0.694932303696987,NA,NA,NA
"experimental",14,22,"ld","lower","moozy","nw","nw","h","h",1,0.553510019279202,NA,NA,NA
"experimental",14,23,"ld","lower","shivering","w","w","g","g",1,0.561623557834537,NA,NA,NA
"experimental",14,24,"ld","lower","fragment","w","w","g","g",1,0.63380713496008,NA,NA,NA
"experimental",14,25,"ld","lower","threaded","w","w","g","g",1,0.622414676676271,NA,NA,NA
"experimental",14,26,"ld","lower","itfidels","nw","nw","h","h",1,0.61183764442103,NA,NA,NA
"experimental",14,27,"ld","lower","ecistle","nw","nw","h","h",1,0.585912857626681,NA,NA,NA
"experimental",14,28,"ld","lower","handbook","w","w","g","g",1,0.584578644513385,NA,NA,NA
"experimental",14,29,"ld","lower","thacked","nw","nw","h","g",0,1.79849372566969,NA,NA,NA
"experimental",14,30,"ld","lower","omners","nw","nw","h","h",1,0.917183402591036,NA,NA,NA
"experimental",15,1,"hd","upper","foster","w","w","g","g",1,0.726829266684945,NA,NA,NA
"experimental",15,2,"hd","upper","painter","w","w","g","g",1,0.552131773845758,NA,NA,NA
"experimental",15,3,"hd","upper","ebciting","nw","nw","h","h",1,0.584261479220004,NA,NA,NA
"experimental",15,4,"hd","upper","passet","nw","nw","h","h",1,0.622734159478568,NA,NA,NA
"experimental",15,5,"hd","upper","greft","nw","nw","h","h",1,0.604118079456384,NA,NA,NA
"experimental",15,6,"hd","upper","acting","w","w","g","g",1,0.546174164745025,NA,NA,NA
"experimental",15,7,"hd","upper","cegalia","nw","nw","h","h",1,0.530943278004997,NA,NA,NA
"experimental",15,8,"hd","upper","fullity","nw","nw","h","g",0,0.7563501385157,NA,NA,NA
"experimental",15,9,"hd","upper","swatches","w","w","g","g",1,0.524453970094328,NA,NA,NA
"experimental",15,10,"hd","upper","gelfry","nw","nw","h","h",1,0.557875842641806,NA,NA,NA
"experimental",15,11,"hd","upper","jungle","w","w","g","g",1,0.73395886446815,NA,NA,NA
"experimental",15,12,"hd","upper","huntry","nw","nw","h","h",1,0.814704580319813,NA,NA,NA
"experimental",15,13,"hd","upper","begut","nw","nw","h","h",1,0.683885813821689,NA,NA,NA
"experimental",15,14,"hd","upper","bluads","nw","nw","h","h",1,0.590593528773752,NA,NA,NA
"experimental",15,15,"hd","upper","antique","w","w","g","g",1,0.565236527443631,NA,NA,NA
"experimental",15,16,"hd","upper","observer","w","w","g","g",1,0.573320269686519,NA,NA,NA
"experimental",15,17,"hd","upper","itself","w","w","g","g",1,0.620677882165182,NA,NA,NA
"experimental",15,18,"hd","upper","welayed","nw","nw","h","h",1,0.626088232151233,NA,NA,NA
"experimental",15,19,"hd","upper","organize","w","w","g","g",1,0.559523910327698,NA,NA,NA
"experimental",15,20,"hd","upper","loached","nw","nw","h","h",1,0.887552284373669,NA,NA,NA
"experimental",15,21,"hd","upper","tracing","w","w","g","g",1,0.55432147247484,NA,NA,NA
"experimental",15,22,"hd","upper","derisury","nw","nw","h","h",1,0.60236969748803,NA,NA,NA
"experimental",15,23,"hd","upper","walnut","w","w","g","g",1,0.712203245304408,NA,NA,NA
"experimental",15,24,"hd","upper","bullet","w","w","g","g",1,0.514191123496857,NA,NA,NA
"experimental",15,25,"hd","upper","scrib","nw","nw","h","g",0,0.885293061015545,NA,NA,NA
"experimental",15,26,"hd","upper","potter","w","w","g","g",1,0.60706427358673,NA,NA,NA
"experimental",15,27,"hd","upper","jaguar","target","target","q","g",0,0.549107447150163,NA,NA,NA
"experimental",15,28,"hd","upper","fassed","aftertar1","nw","h","h",1,0.613834329080419,NA,NA,NA
"experimental",15,29,"hd","upper","kraums","aftertar2","nw","h","h",1,1.22795043607766,NA,NA,NA
"experimental",15,30,"hd","upper","sonnet","aftertar3","w","g","g",1,0.625292670345516,NA,NA,NA
"experimental",16,1,"ld","lower","spigat","nw","nw","h","g",0,1.15065049934492,NA,NA,NA
"experimental",16,2,"ld","lower","cassette","w","w","g","g",1,0.622742436229601,NA,NA,NA
"experimental",16,3,"ld","lower","entitle","w","w","g","g",1,0.564277748009772,NA,NA,NA
"experimental",16,4,"ld","lower","sength","nw","nw","h","h",1,0.708285359985894,NA,NA,NA
"experimental",16,5,"ld","lower","buttress","w","w","g","g",1,0.654345408838708,NA,NA,NA
"experimental",16,6,"ld","lower","plartly","nw","nw","h","h",1,0.602414060893352,NA,NA,NA
"experimental",16,7,"ld","lower","havel","nw","nw","h","h",1,0.631542614471982,NA,NA,NA
"experimental",16,8,"ld","lower","disease","w","w","g","g",1,0.572906100802356,NA,NA,NA
"experimental",16,9,"ld","lower","elvisages","nw","nw","h","h",1,0.644350066999323,NA,NA,NA
"experimental",16,10,"ld","lower","frogmy","nw","nw","h","h",1,0.529025056996034,NA,NA,NA
"experimental",16,11,"ld","lower","image","w","w","g","g",1,0.658443396372604,NA,NA,NA
"experimental",16,12,"ld","lower","outflow","w","w","g","g",1,0.502561949979281,NA,NA,NA
"experimental",16,13,"ld","lower","dorth","nw","nw","h","h",1,0.960599954851204,NA,NA,NA
"experimental",16,14,"ld","lower","brials","nw","nw","h","h",1,0.648711586443824,NA,NA,NA
"experimental",16,15,"ld","lower","dredigest","nw","nw","h","h",1,1.21343830284604,NA,NA,NA
"experimental",16,16,"ld","lower","sazer","nw","nw","h","h",1,0.650618551066145,NA,NA,NA
"experimental",16,17,"ld","lower","pillage","w","w","g","g",1,0.918592106492724,NA,NA,NA
"experimental",16,18,"ld","lower","heaviest","w","w","g","g",1,0.680487046643975,NA,NA,NA
"experimental",16,19,"ld","lower","aefated","nw","nw","h","h",1,0.52395438507665,NA,NA,NA
"experimental",16,20,"ld","lower","subpoena","w","w","g","h",0,0.605301986666746,NA,NA,NA
"experimental",16,21,"ld","lower","graveyard","w","w","g","g",1,0.627363514737226,NA,NA,NA
"experimental",16,22,"ld","lower","shazer","nw","nw","h","h",1,0.800689052470261,NA,NA,NA
"experimental",16,23,"ld","lower","aicline","nw","nw","h","h",1,0.638860922292224,NA,NA,NA
"experimental",16,24,"ld","lower","befriend","w","w","g","g",1,0.730688552561332,NA,NA,NA
"experimental",16,25,"ld","lower","ergonomic","w","w","g","g",1,0.923630333520123,NA,NA,NA
"experimental",16,26,"ld","lower","godomy","nw","nw","h","h",1,1.34946414222941,NA,NA,NA
"experimental",16,27,"ld","lower","budget","w","w","g","g",1,0.822215902109747,NA,NA,NA
"experimental",16,28,"ld","lower","coyote","target","target","q","g",0,0.595657579280669,1,1,NA
"experimental",16,29,"ld","lower","culer","aftertar1","nw","h","h",1,0.84240390364721,NA,NA,NA
"experimental",16,30,"ld","lower","unbridled","aftertar2","w","g","g",1,1.51924226224946,NA,NA,NA
"experimental",17,1,"ld","lower","hustle","w","w","g","g",1,0.599968444978003,NA,NA,NA
"experimental",17,2,"ld","lower","exclusion","w","w","g","g",1,0.534728735219687,NA,NA,NA
"experimental",17,3,"ld","lower","arrival","w","w","g","g",1,0.503373072075192,NA,NA,NA
"experimental",17,4,"ld","lower","divider","w","w","g","g",1,0.537512373848585,NA,NA,NA
"experimental",17,5,"ld","lower","company","w","w","g","g",1,1.46626307697443,NA,NA,NA
"experimental",17,6,"ld","lower","poughest","nw","nw","h","h",1,0.574320432904642,NA,NA,NA
"experimental",17,7,"ld","lower","fudden","nw","nw","h","h",1,0.5976903506089,NA,NA,NA
"experimental",17,8,"ld","lower","twarfs","nw","nw","h","h",1,0.499626019023708,NA,NA,NA
"experimental",17,9,"ld","lower","bother","w","w","g","g",1,0.63817858650873,NA,NA,NA
"experimental",17,10,"ld","lower","eggays","nw","nw","h","h",1,0.626937096269103,NA,NA,NA
"experimental",17,11,"ld","lower","flougy","nw","nw","h","h",1,0.552318497459055,NA,NA,NA
"experimental",17,12,"ld","lower","forgery","w","w","g","h",0,0.536442023745622,NA,NA,NA
"experimental",17,13,"ld","lower","butled","nw","nw","h","g",0,0.585095445174375,NA,NA,NA
"experimental",17,14,"ld","lower","latpin","nw","nw","h","h",1,0.671727258973988,NA,NA,NA
"experimental",17,15,"ld","lower","profats","nw","nw","h","h",1,0.643301236457773,NA,NA,NA
"experimental",17,16,"ld","lower","susher","nw","nw","h","h",1,1.23188189526263,NA,NA,NA
"experimental",17,17,"ld","lower","giving","w","w","g","g",1,0.514080214954447,NA,NA,NA
"experimental",17,18,"ld","lower","fallacy","w","w","g","g",1,0.598051879307604,NA,NA,NA
"experimental",17,19,"ld","lower","expired","w","w","g","g",1,0.516794328839751,NA,NA,NA
"experimental",17,20,"ld","lower","reloant","nw","nw","h","h",1,0.679220371894189,NA,NA,NA
"experimental",17,21,"ld","lower","booster","w","w","g","g",1,0.56265153097047,NA,NA,NA
"experimental",17,22,"ld","lower","exploit","w","w","g","g",1,0.554662474823999,NA,NA,NA
"experimental",17,23,"ld","lower","pleamed","nw","nw","h","h",1,0.618845739416429,NA,NA,NA
"experimental",17,24,"ld","lower","quittint","nw","nw","h","h",1,0.728234990965575,NA,NA,NA
"experimental",17,25,"ld","lower","regional","w","w","g","g",1,0.705638784420444,NA,NA,NA
"experimental",17,26,"ld","lower","soluced","nw","nw","h","h",1,0.650890028671711,NA,NA,NA
"experimental",17,27,"ld","lower","submit","w","w","g","g",1,0.982952493679477,NA,NA,NA
"experimental",17,28,"ld","lower","downtrund","nw","nw","h","h",1,0.662238785676891,NA,NA,NA
"experimental",17,29,"ld","lower","caution","w","w","g","g",1,0.578252885301481,NA,NA,NA
"experimental",17,30,"ld","lower","pamine","nw","nw","h","h",1,0.68170935800299,NA,NA,NA
"experimental",18,1,"ld","lower","crundle","nw","nw","h","h",1,0.757184435526142,NA,NA,NA
"experimental",18,2,"ld","lower","neally","nw","nw","h","h",1,1.04518542344158,NA,NA,NA
"experimental",18,3,"ld","lower","hindsight","w","w","g","g",1,0.63407199116773,NA,NA,NA
"experimental",18,4,"ld","lower","student","w","w","g","g",1,0.478653049911372,NA,NA,NA
"experimental",18,5,"ld","lower","spaceship","w","w","g","g",1,0.474064747351804,NA,NA,NA
"experimental",18,6,"ld","lower","lentils","w","w","g","g",1,0.629472432221519,NA,NA,NA
"experimental",18,7,"ld","lower","worps","nw","nw","h","h",1,0.578821995062754,NA,NA,NA
"experimental",18,8,"ld","lower","inforl","nw","nw","h","h",1,0.490227596834302,NA,NA,NA
"experimental",18,9,"ld","lower","kilotin","nw","nw","h","h",1,0.484944708907278,NA,NA,NA
"experimental",18,10,"ld","lower","stretches","w","w","g","g",1,0.526728091615951,NA,NA,NA
"experimental",18,11,"ld","lower","vintnel","nw","nw","h","h",1,0.608118070187629,NA,NA,NA
"experimental",18,12,"ld","lower","filter","w","w","g","g",1,0.534786672506016,NA,NA,NA
"experimental",18,13,"ld","lower","compose","w","w","g","g",1,0.520200048471452,NA,NA,NA
"experimental",18,14,"ld","lower","ordinary","w","w","g","g",1,0.545671931191464,NA,NA,NA
"experimental",18,15,"ld","lower","embrace","w","w","g","g",1,0.498341135389637,NA,NA,NA
"experimental",18,16,"ld","lower","explosion","w","w","g","g",1,0.501179069542559,NA,NA,NA
"experimental",18,17,"ld","lower","flieves","nw","nw","h","h",1,0.623262878652895,NA,NA,NA
"experimental",18,18,"ld","lower","slending","nw","nw","h","h",1,0.97264197297045,NA,NA,NA
"experimental",18,19,"ld","lower","resonant","w","w","g","g",1,0.916122653521597,NA,NA,NA
"experimental",18,20,"ld","lower","ebuating","nw","nw","h","h",1,0.661239284614567,NA,NA,NA
"experimental",18,21,"ld","lower","runabouk","nw","nw","h","h",1,0.633321454923134,NA,NA,NA
"experimental",18,22,"ld","lower","gackpedal","nw","nw","h","h",1,0.726625989555032,NA,NA,NA
"experimental",18,23,"ld","lower","bypassed","w","w","g","g",1,0.680005008383887,NA,NA,NA
"experimental",18,24,"ld","lower","dumult","nw","nw","h","h",1,0.611445988310152,NA,NA,NA
"experimental",18,25,"ld","lower","fictional","w","w","g","g",1,0.673581252354779,NA,NA,NA
"experimental",18,26,"ld","lower","gunrunker","nw","nw","h","h",1,0.524964149328298,NA,NA,NA
"experimental",18,27,"ld","lower","eaglot","nw","nw","h","h",1,0.702302258476266,NA,NA,NA
"experimental",18,28,"ld","lower","prohibit","w","w","g","g",1,0.65556937555084,NA,NA,NA
"experimental",18,29,"ld","lower","valif","nw","nw","h","h",1,0.595650295741507,NA,NA,NA
"experimental",18,30,"ld","lower","unmarked","w","w","g","g",1,0.578205873331171,NA,NA,NA
"experimental",19,1,"hd","upper","venturous","w","w","g","g",1,0.706548896530876,NA,NA,NA
"experimental",19,2,"hd","upper","crudios","nw","nw","h","h",1,1.14066608282155,NA,NA,NA
"experimental",19,3,"hd","upper","sprea","nw","nw","h","h",1,0.621430404833518,NA,NA,NA
"experimental",19,4,"hd","upper","manage","w","w","g","g",1,0.561814916451112,NA,NA,NA
"experimental",19,5,"hd","upper","scrooner","nw","nw","h","h",1,0.561853320585215,NA,NA,NA
"experimental",19,6,"hd","upper","alomalous","nw","nw","h","h",1,0.617050345463213,NA,NA,NA
"experimental",19,7,"hd","upper","agony","w","w","g","g",1,0.592026069731219,NA,NA,NA
"experimental",19,8,"hd","upper","potent","w","w","g","g",1,0.558765428402694,NA,NA,NA
"experimental",19,9,"hd","upper","afternoon","w","w","g","g",1,0.662836367482669,NA,NA,NA
"experimental",19,10,"hd","upper","argue","w","w","g","g",1,0.522939654780203,NA,NA,NA
"experimental",19,11,"hd","upper","fidelity","w","w","g","g",1,0.700501236337004,NA,NA,NA
"experimental",19,12,"hd","upper","abhorrent","w","w","g","g",1,0.75845011707861,NA,NA,NA
"experimental",19,13,"hd","upper","wrecber","nw","nw","h","h",1,1.12564674997702,NA,NA,NA
"experimental",19,14,"hd","upper","newstrint","nw","nw","h","h",1,0.758974532363936,NA,NA,NA
"experimental",19,15,"hd","upper","lindo","nw","nw","h","h",1,0.671018106513657,NA,NA,NA
"experimental",19,16,"hd","upper","cutout","w","w","g","g",1,0.610503431322286,NA,NA,NA
"experimental",19,17,"hd","upper","vented","w","w","g","g",1,0.560523080348503,NA,NA,NA
"experimental",19,18,"hd","upper","guitar","w","w","g","g",1,0.512560271439725,NA,NA,NA
"experimental",19,19,"hd","upper","hutting","nw","nw","h","g",0,0.490611307250219,NA,NA,NA
"experimental",19,20,"hd","upper","tritical","nw","nw","h","h",1,0.565345449562301,NA,NA,NA
"experimental",19,21,"hd","upper","thrapping","nw","nw","h","h",1,0.845409028304857,NA,NA,NA
"experimental",19,22,"hd","upper","eightiech","nw","nw","h","h",1,1.1932810908329,NA,NA,NA
"experimental",19,23,"hd","upper","bloodless","w","w","g","g",1,0.623935944473487,NA,NA,NA
"experimental",19,24,"hd","upper","ludictous","nw","nw","h","h",1,0.805530292709591,NA,NA,NA
"experimental",19,25,"hd","upper","minister","w","w","g","g",1,0.723396068220609,NA,NA,NA
"experimental",19,26,"hd","upper","lifetime","w","w","g","g",1,0.468889457246405,NA,NA,NA
"experimental",19,27,"hd","upper","ronic","nw","nw","h","h",1,0.544250977676711,NA,NA,NA
"experimental",19,28,"hd","upper","shimble","nw","nw","h","h",1,0.584995130891912,NA,NA,NA
"experimental",19,29,"hd","upper","setwixt","nw","nw","h","h",1,0.559600387568935,NA,NA,NA
"experimental",19,30,"hd","upper","deadly","w","w","g","g",1,0.599723784063826,NA,NA,NA
"experimental",20,1,"hd","upper","system","w","w","g","g",1,0.950392065919004,NA,NA,NA
"experimental",20,2,"hd","upper","halms","nw","nw","h","h",1,1.31915830283833,NA,NA,NA
"experimental",20,3,"hd","upper","leuter","nw","nw","h","h",1,0.632585485756863,NA,NA,NA
"experimental",20,4,"hd","upper","grefab","nw","nw","h","h",1,0.629999827127904,NA,NA,NA
"experimental",20,5,"hd","upper","gonesty","nw","nw","h","h",1,0.603407933784183,NA,NA,NA
"experimental",20,6,"hd","upper","naxis","nw","nw","h","h",1,1.07255599403288,NA,NA,NA
"experimental",20,7,"hd","upper","filny","nw","nw","h","h",1,0.523921609128593,NA,NA,NA
"experimental",20,8,"hd","upper","bulmed","nw","nw","h","h",1,0.573404030466918,NA,NA,NA
"experimental",20,9,"hd","upper","asclibed","nw","nw","h","h",1,0.50074702288839,NA,NA,NA
"experimental",20,10,"hd","upper","triplet","w","w","g","g",1,0.57484815888165,NA,NA,NA
"experimental",20,11,"hd","upper","culinary","w","w","g","g",1,0.654227216771687,NA,NA,NA
"experimental",20,12,"hd","upper","obviously","w","w","g","g",1,0.618305101699661,NA,NA,NA
"experimental",20,13,"hd","upper","planar","w","w","g","h",0,0.85567915844149,NA,NA,NA
"experimental",20,14,"hd","upper","located","w","w","g","g",1,0.627776359353447,NA,NA,NA
"experimental",20,15,"hd","upper","topefuls","nw","nw","h","h",1,0.58437801594846,NA,NA,NA
"experimental",20,16,"hd","upper","leather","w","w","g","g",1,0.854962391356821,NA,NA,NA
"experimental",20,17,"hd","upper","unwose","nw","nw","h","h",1,0.571023966447683,NA,NA,NA
"experimental",20,18,"hd","upper","puggers","nw","nw","h","h",1,0.554389341865317,NA,NA,NA
"experimental",20,19,"hd","upper","widely","w","w","g","g",1,0.690448619337985,NA,NA,NA
"experimental",20,20,"hd","upper","hasks","nw","nw","h","h",1,1.30926857241138,NA,NA,NA
"experimental",20,21,"hd","upper","coverall","w","w","g","h",0,0.655260487008491,NA,NA,NA
"experimental",20,22,"hd","upper","gelented","nw","nw","h","h",1,0.531269713275833,NA,NA,NA
"experimental",20,23,"hd","upper","pariah","w","w","g","h",0,0.476673249839223,NA,NA,NA
"experimental",20,24,"hd","upper","attract","w","w","g","g",1,1.54310944746248,NA,NA,NA
"experimental",20,25,"hd","upper","encrusted","w","w","g","g",1,1.43985691403213,NA,NA,NA
"experimental",20,26,"hd","upper","chicken","target","target","q","g",0,0.900126332373475,1,1,NA
"experimental",20,27,"hd","upper","emergence","aftertar1","w","g","h",0,0.527075715377578,NA,NA,NA
"experimental",20,28,"hd","upper","asthmatic","aftertar2","w","g","g",1,0.648784090823028,NA,NA,NA
"experimental",20,29,"hd","upper","peahem","aftertar3","nw","h","h",1,1.10155046415457,NA,NA,NA
"experimental",20,30,"hd","upper","epic","nw","w","g","g",1,0.727677137590945,NA,NA,NA
"experimental",21,1,"hd","upper","erithets","nw","nw","h","h",1,0.633147311964422,NA,NA,NA
"experimental",21,2,"hd","upper","abraid","nw","nw","h","h",1,0.566593253330211,NA,NA,NA
"experimental",21,3,"hd","upper","hivinity","nw","nw","h","h",1,0.74255079953582,NA,NA,NA
"experimental",21,4,"hd","upper","sefine","nw","nw","h","h",1,0.52726574971166,NA,NA,NA
"experimental",21,5,"hd","upper","gymnasium","w","w","g","g",1,0.552638311331975,NA,NA,NA
"experimental",21,6,"hd","upper","bamps","nw","nw","h","h",1,0.520752604716108,NA,NA,NA
"experimental",21,7,"hd","upper","geadpan","nw","nw","h","h",1,0.465289399362519,NA,NA,NA
"experimental",21,8,"hd","upper","tenpince","nw","nw","h","h",1,0.461218890675809,NA,NA,NA
"experimental",21,9,"hd","upper","roughly","w","w","g","g",1,0.96937728926423,NA,NA,NA
"experimental",21,10,"hd","upper","delegate","w","w","g","g",1,1.23275956249563,NA,NA,NA
"experimental",21,11,"hd","upper","batire","nw","nw","h","h",1,0.630129937737365,NA,NA,NA
"experimental",21,12,"hd","upper","finstrel","nw","nw","h","h",1,0.683565337822074,NA,NA,NA
"experimental",21,13,"hd","upper","noils","nw","nw","h","h",1,0.727021287428215,NA,NA,NA
"experimental",21,14,"hd","upper","mopping","w","w","g","h",0,0.552258242692915,NA,NA,NA
"experimental",21,15,"hd","upper","dealer","w","w","g","g",1,0.663430638582213,NA,NA,NA
"experimental",21,16,"hd","upper","eyesight","w","w","g","g",1,0.491484339494491,NA,NA,NA
"experimental",21,17,"hd","upper","robbery","w","w","g","g",1,0.79809313066653,NA,NA,NA
"experimental",21,18,"hd","upper","pretzel","w","w","g","g",1,0.412803177692695,NA,NA,NA
"experimental",21,19,"hd","upper","monkey","target","target","q","g",0,0.586888190562604,1,1,NA
"experimental",21,20,"hd","upper","publish","aftertar1","w","g","g",1,0.585351362475194,NA,NA,NA
"experimental",21,21,"hd","upper","preclude","aftertar2","w","g","g",1,0.544444322702475,NA,NA,NA
"experimental",21,22,"hd","upper","pived","aftertar3","nw","h","h",1,0.9931756118458,NA,NA,NA
"experimental",21,23,"hd","upper","pester","nw","w","g","h",0,1.24001562911144,NA,NA,NA
"experimental",21,24,"hd","upper","cavern","w","w","g","g",1,0.635874668660108,NA,NA,NA
"experimental",21,25,"hd","upper","measure","w","w","g","g",1,0.56050785111438,NA,NA,NA
"experimental",21,26,"hd","upper","veclors","w","nw","h","h",1,0.888556751509896,NA,NA,NA
"experimental",21,27,"hd","upper","contain","nw","w","g","g",1,1.17129603997455,NA,NA,NA
"experimental",21,28,"hd","upper","crimb","w","nw","h","h",1,0.722753129797638,NA,NA,NA
"experimental",21,29,"hd","upper","slooping","nw","nw","h","h",1,0.596196561658871,NA,NA,NA
"experimental",21,30,"hd","upper","persona","nw","w","g","g",1,0.89891295992129,NA,NA,NA
"experimental",22,1,"hd","upper","brimitar","nw","nw","h","h",1,1.12557921165717,NA,NA,NA
"experimental",22,2,"hd","upper","remover","w","w","g","g",1,0.662986011229805,NA,NA,NA
"experimental",22,3,"hd","upper","blueberry","w","w","g","g",1,0.915061573381536,NA,NA,NA
"experimental",22,4,"hd","upper","outfit","w","w","g","g",1,0.509136342952843,NA,NA,NA
"experimental",22,5,"hd","upper","official","w","w","g","g",1,0.503218462268705,NA,NA,NA
"experimental",22,6,"hd","upper","clarms","nw","nw","h","g",0,0.417285868839826,NA,NA,NA
"experimental",22,7,"hd","upper","cills","nw","nw","h","h",1,0.534559889390948,NA,NA,NA
"experimental",22,8,"hd","upper","withep","nw","nw","h","h",1,0.98261082918907,NA,NA,NA
"experimental",22,9,"hd","upper","fabstand","nw","nw","h","h",1,0.645804789659451,NA,NA,NA
"experimental",22,10,"hd","upper","emotion","w","w","g","g",1,0.554421455686679,NA,NA,NA
"experimental",22,11,"hd","upper","schides","nw","nw","h","h",1,0.618536850874079,NA,NA,NA
"experimental",22,12,"hd","upper","rasuals","nw","nw","h","h",1,0.613648267593817,NA,NA,NA
"experimental",22,13,"hd","upper","usually","w","w","g","g",1,0.541917925642338,NA,NA,NA
"experimental",22,14,"hd","upper","surface","w","w","g","g",1,0.534831698067137,NA,NA,NA
"experimental",22,15,"hd","upper","brongs","nw","nw","h","h",1,0.528213272744324,NA,NA,NA
"experimental",22,16,"hd","upper","module","w","w","g","g",1,0.585332491478766,NA,NA,NA
"experimental",22,17,"hd","upper","hackal","nw","nw","h","h",1,0.663525986805325,NA,NA,NA
"experimental",22,18,"hd","upper","rebool","nw","nw","h","h",1,0.739587720818236,NA,NA,NA
"experimental",22,19,"hd","upper","analysis","w","w","g","g",1,0.532213263475569,NA,NA,NA
"experimental",22,20,"hd","upper","spider","target","target","q","g",0,0.549653050897177,NA,NA,NA
"experimental",22,21,"hd","upper","pepperoni","aftertar1","w","g","g",1,0.494336840740289,NA,NA,NA
"experimental",22,22,"hd","upper","dounger","aftertar2","nw","h","h",1,1.09712438602583,NA,NA,NA
"experimental",22,23,"hd","upper","admire","aftertar3","w","g","g",1,0.6038896409882,NA,NA,NA
"experimental",22,24,"hd","upper","turning","w","w","g","g",1,0.513954739333712,NA,NA,NA
"experimental",22,25,"hd","upper","saucer","w","w","g","g",1,0.499984899171977,NA,NA,NA
"experimental",22,26,"hd","upper","ephically","w","nw","h","g",0,0.870741530423402,NA,NA,NA
"experimental",22,27,"hd","upper","legalize","nw","w","g","g",1,0.473267861263594,NA,NA,NA
"experimental",22,28,"hd","upper","nimono","w","nw","h","h",1,0.652584115130594,NA,NA,NA
"experimental",22,29,"hd","upper","amms","nw","nw","h","h",1,0.576623688626569,NA,NA,NA
"experimental",22,30,"hd","upper","lecked","nw","nw","h","h",1,0.647998130050837,NA,NA,NA
"experimental",23,1,"ld","lower","exit","w","w","g","g",1,1.1809066782007,NA,NA,NA
"experimental",23,2,"ld","lower","omission","w","w","g","g",1,0.59623761435796,NA,NA,NA
"experimental",23,3,"ld","lower","chight","nw","nw","h","h",1,0.634843715917668,NA,NA,NA
"experimental",23,4,"ld","lower","govern","w","w","g","h",0,0.639579013673938,NA,NA,NA
"experimental",23,5,"ld","lower","pocket","w","w","g","g",1,0.548283744370565,NA,NA,NA
"experimental",23,6,"ld","lower","outset","w","w","g","g",1,0.52504426833184,NA,NA,NA
"experimental",23,7,"ld","lower","sequence","w","w","g","g",1,0.612950702590751,NA,NA,NA
"experimental",23,8,"ld","lower","mosary","nw","nw","h","h",1,0.628574569709599,NA,NA,NA
"experimental",23,9,"ld","lower","warden","w","w","g","h",0,0.634059079427971,NA,NA,NA
"experimental",23,10,"ld","lower","chone","nw","nw","h","h",1,0.639407519280212,NA,NA,NA
"experimental",23,11,"ld","lower","cobalt","w","w","g","g",1,0.635213190311333,NA,NA,NA
"experimental",23,12,"ld","lower","maunches","nw","nw","h","h",1,0.719988031094545,NA,NA,NA
"experimental",23,13,"ld","lower","befin","nw","nw","h","h",1,0.593367235313053,NA,NA,NA
"experimental",23,14,"ld","lower","prawls","nw","nw","h","g",0,1.26404073482263,NA,NA,NA
"experimental",23,15,"ld","lower","micron","w","w","g","h",0,0.740258469129913,NA,NA,NA
"experimental",23,16,"ld","lower","poars","nw","nw","h","h",1,1.12498891339055,NA,NA,NA
"experimental",23,17,"ld","lower","erlighten","nw","nw","h","h",1,0.614319015934598,NA,NA,NA
"experimental",23,18,"ld","lower","paying","w","w","g","g",1,0.652402357562096,NA,NA,NA
"experimental",23,19,"ld","lower","drobate","nw","nw","h","h",1,0.552553557339706,NA,NA,NA
"experimental",23,20,"ld","lower","handle","w","w","g","g",1,0.671647139984998,NA,NA,NA
"experimental",23,21,"ld","lower","athcan","nw","nw","h","h",1,0.610914951641462,NA,NA,NA
"experimental",23,22,"ld","lower","affluent","w","w","g","g",1,0.697016721969703,NA,NA,NA
"experimental",23,23,"ld","lower","plashed","nw","nw","h","h",1,0.73981218643894,NA,NA,NA
"experimental",23,24,"ld","lower","wrestle","w","w","g","g",1,0.532584724292974,NA,NA,NA
"experimental",23,25,"ld","lower","describe","w","w","g","g",1,0.541971559025114,NA,NA,NA
"experimental",23,26,"ld","lower","facienda","nw","nw","h","h",1,0.542641314124921,NA,NA,NA
"experimental",23,27,"ld","lower","pammed","nw","nw","h","h",1,1.1194074000814,NA,NA,NA
"experimental",23,28,"ld","lower","frose","nw","nw","h","h",1,0.656858563088463,NA,NA,NA
"experimental",23,29,"ld","lower","oleandur","nw","nw","h","h",1,1.02795718991547,NA,NA,NA
"experimental",23,30,"ld","lower","larger","w","w","g","h",0,0.481254930986324,NA,NA,NA
"experimental",24,1,"ld","lower","skiing","w","w","g","g",1,0.693674236754305,NA,NA,NA
"experimental",24,2,"ld","lower","garment","w","w","g","g",1,0.616269681835547,NA,NA,NA
"experimental",24,3,"ld","lower","enacted","w","w","g","g",1,0.462534563848749,NA,NA,NA
"experimental",24,4,"ld","lower","meteoroid","w","w","g","g",1,1.24161867123621,NA,NA,NA
"experimental",24,5,"ld","lower","castaway","w","w","g","g",1,0.526384440701804,NA,NA,NA
"experimental",24,6,"ld","lower","puyer","nw","nw","h","h",1,0.567705980429309,NA,NA,NA
"experimental",24,7,"ld","lower","sopes","nw","nw","h","h",1,0.519159494680935,NA,NA,NA
"experimental",24,8,"ld","lower","awful","w","w","g","g",1,0.648530159945949,NA,NA,NA
"experimental",24,9,"ld","lower","gallon","w","w","g","g",1,0.621287713569473,NA,NA,NA
"experimental",24,10,"ld","lower","penalize","w","w","g","g",1,0.61870371029363,NA,NA,NA
"experimental",24,11,"ld","lower","serfume","nw","nw","h","h",1,0.640177588677034,NA,NA,NA
"experimental",24,12,"ld","lower","splatter","w","w","g","g",1,0.46086100373941,NA,NA,NA
"experimental",24,13,"ld","lower","catacomb","w","w","g","g",1,0.576046633184887,NA,NA,NA
"experimental",24,14,"ld","lower","addma","nw","nw","h","h",1,0.567357032399741,NA,NA,NA
"experimental",24,15,"ld","lower","infancy","w","w","g","g",1,0.582811391534051,NA,NA,NA
"experimental",24,16,"ld","lower","nopping","nw","nw","h","h",1,0.502105073042912,NA,NA,NA
"experimental",24,17,"ld","lower","duplex","w","w","g","g",1,0.53619769391662,NA,NA,NA
"experimental",24,18,"ld","lower","preight","nw","nw","h","h",1,0.56093195208814,NA,NA,NA
"experimental",24,19,"ld","lower","zears","nw","nw","h","h",1,0.528995922810282,NA,NA,NA
"experimental",24,20,"ld","lower","carony","nw","nw","h","h",1,0.794379184633726,NA,NA,NA
"experimental",24,21,"ld","lower","splinging","nw","nw","h","h",1,0.929169469833141,NA,NA,NA
"experimental",24,22,"ld","lower","reason","w","w","g","g",1,0.529698784957873,NA,NA,NA
"experimental",24,23,"ld","lower","reses","nw","nw","h","h",1,0.626997351049795,NA,NA,NA
"experimental",24,24,"ld","lower","veranpah","nw","nw","h","h",1,0.632339831630816,NA,NA,NA
"experimental",24,25,"ld","lower","professor","w","w","g","g",1,0.565793718691566,NA,NA,NA
"experimental",24,26,"ld","lower","acroad","nw","nw","h","h",1,0.965910321625415,NA,NA,NA
"experimental",24,27,"ld","lower","drauns","nw","nw","h","h",1,0.573871501648682,NA,NA,NA
"experimental",24,28,"ld","lower","function","w","w","g","g",1,0.530943278019549,NA,NA,NA
"experimental",24,29,"ld","lower","ganter","nw","nw","h","h",1,0.894477942885715,NA,NA,NA
"experimental",24,30,"ld","lower","ezulated","nw","nw","h","h",1,0.689479245644179,NA,NA,NA
"experimental",25,1,"hd","upper","bengths","nw","nw","h","h",1,0.843559669898241,NA,NA,NA
"experimental",25,2,"hd","upper","aqueduct","w","w","g","g",1,0.688357248582179,NA,NA,NA
"experimental",25,3,"hd","upper","daining","nw","nw","h","h",1,1.13908257383446,NA,NA,NA
"experimental",25,4,"hd","upper","criminal","w","w","g","g",1,0.491801835858496,NA,NA,NA
"experimental",25,5,"hd","upper","efficient","w","w","g","g",1,0.582586594842724,NA,NA,NA
"experimental",25,6,"hd","upper","dricked","nw","nw","h","h",1,0.597045756832813,NA,NA,NA
"experimental",25,7,"hd","upper","appain","nw","nw","h","h",1,0.523795802437235,NA,NA,NA
"experimental",25,8,"hd","upper","category","w","w","g","g",1,0.501081403825083,NA,NA,NA
"experimental",25,9,"hd","upper","season","w","w","g","g",1,0.543147851611138,NA,NA,NA
"experimental",25,10,"hd","upper","ebince","nw","nw","h","h",1,1.07989615247061,NA,NA,NA
"experimental",25,11,"hd","upper","elephant","target","target","q","g",0,0.635297282147803,NA,NA,NA
"experimental",25,12,"hd","upper","optional","aftertar1","w","g","g",1,1.12810130478465,NA,NA,NA
"experimental",25,13,"hd","upper","corduroy","aftertar2","w","g","g",1,0.705489802814554,NA,NA,NA
"experimental",25,14,"hd","upper","presently","aftertar3","w","g","g",1,0.531522982011666,NA,NA,NA
"experimental",25,15,"hd","upper","latter","w","w","g","g",1,1.14013703256205,NA,NA,NA
"experimental",25,16,"hd","upper","summon","w","w","g","g",1,0.444611082784832,NA,NA,NA
"experimental",25,17,"hd","upper","riosk","w","nw","h","h",1,0.537272678993759,NA,NA,NA
"experimental",25,18,"hd","upper","pender","nw","nw","h","g",0,0.633993196446681,NA,NA,NA
"experimental",25,19,"hd","upper","refebs","nw","nw","h","h",1,0.502811576938257,NA,NA,NA
"experimental",25,20,"hd","upper","posing","nw","w","g","g",1,0.704742908332264,NA,NA,NA
"experimental",25,21,"hd","upper","arpired","w","nw","h","h",1,0.586846806792892,NA,NA,NA
"experimental",25,22,"hd","upper","sooled","nw","nw","h","h",1,0.537583553959848,NA,NA,NA
"experimental",25,23,"hd","upper","houted","nw","nw","h","h",1,0.546407238187385,NA,NA,NA
"experimental",25,24,"hd","upper","egect","nw","nw","h","h",1,0.570258532039588,NA,NA,NA
"experimental",25,25,"hd","upper","pregs","nw","nw","h","h",1,0.881564547889866,NA,NA,NA
"experimental",25,26,"hd","upper","hardest","nw","w","g","g",1,0.86893554222479,NA,NA,NA
"experimental",25,27,"hd","upper","buaint","w","nw","h","h",1,0.680389380926499,NA,NA,NA
"experimental",25,28,"hd","upper","rowel","nw","nw","h","h",1,1.01180029968964,NA,NA,NA
"experimental",25,29,"hd","upper","correct","nw","w","g","g",1,0.473901529723662,NA,NA,NA
"experimental",25,30,"hd","upper","gaining","w","w","g","g",1,0.541239893776947,NA,NA,NA
"experimental",26,1,"ld","lower","presence","w","w","g","g",1,0.669981194485445,NA,NA,NA
"experimental",26,2,"ld","lower","pircus","nw","nw","h","h",1,0.673373671306763,NA,NA,NA
"experimental",26,3,"ld","lower","poyride","nw","nw","h","h",1,0.596790832729312,NA,NA,NA
"experimental",26,4,"ld","lower","imprives","nw","nw","h","g",0,0.675499142307672,NA,NA,NA
"experimental",26,5,"ld","lower","satisfies","w","w","g","g",1,0.57492430502316,NA,NA,NA
"experimental",26,6,"ld","lower","calming","w","w","g","g",1,0.526332131601521,NA,NA,NA
"experimental",26,7,"ld","lower","lovud","nw","nw","h","h",1,0.527734214105294,NA,NA,NA
"experimental",26,8,"ld","lower","overflow","w","w","g","g",1,0.505134365797858,NA,NA,NA
"experimental",26,9,"ld","lower","managed","w","w","g","g",1,0.594369384954916,NA,NA,NA
"experimental",26,10,"ld","lower","childhood","w","w","g","g",1,0.536988289662986,NA,NA,NA
"experimental",26,11,"ld","lower","gumdrep","nw","nw","h","h",1,1.15363807725953,NA,NA,NA
"experimental",26,12,"ld","lower","postal","w","w","g","g",1,0.785762750369031,NA,NA,NA
"experimental",26,13,"ld","lower","pastnoss","nw","nw","h","h",1,0.648412630005623,NA,NA,NA
"experimental",26,14,"ld","lower","atabaster","nw","nw","h","h",1,0.589155690686312,NA,NA,NA
"experimental",26,15,"ld","lower","fetching","w","w","g","g",1,0.851906944037182,NA,NA,NA
"experimental",26,16,"ld","lower","ethical","w","w","g","g",1,0.584722660074476,NA,NA,NA
"experimental",26,17,"ld","lower","splum","nw","nw","h","h",1,1.07121747700148,NA,NA,NA
"experimental",26,18,"ld","lower","sunshine","w","w","g","g",1,0.522549654022441,NA,NA,NA
"experimental",26,19,"ld","lower","nostril","w","w","g","g",1,0.683970567799406,NA,NA,NA
"experimental",26,20,"ld","lower","caterpillar","target","target","q","g",0,0.598693162377458,NA,NA,NA
"experimental",26,21,"ld","lower","charcoal","aftertar1","w","g","g",1,0.549486522562802,NA,NA,NA
"experimental",26,22,"ld","lower","lasprey","aftertar2","nw","h","g",0,0.814194401085842,NA,NA,NA
"experimental",26,23,"ld","lower","etcess","aftertar3","nw","h","h",1,0.732275041198591,NA,NA,NA
"experimental",26,24,"ld","lower","prison","nw","w","g","g",1,0.533859344752273,NA,NA,NA
"experimental",26,25,"ld","lower","lancos","w","nw","h","h",1,0.606408754509175,NA,NA,NA
"experimental",26,26,"ld","lower","migmarole","nw","nw","h","h",1,0.612549776531523,NA,NA,NA
"experimental",26,27,"ld","lower","prominent","nw","w","g","g",1,0.665761373107671,NA,NA,NA
"experimental",26,28,"ld","lower","squadroim","w","nw","h","h",1,0.685609696593019,NA,NA,NA
"experimental",26,29,"ld","lower","bureaug","nw","nw","h","h",1,0.624375274695922,NA,NA,NA
"experimental",26,30,"ld","lower","atch","nw","nw","h","h",1,0.485758479568176,NA,NA,NA
"experimental",27,1,"ld","lower","rudder","w","w","g","g",1,0.721553993367706,NA,NA,NA
"experimental",27,2,"ld","lower","harder","w","w","g","g",1,0.482039567476022,NA,NA,NA
"experimental",27,3,"ld","lower","deficit","w","w","g","g",1,0.573373571998673,NA,NA,NA
"experimental",27,4,"ld","lower","racile","nw","nw","h","h",1,0.644627503876109,NA,NA,NA
"experimental",27,5,"ld","lower","attrove","nw","nw","h","h",1,0.641329713136656,NA,NA,NA
"experimental",27,6,"ld","lower","elormity","nw","nw","h","h",1,0.678163595657679,NA,NA,NA
"experimental",27,7,"ld","lower","airline","w","w","g","g",1,0.665649140297319,NA,NA,NA
"experimental",27,8,"ld","lower","pollute","w","w","g","g",1,0.645618066046154,NA,NA,NA
"experimental",27,9,"ld","lower","gazes","w","w","g","g",1,0.874245246857754,NA,NA,NA
"experimental",27,10,"ld","lower","halter","w","w","g","g",1,0.869751961450675,NA,NA,NA
"experimental",27,11,"ld","lower","alber","nw","nw","h","h",1,0.568275752331829,NA,NA,NA
"experimental",27,12,"ld","lower","trecious","nw","nw","h","h",1,0.688217205868568,NA,NA,NA
"experimental",27,13,"ld","lower","airbis","nw","nw","h","h",1,0.634963894408429,NA,NA,NA
"experimental",27,14,"ld","lower","opert","nw","nw","h","h",1,0.559736457435065,NA,NA,NA
"experimental",27,15,"ld","lower","fuack","nw","nw","h","h",1,0.543808336762595,NA,NA,NA
"experimental",27,16,"ld","lower","ascending","w","w","g","g",1,0.712572719683521,NA,NA,NA
"experimental",27,17,"ld","lower","vibrate","w","w","g","g",1,0.506645370405749,NA,NA,NA
"experimental",27,18,"ld","lower","fisco","nw","nw","h","h",1,0.876703443442238,NA,NA,NA
"experimental",27,19,"ld","lower","courier","w","w","g","g",1,0.696170175346197,NA,NA,NA
"experimental",27,20,"ld","lower","implode","w","w","g","g",1,0.561962242703885,NA,NA,NA
"experimental",27,21,"ld","lower","unlined","w","w","g","g",1,1.27399403075106,NA,NA,NA
"experimental",27,22,"ld","lower","grolific","nw","nw","h","h",1,0.845369299859158,NA,NA,NA
"experimental",27,23,"ld","lower","pigned","nw","nw","h","h",1,1.05023490685562,NA,NA,NA
"experimental",27,24,"ld","lower","thesis","w","w","g","g",1,0.574912055424647,NA,NA,NA
"experimental",27,25,"ld","lower","chappef","nw","nw","h","h",1,0.662288446226739,NA,NA,NA
"experimental",27,26,"ld","lower","lanthers","nw","nw","h","h",1,0.698380069254199,NA,NA,NA
"experimental",27,27,"ld","lower","tyena","nw","nw","h","h",1,1.22916612603876,NA,NA,NA
"experimental",27,28,"ld","lower","extend","w","w","g","g",1,0.61057494248962,NA,NA,NA
"experimental",27,29,"ld","lower","blassed","nw","nw","h","h",1,0.687671602107002,NA,NA,NA
"experimental",27,30,"ld","lower","restock","w","w","g","g",1,0.874378337088274,NA,NA,NA
"experimental",28,1,"ld","lower","showdown","w","w","g","g",1,0.582723657920724,NA,NA,NA
"experimental",28,2,"ld","lower","formation","w","w","g","g",1,0.549773560473113,NA,NA,NA
"experimental",28,3,"ld","lower","arcients","nw","nw","h","h",1,0.685097530920757,NA,NA,NA
"experimental",28,4,"ld","lower","virulent","w","w","g","g",1,0.464616664627101,NA,NA,NA
"experimental",28,5,"ld","lower","euphoric","w","w","g","g",1,0.524705583477044,NA,NA,NA
"experimental",28,6,"ld","lower","smabled","nw","nw","h","g",0,0.44601581383904,NA,NA,NA
"experimental",28,7,"ld","lower","tycoon","w","w","g","g",1,0.922824508539634,NA,NA,NA
"experimental",28,8,"ld","lower","stranded","w","w","g","g",1,0.956278163852403,NA,NA,NA
"experimental",28,9,"ld","lower","mubby","nw","nw","h","h",1,0.588344237519777,NA,NA,NA
"experimental",28,10,"ld","lower","mogus","nw","nw","h","h",1,0.57107462019485,NA,NA,NA
"experimental",28,11,"ld","lower","computer","w","w","g","g",1,0.546475769733661,NA,NA,NA
"experimental",28,12,"ld","lower","bickering","w","w","g","g",1,0.587216281186556,NA,NA,NA
"experimental",28,13,"ld","lower","companion","w","w","g","g",1,0.473120203940198,NA,NA,NA
"experimental",28,14,"ld","lower","slightly","w","w","g","g",1,0.524349682964385,NA,NA,NA
"experimental",28,15,"ld","lower","tharcely","nw","nw","h","h",1,1.20583494355378,NA,NA,NA
"experimental",28,16,"ld","lower","insole","w","w","g","h",0,0.971937124413671,NA,NA,NA
"experimental",28,17,"ld","lower","fomes","nw","nw","h","h",1,0.803349201916717,NA,NA,NA
"experimental",28,18,"ld","lower","kiner","nw","nw","h","h",1,0.86535799712874,NA,NA,NA
"experimental",28,19,"ld","lower","partner","w","w","g","g",1,0.605465204294887,NA,NA,NA
"experimental",28,20,"ld","lower","drine","nw","nw","h","h",1,0.763556875652284,NA,NA,NA
"experimental",28,21,"ld","lower","female","w","w","g","g",1,0.619592302828096,NA,NA,NA
"experimental",28,22,"ld","lower","halents","nw","nw","h","g",0,0.776070668871398,NA,NA,NA
"experimental",28,23,"ld","lower","dorte","nw","nw","h","h",1,0.655436616390944,NA,NA,NA
"experimental",28,24,"ld","lower","blipover","nw","nw","h","h",1,1.07555251082522,NA,NA,NA
"experimental",28,25,"ld","lower","misobeyed","nw","nw","h","g",0,0.76687486168521,NA,NA,NA
"experimental",28,26,"ld","lower","greakable","nw","nw","h","h",1,0.734952075203182,NA,NA,NA
"experimental",28,27,"ld","lower","visible","w","w","g","g",1,0.535690825359779,NA,NA,NA
"experimental",28,28,"ld","lower","urique","nw","nw","h","h",1,1.66442120075226,NA,NA,NA
"experimental",28,29,"ld","lower","coupling","w","w","g","g",1,0.571303720804281,NA,NA,NA
"experimental",28,30,"ld","lower","peadgear","nw","nw","h","h",1,0.779437653298373,NA,NA,NA
"experimental",29,1,"hd","upper","condensed","w","w","g","g",1,0.627376095406362,NA,NA,NA
"experimental",29,2,"hd","upper","sunhess","nw","nw","h","h",1,0.584804434431135,NA,NA,NA
"experimental",29,3,"hd","upper","pypecast","nw","nw","h","h",1,0.559544767762418,NA,NA,NA
"experimental",29,4,"hd","upper","butcher","w","w","g","g",1,0.527620325927273,NA,NA,NA
"experimental",29,5,"hd","upper","iolize","nw","nw","h","h",1,0.54409173289605,NA,NA,NA
"experimental",29,6,"hd","upper","prillway","nw","nw","h","h",1,0.528704912067042,NA,NA,NA
"experimental",29,7,"hd","upper","uncorked","w","w","g","g",1,0.794123929474154,NA,NA,NA
"experimental",29,8,"hd","upper","miteous","nw","nw","h","h",1,0.856964373131632,NA,NA,NA
"experimental",29,9,"hd","upper","gounts","nw","nw","h","h",1,0.541001523204613,NA,NA,NA
"experimental",29,10,"hd","upper","olerates","nw","nw","h","h",1,0.493692246978753,NA,NA,NA
"experimental",29,11,"hd","upper","distrust","w","w","g","g",1,0.58443496003747,NA,NA,NA
"experimental",29,12,"hd","upper","boutique","w","w","g","g",1,0.495175110612763,NA,NA,NA
"experimental",29,13,"hd","upper","lawsuit","w","w","g","g",1,0.513944145073765,NA,NA,NA
"experimental",29,14,"hd","upper","trallion","nw","nw","h","h",1,0.723099760347395,NA,NA,NA
"experimental",29,15,"hd","upper","snife","nw","nw","h","g",0,0.788411974484916,NA,NA,NA
"experimental",29,16,"hd","upper","shillac","nw","nw","h","h",1,1.02716858059284,NA,NA,NA
"experimental",29,17,"hd","upper","educate","w","w","g","g",1,0.536566175098415,NA,NA,NA
"experimental",29,18,"hd","upper","thorifies","nw","nw","h","h",1,0.617425779128098,NA,NA,NA
"experimental",29,19,"hd","upper","arbitrary","w","w","g","g",1,0.59878023386409,NA,NA,NA
"experimental",29,20,"hd","upper","bookend","w","w","g","g",1,1.09345943837252,NA,NA,NA
"experimental",29,21,"hd","upper","slimped","nw","nw","h","h",1,1.20018324335979,NA,NA,NA
"experimental",29,22,"hd","upper","typical","w","w","g","g",1,0.495043013594113,NA,NA,NA
"experimental",29,23,"hd","upper","acidic","w","w","g","g",1,0.704397933135624,NA,NA,NA
"experimental",29,24,"hd","upper","podges","nw","nw","h","h",1,1.3147792366799,NA,NA,NA
"experimental",29,25,"hd","upper","turntable","w","w","g","g",1,1.02087063126964,NA,NA,NA
"experimental",29,26,"hd","upper","helpful","w","w","g","g",1,0.514300376671599,NA,NA,NA
"experimental",29,27,"hd","upper","breiled","nw","nw","h","h",1,0.588343575378531,NA,NA,NA
"experimental",29,28,"hd","upper","nogwhell","nw","nw","h","h",1,0.571083890172304,NA,NA,NA
"experimental",29,29,"hd","upper","equitable","w","w","g","g",1,0.594511414092267,NA,NA,NA
"experimental",29,30,"hd","upper","collision","w","w","g","g",1,0.577227560745087,NA,NA,NA
"experimental",30,1,"hd","upper","tucker","w","w","g","h",0,0.896687174637918,NA,NA,NA
"experimental",30,2,"hd","upper","region","w","w","g","g",1,0.499463794607436,NA,NA,NA
"experimental",30,3,"hd","upper","hegacy","nw","nw","h","h",1,0.614086935689556,NA,NA,NA
"experimental",30,4,"hd","upper","sodent","nw","nw","h","h",1,0.980218515571323,NA,NA,NA
"experimental",30,5,"hd","upper","party","w","w","g","g",1,0.587587410933338,NA,NA,NA
"experimental",30,6,"hd","upper","amplifier","w","w","g","g",1,0.538324158114847,NA,NA,NA
"experimental",30,7,"hd","upper","personify","w","w","g","g",1,0.466291549018933,NA,NA,NA
"experimental",30,8,"hd","upper","relaying","w","w","g","g",1,0.46210880750732,NA,NA,NA
"experimental",30,9,"hd","upper","fraft","nw","nw","h","h",1,0.890207136690151,NA,NA,NA
"experimental",30,10,"hd","upper","rivet","w","w","g","h",0,0.541002847487107,NA,NA,NA
"experimental",30,11,"hd","upper","talate","nw","nw","h","h",1,0.509597192736692,NA,NA,NA
"experimental",30,12,"hd","upper","dileting","nw","nw","h","h",1,1.39981694723247,NA,NA,NA
"experimental",30,13,"hd","upper","fards","nw","nw","h","h",1,0.63047756148444,NA,NA,NA
"experimental",30,14,"hd","upper","giraffe","target","target","q","g",0,0.635877979380894,1,1,NA
"experimental",30,15,"hd","upper","oldest","aftertar1","w","g","g",1,0.60765920682752,NA,NA,NA
"experimental",30,16,"hd","upper","tining","aftertar2","nw","h","h",1,0.740379971917719,NA,NA,NA
"experimental",30,17,"hd","upper","porghum","aftertar3","nw","h","h",1,0.654426189983496,NA,NA,NA
"experimental",30,18,"hd","upper","dariner","nw","nw","h","h",1,0.618464015424252,NA,NA,NA
"experimental",30,19,"hd","upper","brimitive","nw","nw","h","h",1,1.03125365637243,NA,NA,NA
"experimental",30,20,"hd","upper","cooray","nw","nw","h","h",1,0.564629675689503,NA,NA,NA
"experimental",30,21,"hd","upper","achieve","nw","w","g","g",1,0.596801095918636,NA,NA,NA
"experimental",30,22,"hd","upper","mennel","w","nw","h","h",1,0.651555479867966,NA,NA,NA
"experimental",30,23,"hd","upper","entropy","nw","w","g","g",1,0.655596523312852,NA,NA,NA
"experimental",30,24,"hd","upper","incorrect","w","w","g","g",1,0.531663024725276,NA,NA,NA
"experimental",30,25,"hd","upper","sliding","w","w","g","g",1,0.492105427270872,NA,NA,NA
"experimental",30,26,"hd","upper","sputter","w","w","g","g",1,0.590804420528002,NA,NA,NA
"experimental",30,27,"hd","upper","grummer","w","nw","h","g",0,0.541521303486661,NA,NA,NA
"experimental",30,28,"hd","upper","rapport","nw","w","g","g",1,0.934309997581295,NA,NA,NA
"experimental",30,29,"hd","upper","fatho","w","nw","h","h",1,0.566988220132771,NA,NA,NA
"experimental",30,30,"hd","upper","potatoes","nw","w","g","g",1,0.519081031045062,NA,NA,NA
"experimental",31,1,"hd","upper","suddenly","w","w","g","g",1,1.22372564865509,NA,NA,NA
"experimental",31,2,"hd","upper","scabry","nw","nw","h","h",1,0.621186075004516,NA,NA,NA
"experimental",31,3,"hd","upper","veirs","nw","nw","h","h",1,1.22664303967031,NA,NA,NA
"experimental",31,4,"hd","upper","paterways","nw","nw","h","h",1,0.767962427446037,NA,NA,NA
"experimental",31,5,"hd","upper","chemical","w","w","g","g",1,0.559377577286796,NA,NA,NA
"experimental",31,6,"hd","upper","ements","nw","nw","h","h",1,1.04716091962473,NA,NA,NA
"experimental",31,7,"hd","upper","trophy","w","w","g","h",0,0.620161412574816,NA,NA,NA
"experimental",31,8,"hd","upper","carnival","w","w","g","g",1,0.552701876818901,NA,NA,NA
"experimental",31,9,"hd","upper","dialect","w","w","g","g",1,0.49671458726516,NA,NA,NA
"experimental",31,10,"hd","upper","dolphin","target","target","q","g",0,0.683208444082993,1,1,NA
"experimental",31,11,"hd","upper","blerapies","aftertar1","nw","h","h",1,1.31894542466034,NA,NA,NA
"experimental",31,12,"hd","upper","glassware","aftertar2","w","g","g",1,0.968274494254729,NA,NA,NA
"experimental",31,13,"hd","upper","gigglod","aftertar3","nw","h","h",1,1.19975881130085,NA,NA,NA
"experimental",31,14,"hd","upper","number","nw","w","g","g",1,0.758531229308574,NA,NA,NA
"experimental",31,15,"hd","upper","egcused","w","nw","h","h",1,0.678564190646284,NA,NA,NA
"experimental",31,16,"hd","upper","failure","nw","w","g","g",1,0.602000554164988,NA,NA,NA
"experimental",31,17,"hd","upper","chining","w","nw","h","h",1,1.22314594464842,NA,NA,NA
"experimental",31,18,"hd","upper","incidonts","nw","nw","h","h",1,0.740550142028951,NA,NA,NA
"experimental",31,19,"hd","upper","offonents","nw","nw","h","h",1,0.709301414579386,NA,NA,NA
"experimental",31,20,"hd","upper","resume","nw","w","g","g",1,0.575336487483582,NA,NA,NA
"experimental",31,21,"hd","upper","create","w","w","g","g",1,0.63874438557832,NA,NA,NA
"experimental",31,22,"hd","upper","burning","w","w","g","g",1,1.019497351881,NA,NA,NA
"experimental",31,23,"hd","upper","yearnungs","w","nw","h","h",1,2.10495386629191,NA,NA,NA
"experimental",31,24,"hd","upper","elpousal","nw","nw","h","h",1,0.618133607320487,NA,NA,NA
"experimental",31,25,"hd","upper","seasoning","nw","w","g","g",1,0.526920112373773,NA,NA,NA
"experimental",31,26,"hd","upper","mantos","w","nw","h","h",1,0.584380333457375,NA,NA,NA
"experimental",31,27,"hd","upper","sengry","nw","nw","h","h",1,0.622918565597502,NA,NA,NA
"experimental",31,28,"hd","upper","melodic","nw","w","g","g",1,0.828342688109842,NA,NA,NA
"experimental",31,29,"hd","upper","detrabe","w","nw","h","h",1,0.713852306187619,NA,NA,NA
"experimental",31,30,"hd","upper","alchemist","nw","w","g","g",1,0.691781839224859,NA,NA,NA
"experimental",32,1,"hd","upper","trembles","w","w","g","g",1,0.606302149884868,NA,NA,NA
"experimental",32,2,"hd","upper","gaioty","nw","nw","h","h",1,1.01234027526516,NA,NA,NA
"experimental",32,3,"hd","upper","spiud","nw","nw","h","h",1,0.570742887808592,NA,NA,NA
"experimental",32,4,"hd","upper","hecture","nw","nw","h","h",1,0.530080177864875,NA,NA,NA
"experimental",32,5,"hd","upper","oppose","w","w","g","g",1,0.57147554626863,NA,NA,NA
"experimental",32,6,"hd","upper","miracle","w","w","g","g",1,0.546939268082497,NA,NA,NA
"experimental",32,7,"hd","upper","numbled","nw","nw","h","g",0,0.659658424177906,NA,NA,NA
"experimental",32,8,"hd","upper","shockwave","w","w","g","g",1,0.694763788938872,NA,NA,NA
"experimental",32,9,"hd","upper","tusied","nw","nw","h","h",1,0.537576601476758,NA,NA,NA
"experimental",32,10,"hd","upper","mortgage","w","w","g","g",1,0.826259594105068,NA,NA,NA
"experimental",32,11,"hd","upper","acorn","w","w","g","g",1,0.623723066310049,NA,NA,NA
"experimental",32,12,"hd","upper","kangaroo","target","target","q","g",0,0.565043844573665,1,1,NA
"experimental",32,13,"hd","upper","ausht","aftertar1","nw","h","h",1,1.07717541717284,NA,NA,NA
"experimental",32,14,"hd","upper","handcuff","aftertar2","w","g","g",1,0.824555575542036,NA,NA,NA
"experimental",32,15,"hd","upper","heuls","aftertar3","nw","h","h",1,0.542011287456262,NA,NA,NA
"experimental",32,16,"hd","upper","scarlet","nw","w","g","g",1,0.614703719547833,NA,NA,NA
"experimental",32,17,"hd","upper","portify","w","nw","h","h",1,0.764763626706554,NA,NA,NA
"experimental",32,18,"hd","upper","amkles","nw","nw","h","h",1,0.523909028459457,NA,NA,NA
"experimental",32,19,"hd","upper","blanned","nw","nw","h","h",1,0.837280260515399,NA,NA,NA
"experimental",32,20,"hd","upper","surround","nw","w","g","g",1,0.577993657294428,NA,NA,NA
"experimental",32,21,"hd","upper","contund","w","nw","h","h",1,0.641394933976699,NA,NA,NA
"experimental",32,22,"hd","upper","fonducts","nw","nw","h","h",1,0.61416837896104,NA,NA,NA
"experimental",32,23,"hd","upper","joadbed","nw","nw","h","h",1,0.580269103113096,NA,NA,NA
"experimental",32,24,"hd","upper","flicking","nw","w","g","g",1,0.835741777074873,NA,NA,NA
"experimental",32,25,"hd","upper","checkout","w","w","g","g",1,0.728374040467315,NA,NA,NA
"experimental",32,26,"hd","upper","addition","w","w","g","g",1,0.656885379779851,NA,NA,NA
"experimental",32,27,"hd","upper","command","w","w","g","g",1,0.956895609851927,NA,NA,NA
"experimental",32,28,"hd","upper","vivid","w","w","g","g",1,0.604897749901284,NA,NA,NA
"experimental",32,29,"hd","upper","jinds","w","nw","h","h",1,0.971043565805303,NA,NA,NA
"experimental",32,30,"hd","upper","series","nw","w","g","g",1,0.65773821673065,NA,NA,NA
"experimental",33,1,"ld","lower","mamps","nw","nw","h","h",1,0.733346715584048,NA,NA,NA
"experimental",33,2,"ld","lower","serving","w","w","g","g",1,0.638718893169425,NA,NA,NA
"experimental",33,3,"ld","lower","roodies","nw","nw","h","h",1,1.11541105112701,NA,NA,NA
"experimental",33,4,"ld","lower","redefloy","nw","nw","h","h",1,0.669413409021217,NA,NA,NA
"experimental",33,5,"ld","lower","mestowal","nw","nw","h","h",1,0.504886063106824,NA,NA,NA
"experimental",33,6,"ld","lower","tiery","nw","nw","h","h",1,0.506914861587575,NA,NA,NA
"experimental",33,7,"ld","lower","border","w","w","g","g",1,0.981020698789507,NA,NA,NA
"experimental",33,8,"ld","lower","dingly","nw","nw","h","h",1,0.580389943759656,NA,NA,NA
"experimental",33,9,"ld","lower","pimorous","nw","nw","h","h",1,0.77987036210834,NA,NA,NA
"experimental",33,10,"ld","lower","artifact","w","w","g","g",1,0.72235220373841,NA,NA,NA
"experimental",33,11,"ld","lower","hodels","nw","nw","h","h",1,1.4997849327483,NA,NA,NA
"experimental",33,12,"ld","lower","armada","w","w","g","h",0,1.24646984357969,NA,NA,NA
"experimental",33,13,"ld","lower","preserve","w","w","g","g",1,0.563178925862303,NA,NA,NA
"experimental",33,14,"ld","lower","listless","w","w","g","g",1,0.595226194753195,NA,NA,NA
"experimental",33,15,"ld","lower","ottans","nw","nw","h","h",1,0.474011776110274,NA,NA,NA
"experimental",33,16,"ld","lower","hotplate","w","w","g","g",1,0.469261249134434,NA,NA,NA
"experimental",33,17,"ld","lower","assent","w","w","g","g",1,0.512973778197193,NA,NA,NA
"experimental",33,18,"ld","lower","buzzer","w","w","g","g",1,0.61868384607078,NA,NA,NA
"experimental",33,19,"ld","lower","germeated","nw","nw","h","h",1,1.19855338452908,NA,NA,NA
"experimental",33,20,"ld","lower","dislokes","nw","nw","h","h",1,0.757146693533286,NA,NA,NA
"experimental",33,21,"ld","lower","renown","w","w","g","g",1,0.891095398168545,NA,NA,NA
"experimental",33,22,"ld","lower","stooping","w","w","g","g",1,1.11196990698227,NA,NA,NA
"experimental",33,23,"ld","lower","duries","nw","nw","h","h",1,0.674125531848404,NA,NA,NA
"experimental",33,24,"ld","lower","living","w","w","g","g",1,1.63754889089614,NA,NA,NA
"experimental",33,25,"ld","lower","maintain","w","w","g","g",1,1.29045418131864,NA,NA,NA
"experimental",33,26,"ld","lower","elpired","nw","nw","h","h",1,1.13230920763453,NA,NA,NA
"experimental",33,27,"ld","lower","golemic","nw","nw","h","h",1,0.597548983598244,NA,NA,NA
"experimental",33,28,"ld","lower","pressing","w","w","g","g",1,0.628374272215297,NA,NA,NA
"experimental",33,29,"ld","lower","theery","nw","nw","h","h",1,0.609667147873552,NA,NA,NA
"experimental",33,30,"ld","lower","repayment","w","w","g","g",1,0.55974605846859,NA,NA,NA
"experimental",34,1,"ld","lower","target","w","w","g","g",1,1.55990563433443,NA,NA,NA
"experimental",34,2,"ld","lower","unsmilung","nw","nw","h","h",1,0.70391556379036,NA,NA,NA
"experimental",34,3,"ld","lower","brighten","w","w","g","g",1,0.58597377454862,NA,NA,NA
"experimental",34,4,"ld","lower","decency","w","w","g","g",1,0.744708715399611,NA,NA,NA
"experimental",34,5,"ld","lower","infested","w","w","g","g",1,0.56145371880848,NA,NA,NA
"experimental",34,6,"ld","lower","provide","w","w","g","g",1,0.409501745176385,NA,NA,NA
"experimental",34,7,"ld","lower","planofoad","nw","nw","h","h",1,0.567782126585371,NA,NA,NA
"experimental",34,8,"ld","lower","engineer","w","w","g","g",1,0.494965543155558,NA,NA,NA
"experimental",34,9,"ld","lower","birn","nw","nw","h","h",1,0.521664041109034,NA,NA,NA
"experimental",34,10,"ld","lower","igiom","nw","nw","h","h",1,0.490194820871693,NA,NA,NA
"experimental",34,11,"ld","lower","moyeur","nw","nw","h","h",1,0.436814709522878,NA,NA,NA
"experimental",34,12,"ld","lower","clume","nw","nw","h","h",1,0.553427251725225,NA,NA,NA
"experimental",34,13,"ld","lower","tunneg","nw","nw","h","h",1,0.433605976693798,NA,NA,NA
"experimental",34,14,"ld","lower","usage","w","w","g","g",1,0.535044245174504,NA,NA,NA
"experimental",34,15,"ld","lower","rualify","nw","nw","h","h",1,0.640104422142031,NA,NA,NA
"experimental",34,16,"ld","lower","schinter","nw","nw","h","g",0,0.701359039332601,NA,NA,NA
"experimental",34,17,"ld","lower","consonant","w","w","g","h",0,0.695969877837342,NA,NA,NA
"experimental",34,18,"ld","lower","latirizes","nw","nw","h","h",1,0.586675312399166,NA,NA,NA
"experimental",34,19,"ld","lower","frequency","w","w","g","g",1,0.737459270196268,NA,NA,NA
"experimental",34,20,"ld","lower","gures","nw","nw","h","h",1,0.617291033529909,NA,NA,NA
"experimental",34,21,"ld","lower","pracking","nw","nw","h","h",1,0.846635312482249,NA,NA,NA
"experimental",34,22,"ld","lower","slogan","w","w","g","g",1,0.643373078710283,NA,NA,NA
"experimental",34,23,"ld","lower","cessation","w","w","g","g",1,0.664074570202501,NA,NA,NA
"experimental",34,24,"ld","lower","rationale","w","w","g","g",1,0.804186809647945,NA,NA,NA
"experimental",34,25,"ld","lower","grieving","w","w","g","g",1,0.554235394200077,NA,NA,NA
"experimental",34,26,"ld","lower","plymie","nw","nw","h","h",1,1.01840912396437,NA,NA,NA
"experimental",34,27,"ld","lower","hubris","w","w","g","g",1,0.799806419207016,NA,NA,NA
"experimental",34,28,"ld","lower","ilcurring","nw","nw","h","h",1,0.541625259545981,NA,NA,NA
"experimental",34,29,"ld","lower","ugifies","nw","nw","h","h",1,0.982321804855019,NA,NA,NA
"experimental",34,30,"ld","lower","kickoff","w","w","g","g",1,0.517652462935075,NA,NA,NA
"experimental",35,1,"hd","upper","twenties","w","w","g","g",1,1.38342532821116,NA,NA,NA
"experimental",35,2,"hd","upper","subber","nw","nw","h","h",1,0.838781664075213,NA,NA,NA
"experimental",35,3,"hd","upper","draze","nw","nw","h","g",0,0.890626933774911,NA,NA,NA
"experimental",35,4,"hd","upper","hangar","w","w","g","g",1,0.509281351725804,NA,NA,NA
"experimental",35,5,"hd","upper","pranny","nw","nw","h","h",1,0.639297935034847,NA,NA,NA
"experimental",35,6,"hd","upper","owner","w","w","g","g",1,0.516139140818268,NA,NA,NA
"experimental",35,7,"hd","upper","destroy","w","w","g","g",1,0.606125027290545,NA,NA,NA
"experimental",35,8,"hd","upper","nollow","nw","nw","h","h",1,1.01218235476699,NA,NA,NA
"experimental",35,9,"hd","upper","phonology","w","w","g","g",1,0.746338243159698,NA,NA,NA
"experimental",35,10,"hd","upper","churnad","nw","nw","h","h",1,0.763025176842348,NA,NA,NA
"experimental",35,11,"hd","upper","deserve","w","w","g","g",1,0.587042138227844,NA,NA,NA
"experimental",35,12,"hd","upper","harfing","nw","nw","h","h",1,0.584992482326925,NA,NA,NA
"experimental",35,13,"hd","upper","cripet","nw","nw","h","h",1,0.98312564342632,NA,NA,NA
"experimental",35,14,"hd","upper","pressures","w","w","g","g",1,0.614334576224792,NA,NA,NA
"experimental",35,15,"hd","upper","nelvet","nw","nw","h","h",1,0.500453032494988,NA,NA,NA
"experimental",35,16,"hd","upper","nores","nw","nw","h","h",1,0.590540557532222,NA,NA,NA
"experimental",35,17,"hd","upper","outrank","w","w","g","g",1,0.605236434741528,NA,NA,NA
"experimental",35,18,"hd","upper","treason","w","w","g","g",1,0.69940506273997,NA,NA,NA
"experimental",35,19,"hd","upper","lizard","target","target","q","g",0,0.654039831002592,NA,NA,NA
"experimental",35,20,"hd","upper","arrested","aftertar1","w","g","g",1,0.57813469323446,NA,NA,NA
"experimental",35,21,"hd","upper","even","aftertar2","w","g","g",1,0.64067518725642,NA,NA,NA
"experimental",35,22,"hd","upper","chrik","aftertar3","nw","h","h",1,0.957284948453889,NA,NA,NA
"experimental",35,23,"hd","upper","tablet","nw","w","g","g",1,0.549457719462225,NA,NA,NA
"experimental",35,24,"hd","upper","bailmenz","w","nw","h","h",1,0.606139263312798,NA,NA,NA
"experimental",35,25,"hd","upper","misest","nw","nw","h","h",1,0.916374266904313,NA,NA,NA
"experimental",35,26,"hd","upper","rodeo","nw","w","g","g",1,0.702252597940969,NA,NA,NA
"experimental",35,27,"hd","upper","entertain","w","w","g","g",1,0.471651245243265,NA,NA,NA
"experimental",35,28,"hd","upper","audience","w","w","g","g",1,0.523157830073615,NA,NA,NA
"experimental",35,29,"hd","upper","markot","w","nw","h","h",1,1.56367751766811,NA,NA,NA
"experimental",35,30,"hd","upper","yellep","nw","nw","h","h",1,0.64366177195916,NA,NA,NA
"experimental",36,1,"ld","lower","committed","w","w","g","g",1,0.584922957583331,NA,NA,NA
"experimental",36,2,"ld","lower","irfirm","nw","nw","h","h",1,0.584736565040657,NA,NA,NA
"experimental",36,3,"ld","lower","louches","nw","nw","h","h",1,1.49611137727334,NA,NA,NA
"experimental",36,4,"ld","lower","smallash","nw","nw","h","h",1,0.601946258626413,NA,NA,NA
"experimental",36,5,"ld","lower","footstep","w","w","g","g",1,0.543352784094168,NA,NA,NA
"experimental",36,6,"ld","lower","glattery","nw","nw","h","h",1,0.656048103119247,NA,NA,NA
"experimental",36,7,"ld","lower","joses","nw","nw","h","h",1,1.31623263507208,NA,NA,NA
"experimental",36,8,"ld","lower","forbid","w","w","g","g",1,0.502221609756816,NA,NA,NA
"experimental",36,9,"ld","lower","praiged","nw","nw","h","h",1,0.879675129981479,NA,NA,NA
"experimental",36,10,"ld","lower","togglo","nw","nw","h","h",1,0.595079199571046,NA,NA,NA
"experimental",36,11,"ld","lower","vaporize","w","w","g","g",1,0.529766985418973,NA,NA,NA
"experimental",36,12,"ld","lower","parent","w","w","g","g",1,0.467210600007093,NA,NA,NA
"experimental",36,13,"ld","lower","volder","nw","nw","h","h",1,0.653759745575371,NA,NA,NA
"experimental",36,14,"ld","lower","unrealon","nw","nw","h","h",1,0.849848349243985,NA,NA,NA
"experimental",36,15,"ld","lower","gradielts","nw","nw","h","h",1,0.742436911372351,NA,NA,NA
"experimental",36,16,"ld","lower","sustain","w","w","g","g",1,0.719224252025015,NA,NA,NA
"experimental",36,17,"ld","lower","permeable","w","w","g","g",1,0.592594517351245,NA,NA,NA
"experimental",36,18,"ld","lower","insertion","w","w","g","g",1,0.599387085618218,NA,NA,NA
"experimental",36,19,"ld","lower","pexts","nw","nw","h","h",1,0.566099627598305,NA,NA,NA
"experimental",36,20,"ld","lower","plogging","nw","nw","h","h",1,0.566166503776913,NA,NA,NA
"experimental",36,21,"ld","lower","peems","nw","nw","h","h",1,0.446220415265998,NA,NA,NA
"experimental",36,22,"ld","lower","gontracts","nw","nw","h","h",1,0.43490807597118,NA,NA,NA
"experimental",36,23,"ld","lower","figure","w","w","g","g",1,0.46215879911324,NA,NA,NA
"experimental",36,24,"ld","lower","crocodile","target","target","q","g",0,0.785997148108436,NA,NA,NA
"experimental",36,25,"ld","lower","troven","aftertar1","nw","h","h",1,0.912851679473533,NA,NA,NA
"experimental",36,26,"ld","lower","dehydrate","aftertar2","w","g","g",1,0.80281055062369,NA,NA,NA
"experimental",36,27,"ld","lower","exemplify","aftertar3","w","g","g",1,0.504895333069726,NA,NA,NA
"experimental",36,28,"ld","lower","country","w","w","g","g",1,0.746545162066468,NA,NA,NA
"experimental",36,29,"ld","lower","unversed","w","w","g","g",1,0.531305137788877,NA,NA,NA
"experimental",36,30,"ld","lower","fillings","w","w","g","g",1,0.612085284970817,NA,NA,NA
"experimental",37,1,"ld","lower","collute","nw","nw","h","h",1,0.730606778204674,NA,NA,NA
"experimental",37,2,"ld","lower","rootsie","nw","nw","h","h",1,0.507999116642168,NA,NA,NA
"experimental",37,3,"ld","lower","surdens","nw","nw","h","h",1,0.590093612714554,NA,NA,NA
"experimental",37,4,"ld","lower","trewl","nw","nw","h","h",1,0.492835106109851,NA,NA,NA
"experimental",37,5,"ld","lower","lavilion","nw","nw","h","h",1,0.471557552358718,NA,NA,NA
"experimental",37,6,"ld","lower","lignpost","nw","nw","h","h",1,0.546961780870333,NA,NA,NA
"experimental",37,7,"ld","lower","aligning","w","w","g","h",0,0.922814576435485,NA,NA,NA
