"procedure","block","trial","PMdemand","context","stim","role","word_type","correct_key","response","correct","reaction_time","pressedQ","pressedQ_blank","pressedQ_fix"
"LDTpractice",1,1,NA,"lower","treeps","","nw","h","g",0,0.479817796862335,NA,NA,NA
"LDTpractice",2,1,NA,"lower","julled","","nw","h","h",1,1.53620535034861,NA,NA,NA
"LDTpractice",3,1,NA,"lower","turative","","nw","h","g",0,0.736033061388298,NA,NA,NA
"LDTpractice",4,1,NA,"lower","raestro","","nw","h","h",1,0.762889479869045,NA,NA,NA
"LDTpractice",5,1,NA,"lower","alolition","","nw","h","h",1,0.723136550965137,NA,NA,NA
"LDTpractice",6,1,NA,"lower","revival","","w","g","g",1,0.532599995349301,NA,NA,NA
"LDTpractice",7,1,NA,"lower","picture","","w","g","g",1,0.460574669807102,NA,NA,NA
"LDTpractice",8,1,NA,"lower","hiring","","w","g","g",1,0.441767231182894,NA,NA,NA
"LDTpractice",9,1,NA,"lower","busted","","w","g","g",1,0.406914804087137,NA,NA,NA
"LDTpractice",10,1,NA,"lower","unscrew","","w","g","g",1,0.380087188721518,NA,NA,NA
"LDTpractice",11,1,NA,"lower","reputable","","w","g","g",1,0.355487676133635,NA,NA,NA
"LDTpractice",12,1,NA,"lower","trotch","","nw","h","h",1,0.538901586434804,NA,NA,NA
"LDTpractice",13,1,NA,"lower","grimace","","w","g","g",1,0.531380994696519,NA,NA,NA
"LDTpractice",14,1,NA,"lower","lurshing","","nw","h","g",0,0.381160849530715,NA,NA,NA
"LDTpractice",1,2,NA,"upper","grocus","","nw","h","h",1,0.596494897748926,NA,NA,NA
"LDTpractice",2,2,NA,"upper","latador","","nw","h","h",1,0.427248807623982,NA,NA,NA
"LDTpractice",3,2,NA,"upper","hasking","","nw","h","h",1,0.544711538212141,NA,NA,NA
"LDTpractice",4,2,NA,"upper","grutch","","nw","h","g",0,0.45010987034766,NA,NA,NA
"LDTpractice",5,2,NA,"upper","crinklo","","nw","h","h",1,0.558926039288053,NA,NA,NA
"LDTpractice",6,2,NA,"upper","overshoot","","w","g","g",1,0.446045320917619,NA,NA,NA
"LDTpractice",7,2,NA,"upper","sponsor","","w","g","g",1,0.39488768413139,NA,NA,NA
"LDTpractice",8,2,NA,"upper","tricycle","","w","g","g",1,0.417612014847691,NA,NA,NA
"LDTpractice",9,2,NA,"upper","slumber","","w","g","g",1,0.415134947266779,NA,NA,NA
"LDTpractice",10,2,NA,"upper","umpire","","w","g","g",1,0.853263380660792,NA,NA,NA
"LDTpractice",11,2,NA,"upper","infinity","","w","g","g",1,0.44136696725036,NA,NA,NA
"LDTpractice",12,2,NA,"upper","lumbigo","","nw","h","h",1,0.469188786562881,NA,NA,NA
"LDTpractice",13,2,NA,"upper","summary","","w","g","g",1,0.392601975152502,NA,NA,NA
"LDTpractice",14,2,NA,"upper","curlecs","","nw","h","h",1,0.575357055669883,NA,NA,NA
"experimental",1,1,"ld","upper","impirt","nw","nw","h","h",1,0.662866536687943,NA,NA,NA
"experimental",1,2,"ld","upper","flieves","nw","nw","h","h",1,0.466652788469219,NA,NA,NA
"experimental",1,3,"ld","upper","tusied","nw","nw","h","h",1,0.519220784510253,NA,NA,NA
"experimental",1,4,"ld","upper","disease","w","w","g","g",1,0.441291152164922,NA,NA,NA
"experimental",1,5,"ld","upper","handbook","w","w","g","g",1,0.390619526500814,NA,NA,NA
"experimental",1,6,"ld","upper","leather","w","w","g","g",1,0.40597820635594,NA,NA,NA
"experimental",1,7,"ld","upper","troven","nw","nw","h","g",0,0.388764208837529,NA,NA,NA
"experimental",1,8,"ld","upper","theery","nw","nw","h","h",1,0.876193968142616,NA,NA,NA
"experimental",1,9,"ld","upper","sazer","nw","nw","h","h",1,0.455308666438214,NA,NA,NA
"experimental",1,10,"ld","upper","moozy","nw","nw","h","h",1,0.508913574492908,NA,NA,NA
"experimental",1,11,"ld","upper","nameplate","w","w","g","g",1,0.485835991828935,NA,NA,NA
"experimental",1,12,"ld","upper","parent","w","w","g","g",1,0.418050682928879,NA,NA,NA
"experimental",1,13,"ld","upper","acroad","nw","nw","h","g",0,0.456687574027455,NA,NA,NA
"experimental",1,14,"ld","upper","affluent","w","w","g","g",1,0.56530377654417,NA,NA,NA
"experimental",1,15,"ld","upper","paterways","nw","nw","h","h",1,0.694065603616764,NA,NA,NA
"experimental",1,16,"ld","upper","glaims","nw","nw","h","h",1,0.545411751780193,NA,NA,NA
"experimental",1,17,"ld","upper","lizard","target","target","q","g",0,0.770808680186747,1,1,NA
"experimental",1,18,"ld","upper","ordinary","aftertar1","w","g","g",1,1.24291154238745,NA,NA,NA
"experimental",1,19,"ld","upper","terrify","aftertar2","w","g","g",1,0.728347596668755,NA,NA,NA
"experimental",1,20,"ld","upper","dariner","aftertar3","nw","h","h",1,1.2184325393464,NA,NA,NA
"experimental",1,21,"ld","upper","naxis","nw","nw","h","h",1,0.471481779095484,NA,NA,NA
"experimental",1,22,"ld","upper","subpoena","nw","w","g","h",0,0.523601837092428,NA,NA,NA
"experimental",1,23,"ld","upper","sength","w","nw","h","h",1,0.637660834472626,NA,NA,NA
"experimental",1,24,"ld","upper","melodic","nw","w","g","g",1,0.571071351325372,NA,NA,NA
"experimental",1,25,"ld","upper","angry","w","w","g","g",1,0.475210292221163,NA,NA,NA
"experimental",1,26,"ld","upper","addition","w","w","g","g",1,0.463181516926852,NA,NA,NA
"experimental",1,27,"ld","upper","personify","w","w","g","g",1,0.499895552027738,NA,NA,NA
"experimental",1,28,"ld","upper","poars","w","nw","h","h",1,0.487284093076596,NA,NA,NA
"experimental",1,29,"ld","upper","meteoroid","nw","w","g","g",1,0.938794716959819,NA,NA,NA
"experimental",1,30,"ld","upper","etuip","w","nw","h","h",1,0.523082387881004,NA,NA,NA
"experimental",2,1,"ld","upper","relaying","w","w","g","g",1,0.509231070856913,NA,NA,NA
"experimental",2,2,"ld","upper","bamboo","w","w","g","g",1,0.423941084765829,NA,NA,NA
"experimental",2,3,"ld","upper","befin","nw","nw","h","h",1,0.950000451630331,NA,NA,NA
"experimental",2,4,"ld","upper","susher","nw","nw","h","g",0,0.567503738318919,NA,NA,NA
"experimental",2,5,"ld","upper","purpose","w","w","g","g",1,0.4144840631634,NA,NA,NA
"experimental",2,6,"ld","upper","wrestle","w","w","g","g",1,0.453962534811581,NA,NA,NA
"experimental",2,7,"ld","upper","brimitive","nw","nw","h","g",0,0.554630402824841,NA,NA,NA
"experimental",2,8,"ld","upper","ebciting","nw","nw","h","h",1,0.595428520493442,NA,NA,NA
"experimental",2,9,"ld","upper","sustain","w","w","g","g",1,0.530816850994597,NA,NA,NA
"experimental",2,10,"ld","upper","bother","w","w","g","g",1,0.517091671747039,NA,NA,NA
"experimental",2,11,"ld","upper","ignoble","w","w","g","h",0,0.663084711995907,NA,NA,NA
"experimental",2,12,"ld","upper","intended","w","w","g","g",1,0.515805463830475,NA,NA,NA
"experimental",2,13,"ld","upper","priant","nw","nw","h","h",1,0.518513287388487,NA,NA,NA
"experimental",2,14,"ld","upper","sonnet","w","w","g","h",0,0.552519830001984,NA,NA,NA
"experimental",2,15,"ld","upper","triplet","w","w","g","g",1,0.609313937748084,NA,NA,NA
"experimental",2,16,"ld","upper","ringlat","nw","nw","h","h",1,0.71904319843452,NA,NA,NA
"experimental",2,17,"ld","upper","previous","w","w","g","g",1,0.497077813153737,NA,NA,NA
"experimental",2,18,"ld","upper","plogging","nw","nw","h","h",1,0.604527986244648,NA,NA,NA
"experimental",2,19,"ld","upper","topefuls","nw","nw","h","h",1,0.555222025359399,NA,NA,NA
"experimental",2,20,"ld","upper","sonkers","nw","nw","h","h",1,0.57995330390986,NA,NA,NA
"experimental",2,21,"ld","upper","surfaced","w","w","g","g",1,0.548047402029624,NA,NA,NA
"experimental",2,22,"ld","upper","fivalve","nw","nw","h","h",1,0.557464364144835,NA,NA,NA
"experimental",2,23,"ld","upper","rarely","w","w","g","g",1,0.47822435577109,NA,NA,NA
"experimental",2,24,"ld","upper","bloves","nw","nw","h","h",1,0.55336339698988,NA,NA,NA
"experimental",2,25,"ld","upper","baladroit","nw","nw","h","h",1,0.523001275665592,NA,NA,NA
"experimental",2,26,"ld","upper","nearsipe","nw","nw","h","h",1,0.476050217446755,NA,NA,NA
"experimental",2,27,"ld","upper","roaned","nw","nw","h","h",1,0.568035768214031,NA,NA,NA
"experimental",2,28,"ld","upper","laser","w","w","g","g",1,0.808120297078858,NA,NA,NA
"experimental",2,29,"ld","upper","chraps","nw","nw","h","h",1,0.49484242683684,NA,NA,NA
"experimental",2,30,"ld","upper","maroon","w","w","g","g",1,0.530296739641926,NA,NA,NA
"experimental",3,1,"hd","lower","unrealon","nw","nw","h","h",1,0.610985842504306,NA,NA,NA
"experimental",3,2,"hd","lower","cervical","w","w","g","g",1,0.626928861325723,NA,NA,NA
"experimental",3,3,"hd","lower","frunted","nw","nw","h","h",1,0.569081950205145,NA,NA,NA
"experimental",3,4,"hd","lower","endgume","nw","nw","h","h",1,0.713083271824871,NA,NA,NA
"experimental",3,5,"hd","lower","tablet","w","w","g","g",1,0.459872469800757,NA,NA,NA
"experimental",3,6,"hd","lower","parody","w","w","g","g",1,0.504630518698832,NA,NA,NA
"experimental",3,7,"hd","lower","harfing","nw","nw","h","h",1,0.507355888970778,NA,NA,NA
"experimental",3,8,"hd","lower","country","w","w","g","g",1,0.502129282991518,NA,NA,NA
"experimental",3,9,"hd","lower","acoustic","w","w","g","g",1,0.464834219616023,NA,NA,NA
"experimental",3,10,"hd","lower","afternoon","w","w","g","g",1,0.437589455730631,NA,NA,NA
"experimental",3,11,"hd","lower","chonemic","nw","nw","h","g",0,0.561998371194932,NA,NA,NA
"experimental",3,12,"hd","lower","noils","nw","nw","h","h",1,0.466740853167721,NA,NA,NA
"experimental",3,13,"hd","lower","exemplify","w","w","g","g",1,0.487452276764088,NA,NA,NA
"experimental",3,14,"hd","lower","egpended","nw","nw","h","h",1,0.5948435193568,NA,NA,NA
"experimental",3,15,"hd","lower","measure","w","w","g","g",1,0.514234866583138,NA,NA,NA
"experimental",3,16,"hd","lower","standard","w","w","g","g",1,0.581010411216994,NA,NA,NA
"experimental",3,17,"hd","lower","equitable","w","w","g","g",1,0.620399824983906,NA,NA,NA
"experimental",3,18,"hd","lower","latpin","nw","nw","h","h",1,0.634487857227214,NA,NA,NA
"experimental",3,19,"hd","lower","chining","nw","nw","h","h",1,0.599013018072583,NA,NA,NA
"experimental",3,20,"hd","lower","issue","w","w","g","g",1,0.519292626748211,NA,NA,NA
"experimental",3,21,"hd","lower","lindo","nw","nw","h","h",1,0.536395053597516,NA,NA,NA
"experimental",3,22,"hd","lower","sporidic","nw","nw","h","h",1,0.489699581608875,NA,NA,NA
"experimental",3,23,"hd","lower","inversion","w","w","g","g",1,0.437194157857448,NA,NA,NA
"experimental",3,24,"hd","lower","nogwhell","nw","nw","h","h",1,0.554467847337946,NA,NA,NA
"experimental",3,25,"hd","lower","illness","w","w","g","g",1,0.451219286740525,NA,NA,NA
"experimental",3,26,"hd","lower","spider","target","target","q","q",1,0.512028945522616,1,NA,NA
"experimental",3,27,"hd","lower","felevance","aftertar1","nw","h","h",1,0.570628048255458,NA,NA,NA
"experimental",3,28,"hd","lower","senalize","aftertar2","nw","h","g",0,0.650661632011179,NA,NA,NA
"experimental",3,29,"hd","lower","decant","aftertar3","w","g","g",1,0.455448709151824,NA,NA,NA
"experimental",3,30,"hd","lower","praiged","w","nw","h","h",1,0.53965708873875,NA,NA,NA
"experimental",4,1,"hd","lower","prominent","w","w","g","g",1,0.596977598193916,NA,NA,NA
"experimental",4,2,"hd","lower","olerates","nw","nw","h","h",1,0.460392250097357,NA,NA,NA
"experimental",4,3,"hd","lower","lovud","nw","nw","h","h",1,0.473095415494754,NA,NA,NA
"experimental",4,4,"hd","lower","ilterfere","nw","nw","h","h",1,0.501179442435387,NA,NA,NA
"experimental",4,5,"hd","lower","lanthers","nw","nw","h","h",1,0.566950851018191,NA,NA,NA
"experimental",4,6,"hd","lower","slimped","nw","nw","h","h",1,0.551691161177587,NA,NA,NA
"experimental",4,7,"hd","lower","actual","w","w","g","g",1,0.448371089398279,NA,NA,NA
"experimental",4,8,"hd","lower","neliefs","nw","nw","h","h",1,0.461740699218353,NA,NA,NA
"experimental",4,9,"hd","lower","urgent","w","w","g","g",1,0.498485854914179,NA,NA,NA
"experimental",4,10,"hd","lower","puyer","nw","nw","h","h",1,0.485873402765719,NA,NA,NA
"experimental",4,11,"hd","lower","extend","w","w","g","g",1,0.569260065996787,NA,NA,NA
"experimental",4,12,"hd","lower","gunrunker","nw","nw","h","h",1,0.505338677961845,NA,NA,NA
"experimental",4,13,"hd","lower","hardest","w","w","g","g",1,0.492046207524254,NA,NA,NA
"experimental",4,14,"hd","lower","blanned","nw","nw","h","h",1,0.511493936006445,NA,NA,NA
"experimental",4,15,"hd","lower","snays","nw","nw","h","h",1,0.562228133945609,NA,NA,NA
"experimental",4,16,"hd","lower","brudent","nw","nw","h","h",1,0.514014042724739,NA,NA,NA
"experimental",4,17,"hd","lower","nomma","nw","nw","h","h",1,0.396642687526764,NA,NA,NA
"experimental",4,18,"hd","lower","rowel","nw","nw","h","h",1,0.396050071780337,NA,NA,NA
"experimental",4,19,"hd","lower","condensed","w","w","g","g",1,0.451465934078442,NA,NA,NA
"experimental",4,20,"hd","lower","trembles","w","w","g","g",1,0.560120209658635,NA,NA,NA
"experimental",4,21,"hd","lower","breiled","nw","nw","h","h",1,0.536873119039228,NA,NA,NA
"experimental",4,22,"hd","lower","skiing","w","w","g","g",1,0.658320280053886,NA,NA,NA
"experimental",4,23,"hd","lower","arbitrary","w","w","g","g",1,0.599011031648843,NA,NA,NA
"experimental",4,24,"hd","lower","distrust","w","w","g","g",1,0.534343080202234,NA,NA,NA
"experimental",4,25,"hd","lower","martial","w","w","g","g",1,0.59174271543452,NA,NA,NA
"experimental",4,26,"hd","lower","perishing","w","w","g","g",1,0.573493461255566,NA,NA,NA
"experimental",4,27,"hd","lower","ausht","nw","nw","h","h",1,0.534114972804673,NA,NA,NA
"experimental",4,28,"hd","lower","shockwave","w","w","g","g",1,0.536334467746201,NA,NA,NA
"experimental",4,29,"hd","lower","compose","w","w","g","g",1,0.513715417371714,NA,NA,NA
"experimental",4,30,"hd","lower","elderly","w","w","g","g",1,0.524409979567281,NA,NA,NA
"experimental",5,1,"hd","lower","stranded","w","w","g","g",1,0.582934591497178,NA,NA,NA
"experimental",5,2,"hd","lower","intercede","w","w","g","g",1,0.573997019091621,NA,NA,NA
"experimental",5,3,"hd","lower","dorth","nw","nw","h","h",1,0.558052675973158,NA,NA,NA
"experimental",5,4,"hd","lower","require","w","w","g","g",1,0.510787432096549,NA,NA,NA
"experimental",5,5,"hd","lower","ifkling","nw","nw","h","h",1,0.441495091436082,NA,NA,NA
"experimental",5,6,"hd","lower","cassette","w","w","g","g",1,0.598893170637893,NA,NA,NA
"experimental",5,7,"hd","lower","maunches","nw","nw","h","h",1,0.71830226322345,NA,NA,NA
"experimental",5,8,"hd","lower","refebs","nw","nw","h","h",1,0.568462848837953,NA,NA,NA
"experimental",5,9,"hd","lower","stagger","w","w","g","g",1,0.504419626959134,NA,NA,NA
"experimental",5,10,"hd","lower","trallion","nw","nw","h","h",1,0.611040800155024,NA,NA,NA
"experimental",5,11,"hd","lower","galashes","nw","nw","h","g",0,0.73770794578013,NA,NA,NA
"experimental",5,12,"hd","lower","season","w","w","g","g",1,0.52200309887121,NA,NA,NA
"experimental",5,13,"hd","lower","buttress","w","w","g","g",1,0.628046885569347,NA,NA,NA
"experimental",5,14,"hd","lower","tracing","w","w","g","g",1,0.570063904568087,NA,NA,NA
"experimental",5,15,"hd","lower","educate","w","w","g","g",1,0.530053071925067,NA,NA,NA
"experimental",5,16,"hd","lower","expected","w","w","g","g",1,0.468134989976534,NA,NA,NA
"experimental",5,17,"hd","lower","godomy","nw","nw","h","h",1,0.536228856333764,NA,NA,NA
"experimental",5,18,"hd","lower","gaining","w","w","g","g",1,0.585615267293178,NA,NA,NA
"experimental",5,19,"hd","lower","butterfly","target","target","q","g",0,0.425066061477992,NA,NA,NA
"experimental",5,20,"hd","lower","medium","aftertar1","w","g","g",1,0.439039874487207,NA,NA,NA
"experimental",5,21,"hd","lower","passet","aftertar2","nw","h","h",1,0.826357963800547,NA,NA,NA
"experimental",5,22,"hd","lower","harmful","aftertar3","w","g","g",1,0.505562812526478,NA,NA,NA
"experimental",5,23,"hd","lower","tasher","w","nw","h","h",1,0.628319687442854,NA,NA,NA
"experimental",5,24,"hd","lower","mineluyer","nw","nw","h","h",1,0.874385993520264,NA,NA,NA
"experimental",5,25,"hd","lower","halents","nw","nw","h","h",1,0.614461417950224,NA,NA,NA
"experimental",5,26,"hd","lower","podes","nw","nw","h","h",1,0.549313745723339,NA,NA,NA
"experimental",5,27,"hd","lower","sponto","nw","nw","h","h",1,0.518662931150175,NA,NA,NA
"experimental",5,28,"hd","lower","paying","nw","w","g","g",1,0.53671221890545,NA,NA,NA
"experimental",5,29,"hd","lower","minister","w","w","g","g",1,0.506144502942334,NA,NA,NA
"experimental",5,30,"hd","lower","shimble","w","nw","h","h",1,0.755959517438896,NA,NA,NA
"experimental",6,1,"ld","upper","deeper","w","w","g","g",1,0.476918283646228,NA,NA,NA
"experimental",6,2,"ld","upper","chappef","nw","nw","h","h",1,0.489007313721231,NA,NA,NA
"experimental",6,3,"ld","upper","forgery","w","w","g","g",1,0.580422761529917,NA,NA,NA
"experimental",6,4,"ld","upper","bamps","nw","nw","h","g",0,0.540479467235855,NA,NA,NA
"experimental",6,5,"ld","upper","curricula","w","w","g","g",1,0.59784996828239,NA,NA,NA
"experimental",6,6,"ld","upper","fatho","nw","nw","h","h",1,0.49232364440104,NA,NA,NA
"experimental",6,7,"ld","upper","eyesight","w","w","g","g",1,0.487626088652178,NA,NA,NA
"experimental",6,8,"ld","upper","ufionize","nw","nw","h","h",1,0.595073944263277,NA,NA,NA
"experimental",6,9,"ld","upper","gerby","nw","nw","h","h",1,0.706491994278622,NA,NA,NA
"experimental",6,10,"ld","upper","absent","w","w","g","g",1,0.493231107931933,NA,NA,NA
"experimental",6,11,"ld","upper","tucker","w","w","g","h",0,1.21658748487243,NA,NA,NA
"experimental",6,12,"ld","upper","natch","nw","nw","h","h",1,0.90339503074938,NA,NA,NA
"experimental",6,13,"ld","upper","anonymous","w","w","g","g",1,0.538038155224058,NA,NA,NA
"experimental",6,14,"ld","upper","arcients","nw","nw","h","h",1,0.659448236401659,NA,NA,NA
"experimental",6,15,"ld","upper","thrapping","nw","nw","h","h",1,0.687249860435259,NA,NA,NA
"experimental",6,16,"ld","upper","burrowing","w","w","g","g",1,0.537198230013018,NA,NA,NA
"experimental",6,17,"ld","upper","gazes","w","w","g","g",1,0.604167781813885,NA,NA,NA
"experimental",6,18,"ld","upper","oginous","nw","nw","h","h",1,0.706692291772924,NA,NA,NA
"experimental",6,19,"ld","upper","warmer","w","w","g","g",1,0.581504699090146,NA,NA,NA
"experimental",6,20,"ld","upper","serfume","nw","nw","h","h",1,0.685588218853809,NA,NA,NA
"experimental",6,21,"ld","upper","selongs","nw","nw","h","h",1,0.729068998727598,NA,NA,NA
"experimental",6,22,"ld","upper","downtrund","nw","nw","h","h",1,1.09116582552087,NA,NA,NA
"experimental",6,23,"ld","upper","tycoon","w","w","g","g",1,0.702599601383554,NA,NA,NA
"experimental",6,24,"ld","upper","vibrate","w","w","g","g",1,0.505296300965711,NA,NA,NA
"experimental",6,25,"ld","upper","agony","w","w","g","g",1,0.474978543061297,NA,NA,NA
"experimental",6,26,"ld","upper","fravity","nw","nw","h","h",1,0.55913560675981,NA,NA,NA
"experimental",6,27,"ld","upper","triangle","w","w","g","g",1,0.471827085377299,NA,NA,NA
"experimental",6,28,"ld","upper","attrove","nw","nw","h","g",0,0.579913575478713,NA,NA,NA
"experimental",6,29,"ld","upper","gallon","w","w","g","g",1,0.483990275199176,NA,NA,NA
"experimental",6,30,"ld","upper","glates","nw","nw","h","h",1,0.663383668419556,NA,NA,NA
"experimental",7,1,"hd","lower","submit","w","w","g","g",1,0.539414414248313,NA,NA,NA
"experimental",7,2,"hd","lower","glapula","nw","nw","h","h",1,0.484861652090331,NA,NA,NA
"experimental",7,3,"hd","lower","matter","w","w","g","g",1,0.552232792091672,NA,NA,NA
"experimental",7,4,"hd","lower","elpired","nw","nw","h","h",1,0.536919799938914,NA,NA,NA
"experimental",7,5,"hd","lower","potatoes","w","w","g","g",1,0.466369723406387,NA,NA,NA
"experimental",7,6,"hd","lower","slooping","nw","nw","h","h",1,0.535030050959904,NA,NA,NA
"experimental",7,7,"hd","lower","marinate","w","w","g","g",1,0.408498644159408,NA,NA,NA
"experimental",7,8,"hd","lower","beartiset","nw","nw","h","h",1,0.527221428099438,NA,NA,NA
"experimental",7,9,"hd","lower","mining","w","w","g","g",1,0.433190856419969,NA,NA,NA
"experimental",7,10,"hd","lower","allained","nw","nw","h","h",1,0.518331198749365,NA,NA,NA
"experimental",7,11,"hd","lower","etcess","nw","nw","h","h",1,0.49640838909545,NA,NA,NA
"experimental",7,12,"hd","lower","bedding","w","w","g","g",1,0.691320700178039,NA,NA,NA
"experimental",7,13,"hd","lower","fracture","w","w","g","g",1,0.535189957896364,NA,NA,NA
"experimental",7,14,"hd","lower","prawls","nw","nw","h","h",1,0.528677143985988,NA,NA,NA
"experimental",7,15,"hd","lower","mebase","nw","nw","h","h",1,0.58664423362643,NA,NA,NA
"experimental",7,16,"hd","lower","dusmy","nw","nw","h","h",1,1.16208802501205,NA,NA,NA
"experimental",7,17,"hd","lower","warden","w","w","g","g",1,0.602927592670312,NA,NA,NA
"experimental",7,18,"hd","lower","calming","w","w","g","g",1,0.465625477503636,NA,NA,NA
"experimental",7,19,"hd","lower","populace","w","w","g","g",1,0.630409733916167,NA,NA,NA
"experimental",7,20,"hd","lower","contain","w","w","g","g",1,0.483468177408213,NA,NA,NA
"experimental",7,21,"hd","lower","boulder","w","w","g","g",1,0.551528274605516,NA,NA,NA
"experimental",7,22,"hd","lower","actively","w","w","g","g",1,0.464251204903121,NA,NA,NA
"experimental",7,23,"hd","lower","balign","nw","nw","h","h",1,0.509059576477739,NA,NA,NA
"experimental",7,24,"hd","lower","sodent","nw","nw","h","h",1,0.671696842342499,NA,NA,NA
"experimental",7,25,"hd","lower","ludictous","nw","nw","h","h",1,1.08389684716531,NA,NA,NA
"experimental",7,26,"hd","lower","vorm","nw","nw","h","h",1,0.607186149267363,NA,NA,NA
"experimental",7,27,"hd","lower","phraining","nw","nw","h","h",1,0.99792353209341,NA,NA,NA
"experimental",7,28,"hd","lower","lifetime","w","w","g","g",1,0.557306112561491,NA,NA,NA
"experimental",7,29,"hd","lower","reloant","nw","nw","h","h",1,0.629097040378838,NA,NA,NA
"experimental",7,30,"hd","lower","squirrel","target","target","q","g",0,0.595165319653461,NA,NA,NA
"experimental",8,1,"ld","upper","acting","w","w","g","g",1,0.754886849841569,NA,NA,NA
"experimental",8,2,"ld","upper","lonnote","nw","nw","h","h",1,0.52288109716028,NA,NA,NA
"experimental",8,3,"ld","upper","huntry","nw","nw","h","h",1,0.685028047984815,NA,NA,NA
"experimental",8,4,"ld","upper","partner","w","w","g","g",1,0.615362260097754,NA,NA,NA
"experimental",8,5,"ld","upper","alomalous","nw","nw","h","h",1,0.509378066039062,NA,NA,NA
"experimental",8,6,"ld","upper","irfirm","nw","nw","h","h",1,0.536217268876499,NA,NA,NA
"experimental",8,7,"ld","upper","comment","w","w","g","g",1,0.513645561542944,NA,NA,NA
"experimental",8,8,"ld","upper","scack","nw","nw","h","h",1,0.547615686431527,NA,NA,NA
"experimental",8,9,"ld","upper","intrude","w","w","g","g",1,0.500461351082777,NA,NA,NA
"experimental",8,10,"ld","upper","huffle","nw","nw","h","h",1,0.615823109881603,NA,NA,NA
"experimental",8,11,"ld","upper","menarthe","nw","nw","h","h",1,0.501907465921249,NA,NA,NA
"experimental",8,12,"ld","upper","persona","w","w","g","g",1,0.616701439241297,NA,NA,NA
"experimental",8,13,"ld","upper","ahead","w","w","g","g",1,0.486695450192201,NA,NA,NA
"experimental",8,14,"ld","upper","system","w","w","g","g",1,0.472506110440008,NA,NA,NA
"experimental",8,15,"ld","upper","rawhide","w","w","g","g",1,0.699936803372111,NA,NA,NA
"experimental",8,16,"ld","upper","runabouk","nw","nw","h","h",1,0.639280761184637,NA,NA,NA
"experimental",8,17,"ld","upper","filny","nw","nw","h","h",1,0.524017992400331,NA,NA,NA
"experimental",8,18,"ld","upper","disuse","w","w","g","h",0,0.74136759628891,NA,NA,NA
"experimental",8,19,"ld","upper","vented","w","w","g","g",1,0.702237410529051,NA,NA,NA
"experimental",8,20,"ld","upper","abhorrent","w","w","g","g",1,0.616872602564399,NA,NA,NA
"experimental",8,21,"ld","upper","fillings","w","w","g","g",1,0.534963174781296,NA,NA,NA
"experimental",8,22,"ld","upper","blipover","nw","nw","h","h",1,0.848391019841074,NA,NA,NA
"experimental",8,23,"ld","upper","thaken","nw","nw","h","h",1,1.03607242563157,NA,NA,NA
"experimental",8,24,"ld","upper","student","w","w","g","g",1,0.488869257431361,NA,NA,NA
"experimental",8,25,"ld","upper","sprea","nw","nw","h","h",1,0.4838138147461,NA,NA,NA
"experimental",8,26,"ld","upper","pretzel","w","w","g","g",1,0.662977776286425,NA,NA,NA
"experimental",8,27,"ld","upper","veclors","nw","nw","h","h",1,0.563088585506193,NA,NA,NA
"experimental",8,28,"ld","upper","tenpince","nw","nw","h","g",0,0.619177182554267,NA,NA,NA
"experimental",8,29,"ld","upper","single","w","w","g","g",1,0.649236043536803,NA,NA,NA
"experimental",8,30,"ld","upper","mabit","nw","nw","h","h",1,0.621883019688539,NA,NA,NA
"experimental",9,1,"hd","lower","pegend","nw","nw","h","h",1,0.659164840253652,NA,NA,NA
"experimental",9,2,"hd","lower","gettle","nw","nw","h","h",1,0.559199503317359,NA,NA,NA
"experimental",9,3,"hd","lower","clooped","nw","nw","h","h",1,0.599261651819688,NA,NA,NA
"experimental",9,4,"hd","lower","regiment","w","w","g","g",1,0.598024442297174,NA,NA,NA
"experimental",9,5,"hd","lower","chone","nw","nw","h","h",1,0.580842558600125,NA,NA,NA
"experimental",9,6,"hd","lower","whirlpool","w","w","g","g",1,0.508235542627517,NA,NA,NA
"experimental",9,7,"hd","lower","potter","w","w","g","h",0,0.454310820714454,NA,NA,NA
"experimental",9,8,"hd","lower","telecast","w","w","g","g",1,0.577391151266056,NA,NA,NA
"experimental",9,9,"hd","lower","esdings","nw","nw","h","h",1,0.600746501877438,NA,NA,NA
"experimental",9,10,"hd","lower","prohibit","w","w","g","g",1,0.599566567514557,NA,NA,NA
"experimental",9,11,"hd","lower","demise","w","w","g","g",1,0.574252274251194,NA,NA,NA
"experimental",9,12,"hd","lower","schides","nw","nw","h","h",1,0.645657174158259,NA,NA,NA
"experimental",9,13,"hd","lower","paranoid","w","w","g","g",1,0.506391812421498,NA,NA,NA
"experimental",9,14,"hd","lower","gorilla","target","target","q","g",0,0.500561996421311,NA,NA,NA
"experimental",9,15,"hd","lower","argue","aftertar1","w","g","g",1,0.559176659458899,NA,NA,NA
"experimental",9,16,"hd","lower","mustled","aftertar2","nw","h","g",0,0.550400649342919,NA,NA,NA
"experimental",9,17,"hd","lower","handle","aftertar3","w","g","g",1,0.567220342200017,NA,NA,NA
"experimental",9,18,"hd","lower","welayed","w","nw","h","h",1,0.727018680699985,NA,NA,NA
"experimental",9,19,"hd","lower","bloodless","nw","w","g","g",1,0.600528657669201,NA,NA,NA
"experimental",9,20,"hd","lower","rarren","w","nw","h","h",1,0.599283502466278,NA,NA,NA
"experimental",9,21,"hd","lower","scrooner","nw","nw","h","h",1,0.709961610467872,NA,NA,NA
"experimental",9,22,"hd","lower","horks","nw","nw","h","h",1,0.520077594308532,NA,NA,NA
"experimental",9,23,"hd","lower","rantho","nw","nw","h","h",1,0.465438422805164,NA,NA,NA
"experimental",9,24,"hd","lower","upstairs","nw","w","g","g",1,0.565428590009105,NA,NA,NA
"experimental",9,25,"hd","lower","eaglot","w","nw","h","h",1,0.661550863529555,NA,NA,NA
"experimental",9,26,"hd","lower","loached","nw","nw","h","h",1,0.745617876134929,NA,NA,NA
"experimental",9,27,"hd","lower","despise","nw","w","g","g",1,0.521316790254787,NA,NA,NA
"experimental",9,28,"hd","lower","anterior","w","w","g","g",1,0.562695605112822,NA,NA,NA
"experimental",9,29,"hd","lower","itself","w","w","g","g",1,0.498706678772578,NA,NA,NA
"experimental",9,30,"hd","lower","official","w","w","g","g",1,0.468981536585488,NA,NA,NA
"experimental",10,1,"ld","upper","phambled","nw","nw","h","h",1,0.601970137518947,NA,NA,NA
"experimental",10,2,"ld","upper","monopoly","w","w","g","g",1,0.584674696714501,NA,NA,NA
"experimental",10,3,"ld","upper","exit","w","w","g","g",1,0.599058374689776,NA,NA,NA
"experimental",10,4,"ld","upper","swatches","w","w","g","g",1,0.541784215078223,NA,NA,NA
"experimental",10,5,"ld","upper","cooray","nw","nw","h","h",1,0.542554615545669,NA,NA,NA
"experimental",10,6,"ld","upper","forgive","w","w","g","g",1,0.527256852627033,NA,NA,NA
"experimental",10,7,"ld","upper","uncorked","w","w","g","g",1,0.544664526241831,NA,NA,NA
"experimental",10,8,"ld","upper","pranny","nw","nw","h","h",1,0.553449144179467,NA,NA,NA
"experimental",10,9,"ld","upper","cheathe","nw","nw","h","h",1,0.593515596614452,NA,NA,NA
"experimental",10,10,"ld","upper","arrigns","nw","nw","h","g",0,0.528208679592353,NA,NA,NA
"experimental",10,11,"ld","upper","hangar","w","w","g","g",1,0.63377671832859,NA,NA,NA
"experimental",10,12,"ld","upper","vintnel","nw","nw","h","h",1,0.502033272612607,NA,NA,NA
"experimental",10,13,"ld","upper","rational","w","w","g","g",1,0.536766183344298,NA,NA,NA
"experimental",10,14,"ld","upper","prillway","nw","nw","h","h",1,0.609555287956027,NA,NA,NA
"experimental",10,15,"ld","upper","collute","nw","nw","h","h",1,0.495562173542567,NA,NA,NA
"experimental",10,16,"ld","upper","omission","w","w","g","g",1,0.56224236995331,NA,NA,NA
"experimental",10,17,"ld","upper","flougy","nw","nw","h","h",1,0.554423152847448,NA,NA,NA
"experimental",10,18,"ld","upper","hostade","nw","nw","h","h",1,0.514477541073575,NA,NA,NA
"experimental",10,19,"ld","upper","decantel","nw","nw","h","h",1,0.756557430315297,NA,NA,NA
"experimental",10,20,"ld","upper","athcan","nw","nw","h","h",1,0.564577739482047,NA,NA,NA
"experimental",10,21,"ld","upper","sopes","nw","nw","h","h",1,0.524623519871966,NA,NA,NA
"experimental",10,22,"ld","upper","arrow","w","w","g","g",1,0.477100703341421,NA,NA,NA
"experimental",10,23,"ld","upper","erlighten","nw","nw","h","h",1,0.456343260972062,NA,NA,NA
"experimental",10,24,"ld","upper","hustle","w","w","g","g",1,0.532453331237775,NA,NA,NA
"experimental",10,25,"ld","upper","stretches","w","w","g","g",1,0.517928286266397,NA,NA,NA
"experimental",10,26,"ld","upper","patio","w","w","g","g",1,0.583922174046165,NA,NA,NA
"experimental",10,27,"ld","upper","greft","nw","nw","h","h",1,0.551345523825148,NA,NA,NA
"experimental",10,28,"ld","upper","threaded","w","w","g","g",1,0.504073658550624,NA,NA,NA
"experimental",10,29,"ld","upper","achieve","w","w","g","g",1,0.562166554867872,NA,NA,NA
"experimental",10,30,"ld","upper","enacted","w","w","g","g",1,0.610247886899742,NA,NA,NA
"experimental",11,1,"ld","upper","trooper","w","w","g","g",1,0.784378587486572,NA,NA,NA
"experimental",11,2,"ld","upper","inforl","nw","nw","h","h",1,0.615789671777748,NA,NA,NA
"experimental",11,3,"ld","upper","neuran","nw","nw","h","g",0,0.669639571817243,NA,NA,NA
"experimental",11,4,"ld","upper","strenuous","w","w","g","g",1,0.608874938596273,NA,NA,NA
"experimental",11,5,"ld","upper","expensive","w","w","g","g",1,0.510872186074266,NA,NA,NA
"experimental",11,6,"ld","upper","tiery","nw","nw","h","h",1,0.63983894562989,NA,NA,NA
"experimental",11,7,"ld","upper","spaceship","w","w","g","g",1,0.50050968733558,NA,NA,NA
"experimental",11,8,"ld","upper","lightels","nw","nw","h","h",1,0.519053594034631,NA,NA,NA
"experimental",11,9,"ld","upper","dredigest","nw","nw","h","h",1,0.489183774159756,NA,NA,NA
"experimental",11,10,"ld","upper","become","w","w","g","g",1,0.5637149704271,NA,NA,NA
"experimental",11,11,"ld","upper","frigs","nw","nw","h","h",1,0.531614730294677,NA,NA,NA
"experimental",11,12,"ld","upper","apticle","nw","nw","h","h",1,0.501054960026522,NA,NA,NA
"experimental",11,13,"ld","upper","pircus","nw","nw","h","h",1,0.503631017621956,NA,NA,NA
"experimental",11,14,"ld","upper","casino","w","w","g","g",1,0.537610412473441,NA,NA,NA
"experimental",11,15,"ld","upper","childhood","w","w","g","g",1,0.490325304388534,NA,NA,NA
"experimental",11,16,"ld","upper","earterner","nw","nw","h","h",1,0.653176772684674,NA,NA,NA
"experimental",11,17,"ld","upper","explosion","w","w","g","g",1,0.456110187515151,NA,NA,NA
"experimental",11,18,"ld","upper","brongs","nw","nw","h","h",1,0.492178304557456,NA,NA,NA
"experimental",11,19,"ld","upper","mystery","w","w","g","g",1,0.551102849334711,NA,NA,NA
"experimental",11,20,"ld","upper","turning","w","w","g","g",1,0.56777157416218,NA,NA,NA
"experimental",11,21,"ld","upper","dominion","w","w","g","g",1,0.511756805790355,NA,NA,NA
"experimental",11,22,"ld","upper","slending","nw","nw","h","g",0,0.497841261138092,NA,NA,NA
"experimental",11,23,"ld","upper","unburnid","nw","nw","h","h",1,0.612559750443324,NA,NA,NA
"experimental",11,24,"ld","upper","uncle","w","w","g","g",1,0.498704692334286,NA,NA,NA
"experimental",11,25,"ld","upper","chicken","target","target","q","g",0,0.445456346948049,NA,NA,NA
"experimental",11,26,"ld","upper","crundle","aftertar1","nw","h","h",1,0.850214554768172,NA,NA,NA
"experimental",11,27,"ld","upper","unmarked","aftertar2","w","g","g",1,0.597921810534899,NA,NA,NA
"experimental",11,28,"ld","upper","preserve","aftertar3","w","g","g",1,0.532775793646579,NA,NA,NA
"experimental",11,29,"ld","upper","graiking","w","nw","h","h",1,0.566186078751343,NA,NA,NA
"experimental",11,30,"ld","upper","reddar","nw","nw","h","h",1,0.806140165921533,NA,NA,NA
"experimental",12,1,"ld","upper","aviation","w","w","g","g",1,0.596776638543815,NA,NA,NA
"experimental",12,2,"ld","upper","ebuating","nw","nw","h","h",1,0.578503878365154,NA,NA,NA
"experimental",12,3,"ld","upper","rationale","w","w","g","g",1,0.53787725509028,NA,NA,NA
"experimental",12,4,"ld","upper","reborn","w","w","g","g",1,0.562611513290904,NA,NA,NA
"experimental",12,5,"ld","upper","urique","nw","nw","h","h",1,0.602730274797068,NA,NA,NA
"experimental",12,6,"ld","upper","pallir","nw","nw","h","h",1,0.480782866638037,NA,NA,NA
"experimental",12,7,"ld","upper","armada","w","w","g","h",0,0.508150126508554,NA,NA,NA
"experimental",12,8,"ld","upper","incorrect","w","w","g","g",1,0.454207857867004,NA,NA,NA
"experimental",12,9,"ld","upper","ucility","nw","nw","h","h",1,0.434330069139833,NA,NA,NA
"experimental",12,10,"ld","upper","undertake","w","w","g","g",1,0.463601645067683,NA,NA,NA
"experimental",12,11,"ld","upper","flicking","w","w","g","g",1,0.466801439004485,NA,NA,NA
"experimental",12,12,"ld","upper","ilcurring","nw","nw","h","h",1,0.470688865854754,NA,NA,NA
"experimental",12,13,"ld","upper","collision","w","w","g","g",1,0.434148311571334,NA,NA,NA
"experimental",12,14,"ld","upper","reason","w","w","g","g",1,0.469736707833363,NA,NA,NA
"experimental",12,15,"ld","upper","zears","nw","nw","h","h",1,0.514941701563657,NA,NA,NA
"experimental",12,16,"ld","upper","numbled","nw","nw","h","h",1,1.02904446642788,NA,NA,NA
"experimental",12,17,"ld","upper","bettled","nw","nw","h","h",1,0.498383223137353,NA,NA,NA
"experimental",12,18,"ld","upper","contact","w","w","g","g",1,0.46918348944746,NA,NA,NA
"experimental",12,19,"ld","upper","planar","w","w","g","h",0,0.433320304888184,NA,NA,NA
"experimental",12,20,"ld","upper","peahem","nw","nw","h","h",1,0.590712755889399,NA,NA,NA
"experimental",12,21,"ld","upper","shillac","nw","nw","h","h",1,0.508520594099537,NA,NA,NA
"experimental",12,22,"ld","upper","razelle","nw","nw","h","h",1,0.542535082407994,NA,NA,NA
"experimental",12,23,"ld","upper","fuhrek","nw","nw","h","h",1,0.495277453141171,NA,NA,NA
"experimental",12,24,"ld","upper","bypassed","w","w","g","g",1,0.538049080540077,NA,NA,NA
"experimental",12,25,"ld","upper","finish","w","w","g","g",1,0.506730166205671,NA,NA,NA
"experimental",12,26,"ld","upper","germeated","nw","nw","h","h",1,1.30101569510589,NA,NA,NA
"experimental",12,27,"ld","upper","hubris","w","w","g","g",1,0.551587205118267,NA,NA,NA
"experimental",12,28,"ld","upper","fards","nw","nw","h","h",1,0.496305095191929,NA,NA,NA
"experimental",12,29,"ld","upper","igiom","nw","nw","h","h",1,0.483092081616633,NA,NA,NA
"experimental",12,30,"ld","upper","slightly","w","w","g","h",0,0.550559563052957,NA,NA,NA
"experimental",13,1,"hd","lower","embrace","w","w","g","g",1,0.590236014730181,NA,NA,NA
"experimental",13,2,"hd","lower","efcorted","nw","nw","h","h",1,0.508979126403574,NA,NA,NA
"experimental",13,3,"hd","lower","miability","nw","nw","h","h",1,0.606699144933373,NA,NA,NA
"experimental",13,4,"hd","lower","oppose","w","w","g","g",1,0.444815726019442,NA,NA,NA
"experimental",13,5,"hd","lower","region","w","w","g","g",1,0.489487365572131,NA,NA,NA
"experimental",13,6,"hd","lower","dehydrate","w","w","g","g",1,0.53926808120741,NA,NA,NA
"experimental",13,7,"hd","lower","foster","w","w","g","g",1,0.540034508827375,NA,NA,NA
"experimental",13,8,"hd","lower","fisco","nw","nw","h","g",0,0.548693982229452,NA,NA,NA
"experimental",13,9,"hd","lower","burning","w","w","g","g",1,0.445528851341805,NA,NA,NA
"experimental",13,10,"hd","lower","coyote","target","target","q","g",0,0.538250702331425,NA,NA,NA
"experimental",13,11,"hd","lower","harder","aftertar1","w","g","g",1,0.434904144945904,NA,NA,NA
"experimental",13,12,"hd","lower","gelfry","aftertar2","nw","h","h",1,0.528406659592292,NA,NA,NA
"experimental",13,13,"hd","lower","edasion","aftertar3","nw","h","h",1,0.617770465076319,NA,NA,NA
"experimental",13,14,"hd","lower","professor","nw","w","g","g",1,0.527752464797231,NA,NA,NA
"experimental",13,15,"hd","lower","sullen","w","w","g","g",1,0.553301155785448,NA,NA,NA
"experimental",13,16,"hd","lower","begut","w","nw","h","h",1,0.824307645758381,NA,NA,NA
"experimental",13,17,"hd","lower","veranpah","nw","nw","h","h",1,0.541353161621373,NA,NA,NA
"experimental",13,18,"hd","lower","kilotin","nw","nw","h","h",1,0.486085949858534,NA,NA,NA
"experimental",13,19,"hd","lower","louches","nw","nw","h","h",1,0.608815014871652,NA,NA,NA
"experimental",13,20,"hd","lower","latter","nw","w","g","g",1,0.60692493483657,NA,NA,NA
"experimental",13,21,"hd","lower","funtair","w","nw","h","h",1,0.596994813837227,NA,NA,NA
"experimental",13,22,"hd","lower","ements","nw","nw","h","h",1,0.603736728357035,NA,NA,NA
"experimental",13,23,"hd","lower","stuggard","nw","nw","h","h",1,0.593809586993302,NA,NA,NA
"experimental",13,24,"hd","lower","reconcile","nw","w","g","g",1,0.583664601392229,NA,NA,NA
"experimental",13,25,"hd","lower","derived","w","w","g","g",1,0.543911341417697,NA,NA,NA
"experimental",13,26,"hd","lower","bullet","w","w","g","g",1,0.503752520409762,NA,NA,NA
"experimental",13,27,"hd","lower","labitable","w","nw","h","h",1,0.737727809988428,NA,NA,NA
"experimental",13,28,"hd","lower","houted","nw","nw","h","h",1,0.586472077076905,NA,NA,NA
"experimental",13,29,"hd","lower","ifling","nw","nw","h","h",1,0.504900009880657,NA,NA,NA
"experimental",13,30,"hd","lower","crazy","nw","w","g","g",1,0.522963533658185,NA,NA,NA
"experimental",14,1,"hd","lower","tredits","nw","nw","h","h",1,0.66840136909741,NA,NA,NA
"experimental",14,2,"hd","lower","plapping","nw","nw","h","h",1,0.615411258491804,NA,NA,NA
"experimental",14,3,"hd","lower","ralliep","nw","nw","h","h",1,0.47775556029228,NA,NA,NA
"experimental",14,4,"hd","lower","maiden","w","w","g","g",1,0.577112390121329,NA,NA,NA
"experimental",14,5,"hd","lower","splinging","nw","nw","h","g",0,0.552557903065463,NA,NA,NA
"experimental",14,6,"hd","lower","superstar","w","w","g","g",1,0.53665527481644,NA,NA,NA
"experimental",14,7,"hd","lower","apology","w","w","g","g",1,0.529422383115161,NA,NA,NA
"experimental",14,8,"hd","lower","remade","w","w","g","g",1,0.51483509693935,NA,NA,NA
"experimental",14,9,"hd","lower","trises","nw","nw","h","h",1,0.844951862105518,NA,NA,NA
"experimental",14,10,"hd","lower","senior","w","w","g","g",1,0.536761548355571,NA,NA,NA
"experimental",14,11,"hd","lower","scrobby","nw","nw","h","h",1,0.577434852544684,NA,NA,NA
"experimental",14,12,"hd","lower","frowsed","nw","nw","h","h",1,0.608801109934575,NA,NA,NA
"experimental",14,13,"hd","lower","holdup","w","w","g","g",1,0.638853680575266,NA,NA,NA
"experimental",14,14,"hd","lower","publish","w","w","g","g",1,0.547626280676923,NA,NA,NA
"experimental",14,15,"hd","lower","unlined","w","w","g","g",1,0.764366384231835,NA,NA,NA
"experimental",14,16,"hd","lower","greakable","nw","nw","h","h",1,0.612367398643983,NA,NA,NA
"experimental",14,17,"hd","lower","elormity","nw","nw","h","h",1,0.554372499100282,NA,NA,NA
"experimental",14,18,"hd","lower","advantage","w","w","g","g",1,0.490445482879295,NA,NA,NA
"experimental",14,19,"hd","lower","tyena","nw","nw","h","h",1,0.50918869387533,NA,NA,NA
"experimental",14,20,"hd","lower","erithets","nw","nw","h","h",1,0.54323662025854,NA,NA,NA
"experimental",14,21,"hd","lower","pollute","w","w","g","g",1,0.566949526735698,NA,NA,NA
"experimental",14,22,"hd","lower","thacked","nw","nw","h","h",1,0.807021143846214,NA,NA,NA
"experimental",14,23,"hd","lower","etber","nw","nw","h","h",1,0.525203554949258,NA,NA,NA
"experimental",14,24,"hd","lower","duplex","w","w","g","g",1,0.646546428848524,NA,NA,NA
"experimental",14,25,"hd","lower","undue","w","w","g","g",1,0.603223238402279,NA,NA,NA
"experimental",14,26,"hd","lower","coupling","w","w","g","g",1,0.513321774851647,NA,NA,NA
"experimental",14,27,"hd","lower","mullet","w","w","g","g",1,0.539328998129349,NA,NA,NA
"experimental",14,28,"hd","lower","rangel","nw","nw","h","h",1,0.644051152397878,NA,NA,NA
"experimental",14,29,"hd","lower","rejoiced","w","w","g","g",1,0.576729672917281,NA,NA,NA
"experimental",14,30,"hd","lower","otiates","nw","nw","h","h",1,1.03119675410562,NA,NA,NA
"experimental",15,1,"hd","lower","caloric","w","w","g","g",1,0.636929169224459,NA,NA,NA
"experimental",15,2,"hd","lower","volition","w","w","g","g",1,0.609741018357454,NA,NA,NA
"experimental",15,3,"hd","lower","thesis","w","w","g","g",1,0.527789544663392,NA,NA,NA
"experimental",15,4,"hd","lower","legalosm","nw","nw","h","h",1,0.776297824879293,NA,NA,NA
"experimental",15,5,"hd","lower","deceit","w","w","g","g",1,0.575630188628566,NA,NA,NA
"experimental",15,6,"hd","lower","geborn","nw","nw","h","h",1,0.527024772381992,NA,NA,NA
"experimental",15,7,"hd","lower","index","w","w","g","g",1,0.512442121194908,NA,NA,NA
"experimental",15,8,"hd","lower","retain","w","w","g","g",1,0.490489515228546,NA,NA,NA
"experimental",15,9,"hd","lower","define","w","w","g","g",1,0.541203186803614,NA,NA,NA
"experimental",15,10,"hd","lower","hanling","nw","nw","h","h",1,0.574006289069075,NA,NA,NA
"experimental",15,11,"hd","lower","doads","nw","nw","h","h",1,0.645380399437272,NA,NA,NA
"experimental",15,12,"hd","lower","appain","nw","nw","h","h",1,0.826092776522273,NA,NA,NA
"experimental",15,13,"hd","lower","opert","nw","nw","h","h",1,0.598607125954004,NA,NA,NA
"experimental",15,14,"hd","lower","disperse","w","w","g","g",1,0.613268240776961,NA,NA,NA
"experimental",15,15,"hd","lower","airline","w","w","g","g",1,0.491240382543765,NA,NA,NA
"experimental",15,16,"hd","lower","outset","w","w","g","g",1,0.518053430816508,NA,NA,NA
"experimental",15,17,"hd","lower","accessory","w","w","g","g",1,0.535437267375528,NA,NA,NA
"experimental",15,18,"hd","lower","capobly","nw","nw","h","h",1,0.600220431253547,NA,NA,NA
"experimental",15,19,"hd","lower","donastic","nw","nw","h","h",1,1.12696246497217,NA,NA,NA
"experimental",15,20,"hd","lower","forecast","w","w","g","g",1,0.688370533214766,NA,NA,NA
"experimental",15,21,"hd","lower","ascending","w","w","g","g",1,0.61904045054689,NA,NA,NA
"experimental",15,22,"hd","lower","ladybug","target","target","q","q",1,0.776494811696466,1,NA,NA
"experimental",15,23,"hd","lower","splum","aftertar1","nw","h","h",1,0.702840289435699,NA,NA,NA
"experimental",15,24,"hd","lower","dazid","aftertar2","nw","h","g",0,0.560853199203848,NA,NA,NA
"experimental",15,25,"hd","lower","alber","aftertar3","nw","h","h",1,0.864706492706318,NA,NA,NA
"experimental",15,26,"hd","lower","dests","nw","nw","h","h",1,0.589045817192527,NA,NA,NA
"experimental",15,27,"hd","lower","emission","nw","w","g","g",1,0.571871879175887,NA,NA,NA
"experimental",15,28,"hd","lower","grested","w","nw","h","h",1,0.595210014129407,NA,NA,NA
"experimental",15,29,"hd","lower","frose","nw","nw","h","h",1,0.633906166796805,NA,NA,NA
"experimental",15,30,"hd","lower","trecious","nw","nw","h","h",1,0.598751141500543,NA,NA,NA
"experimental",16,1,"ld","upper","fetching","w","w","g","g",1,0.917685346925282,NA,NA,NA
"experimental",16,2,"ld","upper","nelvet","nw","nw","h","h",1,0.566869738817331,NA,NA,NA
"experimental",16,3,"ld","upper","acidic","w","w","g","g",1,0.630975532956654,NA,NA,NA
"experimental",16,4,"ld","upper","rootsie","nw","nw","h","h",1,0.556367197350482,NA,NA,NA
"experimental",16,5,"ld","upper","located","w","w","g","g",1,0.500508363053086,NA,NA,NA
"experimental",16,6,"ld","upper","moral","w","w","g","g",1,0.517661443635006,NA,NA,NA
"experimental",16,7,"ld","upper","gelented","nw","nw","h","h",1,0.575841411453439,NA,NA,NA
"experimental",16,8,"ld","upper","crimb","nw","nw","h","h",1,0.662302724056644,NA,NA,NA
"experimental",16,9,"ld","upper","prama","nw","nw","h","h",1,0.506379562822985,NA,NA,NA
"experimental",16,10,"ld","upper","dricked","nw","nw","h","h",1,0.540428482418065,NA,NA,NA
"experimental",16,11,"ld","upper","criminal","w","w","g","g",1,0.517240653352928,NA,NA,NA
"experimental",16,12,"ld","upper","axis","w","w","g","g",1,0.614539550530026,NA,NA,NA
"experimental",16,13,"ld","upper","wrecber","nw","nw","h","h",1,0.52466490365623,NA,NA,NA
"experimental",16,14,"ld","upper","bumbo","nw","nw","h","h",1,0.5979608768248,NA,NA,NA
"experimental",16,15,"ld","upper","eggays","nw","nw","h","h",1,0.476696135505335,NA,NA,NA
"experimental",16,16,"ld","upper","mopping","w","w","g","g",1,0.688137790828478,NA,NA,NA
"experimental",16,17,"ld","upper","guitar","w","w","g","g",1,0.578861103174859,NA,NA,NA
"experimental",16,18,"ld","upper","gumdrep","nw","nw","h","g",0,0.625163263699505,NA,NA,NA
"experimental",16,19,"ld","upper","cayward","nw","nw","h","h",1,0.718689946472296,NA,NA,NA
"experimental",16,20,"ld","upper","destroy","w","w","g","g",1,0.672529152929201,NA,NA,NA
"experimental",16,21,"ld","upper","cookbook","w","w","g","g",1,0.604161491486593,NA,NA,NA
"experimental",16,22,"ld","upper","icepick","w","w","g","g",1,0.634261405168218,NA,NA,NA
"experimental",16,23,"ld","upper","booster","w","w","g","g",1,0.623644313411205,NA,NA,NA
"experimental",16,24,"ld","upper","gensions","nw","nw","h","h",1,0.629137099895161,NA,NA,NA
"experimental",16,25,"ld","upper","landing","w","w","g","g",1,0.762537221133243,NA,NA,NA
"experimental",16,26,"ld","upper","cobalt","w","w","g","g",1,0.59462137123046,NA,NA,NA
"experimental",16,27,"ld","upper","levels","w","w","g","g",1,0.416530408358085,NA,NA,NA
"experimental",16,28,"ld","upper","thorifies","nw","nw","h","g",0,0.566493311940576,NA,NA,NA
"experimental",16,29,"ld","upper","facienda","nw","nw","h","h",1,0.462488586897962,NA,NA,NA
"experimental",16,30,"ld","upper","retona","nw","nw","h","h",1,0.810566906206077,NA,NA,NA
"experimental",17,1,"hd","lower","walsams","nw","nw","h","h",1,0.657586959467153,NA,NA,NA
"experimental",17,2,"hd","lower","marvel","w","w","g","h",0,0.628680885070935,NA,NA,NA
"experimental",17,3,"hd","lower","ergonomic","w","w","g","g",1,0.954134525803966,NA,NA,NA
"experimental",17,4,"hd","lower","draze","nw","nw","h","h",1,0.570182427705731,NA,NA,NA
"experimental",17,5,"hd","lower","currowing","nw","nw","h","h",1,0.721553704104736,NA,NA,NA
"experimental",17,6,"hd","lower","column","w","w","g","g",1,0.627023216351517,NA,NA,NA
"experimental",17,7,"hd","lower","joses","nw","nw","h","h",1,0.584422090105363,NA,NA,NA
"experimental",17,8,"hd","lower","knowledge","w","w","g","g",1,0.543066450161859,NA,NA,NA
"experimental",17,9,"hd","lower","hecture","nw","nw","h","h",1,0.511771703953855,NA,NA,NA
"experimental",17,10,"hd","lower","giraffe","target","target","q","g",0,0.61785852976027,NA,NA,NA
"experimental",17,11,"hd","lower","lavilion","aftertar1","nw","h","h",1,0.96653244443587,NA,NA,NA
"experimental",17,12,"hd","lower","airbis","aftertar2","nw","h","h",1,0.662354371030233,NA,NA,NA
"experimental",17,13,"hd","lower","audience","aftertar3","w","g","g",1,0.610430306624039,NA,NA,NA
"experimental",17,14,"hd","lower","plartly","w","nw","h","h",1,0.647976321255555,NA,NA,NA
"experimental",17,15,"hd","lower","preight","nw","nw","h","h",1,0.59729608775524,NA,NA,NA
"experimental",17,16,"hd","lower","ghists","nw","nw","h","h",1,0.539933863474289,NA,NA,NA
"experimental",17,17,"hd","lower","imotope","nw","nw","h","h",1,0.524672187209944,NA,NA,NA
"experimental",17,18,"hd","lower","grummer","nw","nw","h","h",1,0.58211386835319,NA,NA,NA
"experimental",17,19,"hd","lower","awful","nw","w","g","g",1,0.509604187027435,NA,NA,NA
"experimental",17,20,"hd","lower","plashed","w","nw","h","h",1,0.551639514203998,NA,NA,NA
"experimental",17,21,"hd","lower","cabinet","nw","w","g","g",1,0.558705215429654,NA,NA,NA
"experimental",17,22,"hd","lower","sequence","w","w","g","g",1,0.638775879066088,NA,NA,NA
"experimental",17,23,"hd","lower","scarlet","w","w","g","g",1,0.643549912041635,NA,NA,NA
"experimental",17,24,"hd","lower","shamrock","w","w","g","g",1,0.656304393312894,NA,NA,NA
"experimental",17,25,"hd","lower","amkles","w","nw","h","h",1,0.724379388688249,NA,NA,NA
"experimental",17,26,"hd","lower","surdens","nw","nw","h","h",1,0.5657927673019,NA,NA,NA
"experimental",17,27,"hd","lower","rapport","nw","w","g","h",0,0.565882818395039,NA,NA,NA
"experimental",17,28,"hd","lower","rudder","w","w","g","h",0,0.589873823875678,NA,NA,NA
"experimental",17,29,"hd","lower","urgency","w","w","g","g",1,0.63662226710585,NA,NA,NA
"experimental",17,30,"hd","lower","dentures","w","w","g","g",1,0.66442687077506,NA,NA,NA
"experimental",18,1,"ld","upper","noblest","w","w","g","g",1,0.853412693351856,NA,NA,NA
"experimental",18,2,"ld","upper","observer","w","w","g","g",1,0.449534139188472,NA,NA,NA
"experimental",18,3,"ld","upper","phonology","w","w","g","g",1,0.550141752406489,NA,NA,NA
"experimental",18,4,"ld","upper","farochial","nw","nw","h","h",1,0.621974395078723,NA,NA,NA
"experimental",18,5,"ld","upper","dialect","w","w","g","g",1,0.595333834397024,NA,NA,NA
"experimental",18,6,"ld","upper","hegacy","nw","nw","h","h",1,0.617997248191386,NA,NA,NA
"experimental",18,7,"ld","upper","attended","w","w","g","g",1,0.519371752539882,NA,NA,NA
"experimental",18,8,"ld","upper","kraums","nw","nw","h","h",1,0.936856300671934,NA,NA,NA
"experimental",18,9,"ld","upper","servant","w","w","g","g",1,0.69757892107009,NA,NA,NA
"experimental",18,10,"ld","upper","staircase","w","w","g","g",1,0.572331404677243,NA,NA,NA
"experimental",18,11,"ld","upper","presence","w","w","g","g",1,0.675848794315243,NA,NA,NA
"experimental",18,12,"ld","upper","managed","w","w","g","g",1,0.575168676688918,NA,NA,NA
"experimental",18,13,"ld","upper","fallint","nw","nw","h","h",1,0.630580235098023,NA,NA,NA
"experimental",18,14,"ld","upper","atch","nw","nw","h","h",1,0.516103758127429,NA,NA,NA
"experimental",18,15,"ld","upper","pived","nw","nw","h","h",1,0.509083413533517,NA,NA,NA
"experimental",18,16,"ld","upper","lancos","nw","nw","h","h",1,0.519193305677618,NA,NA,NA
"experimental",18,17,"ld","upper","fashing","nw","nw","h","h",1,0.568578392354539,NA,NA,NA
"experimental",18,18,"ld","upper","record","w","w","g","g",1,0.57601456118573,NA,NA,NA
"experimental",18,19,"ld","upper","corg","nw","nw","h","h",1,0.655407192942221,NA,NA,NA
"experimental",18,20,"ld","upper","flacked","nw","nw","h","h",1,0.619470841877046,NA,NA,NA
"experimental",18,21,"ld","upper","ignore","w","w","g","g",1,0.576881303088157,NA,NA,NA
"experimental",18,22,"ld","upper","mantos","nw","nw","h","h",1,0.528281183971558,NA,NA,NA
"experimental",18,23,"ld","upper","markot","nw","nw","h","h",1,0.5776424335927,NA,NA,NA
"experimental",18,24,"ld","upper","inverted","w","w","g","g",1,0.672200400178554,NA,NA,NA
"experimental",18,25,"ld","upper","clattest","nw","nw","h","h",1,0.579500730891596,NA,NA,NA
"experimental",18,26,"ld","upper","racile","nw","nw","h","h",1,0.650989060493885,NA,NA,NA
"experimental",18,27,"ld","upper","oldest","w","w","g","g",1,0.559007813644712,NA,NA,NA
"experimental",18,28,"ld","upper","brank","nw","nw","h","h",1,0.671014175488381,NA,NA,NA
"experimental",18,29,"ld","upper","gymnasium","w","w","g","g",1,0.682510258760885,NA,NA,NA
"experimental",18,30,"ld","upper","restock","w","w","g","g",1,0.669759088181308,NA,NA,NA
"experimental",19,1,"hd","lower","tapling","nw","nw","h","h",1,0.561056145263137,NA,NA,NA
"experimental",19,2,"hd","lower","module","w","w","g","g",1,0.561154473136412,NA,NA,NA
"experimental",19,3,"hd","lower","doxing","nw","nw","h","h",1,0.497036429354921,NA,NA,NA
"experimental",19,4,"hd","lower","permute","w","w","g","g",1,0.699890784613672,NA,NA,NA
"experimental",19,5,"hd","lower","cavern","w","w","g","g",1,0.534687393257627,NA,NA,NA
"experimental",19,6,"hd","lower","manage","w","w","g","g",1,0.50412431229779,NA,NA,NA
"experimental",19,7,"hd","lower","violate","w","w","g","g",1,0.562839620673913,NA,NA,NA
"experimental",19,8,"hd","lower","diatonic","w","w","g","g",1,0.579026638297364,NA,NA,NA
"experimental",19,9,"hd","lower","migmarole","nw","nw","h","h",1,0.625480428992887,NA,NA,NA
"experimental",19,10,"hd","lower","curtail","w","w","g","g",1,0.574781986651942,NA,NA,NA
"experimental",19,11,"hd","lower","vivid","w","w","g","g",1,0.486228641137131,NA,NA,NA
"experimental",19,12,"hd","lower","catgup","nw","nw","h","h",1,0.712962431192864,NA,NA,NA
"experimental",19,13,"hd","lower","mitten","w","w","g","g",1,1.18706628197106,NA,NA,NA
"experimental",19,14,"hd","lower","larger","w","w","g","g",1,0.537810709982296,NA,NA,NA
"experimental",19,15,"hd","lower","ethical","w","w","g","g",1,0.530543386965292,NA,NA,NA
"experimental",19,16,"hd","lower","batire","nw","nw","h","h",1,0.555931508904905,NA,NA,NA
"experimental",19,17,"hd","lower","portify","nw","nw","h","h",1,0.588004601260764,NA,NA,NA
"experimental",19,18,"hd","lower","oleandur","nw","nw","h","h",1,0.633940267027356,NA,NA,NA
"experimental",19,19,"hd","lower","guffy","nw","nw","h","h",1,0.598496548482217,NA,NA,NA
"experimental",19,20,"hd","lower","derisury","nw","nw","h","h",1,0.55725181705202,NA,NA,NA
"experimental",19,21,"hd","lower","organize","w","w","g","g",1,0.581281226681313,NA,NA,NA
"experimental",19,22,"hd","lower","brouhuha","nw","nw","h","h",1,0.580716089752968,NA,NA,NA
"experimental",19,23,"hd","lower","aefated","nw","nw","h","h",1,0.884183024289086,NA,NA,NA
"experimental",19,24,"hd","lower","amaze","w","w","g","g",1,0.582910423370777,NA,NA,NA
"experimental",19,25,"hd","lower","treenery","nw","nw","h","h",1,0.646294484380633,NA,NA,NA
"experimental",19,26,"hd","lower","outflow","w","w","g","g",1,0.466942143859342,NA,NA,NA
"experimental",19,27,"hd","lower","purport","w","w","g","h",0,0.678996941293008,NA,NA,NA
"experimental",19,28,"hd","lower","crocodile","target","target","q","g",0,0.505397608460044,NA,NA,NA
"experimental",19,29,"hd","lower","hutting","aftertar1","nw","h","h",1,0.683454471101868,NA,NA,NA
"experimental",19,30,"hd","lower","withep","aftertar2","nw","h","h",1,0.758904718371923,NA,NA,NA
"experimental",20,1,"ld","upper","tuckel","nw","nw","h","h",1,0.711967565104715,NA,NA,NA
"experimental",20,2,"ld","upper","antwers","nw","nw","h","h",1,0.546048399875872,NA,NA,NA
"experimental",20,3,"ld","upper","fuestion","nw","nw","h","h",1,0.625781371854828,NA,NA,NA
"experimental",20,4,"ld","upper","cherry","w","w","g","g",1,0.575217012956273,NA,NA,NA
"experimental",20,5,"ld","upper","ounwit","nw","nw","h","h",1,0.526610603497829,NA,NA,NA
"experimental",20,6,"ld","upper","theles","nw","nw","h","h",1,0.536023923850735,NA,NA,NA
"experimental",20,7,"ld","upper","exploit","w","w","g","g",1,0.608784225347335,NA,NA,NA
"experimental",20,8,"ld","upper","dontrite","nw","nw","h","h",1,0.558808509347728,NA,NA,NA
"experimental",20,9,"ld","upper","daylight","w","w","g","g",1,0.614876248961082,NA,NA,NA
"experimental",20,10,"ld","upper","bureaug","nw","nw","h","h",1,0.468986502644839,NA,NA,NA
"experimental",20,11,"ld","upper","rearrange","w","w","g","g",1,0.503468131064437,NA,NA,NA
"experimental",20,12,"ld","upper","rewrite","w","w","g","g",1,0.529529318795539,NA,NA,NA
"experimental",20,13,"ld","upper","aicline","nw","nw","h","h",1,0.642804010771215,NA,NA,NA
"experimental",20,14,"ld","upper","smolvers","nw","nw","h","h",1,0.64758201657969,NA,NA,NA
"experimental",20,15,"ld","upper","static","w","w","g","g",1,0.548311596081476,NA,NA,NA
"experimental",20,16,"ld","upper","innocent","w","w","g","g",1,0.485044402870699,NA,NA,NA
"experimental",20,17,"ld","upper","heaviest","w","w","g","g",1,0.463793996896129,NA,NA,NA
"experimental",20,18,"ld","upper","unspoken","w","w","g","g",1,0.458322067846893,NA,NA,NA
"experimental",20,19,"ld","upper","sefraud","nw","nw","h","h",1,0.463903581141494,NA,NA,NA
"experimental",20,20,"ld","upper","comply","w","w","g","g",1,0.667977268109098,NA,NA,NA
"experimental",20,21,"ld","upper","ronic","nw","nw","h","h",1,0.615335443406366,NA,NA,NA
"experimental",20,22,"ld","upper","charcoal","w","w","g","g",1,0.532612576018437,NA,NA,NA
"experimental",20,23,"ld","upper","hotplate","w","w","g","g",1,0.501772389266989,NA,NA,NA
"experimental",20,24,"ld","upper","vinegar","w","w","g","g",1,0.455849304154981,NA,NA,NA
"experimental",20,25,"ld","upper","recipus","nw","nw","h","h",1,0.555926873916178,NA,NA,NA
"experimental",20,26,"ld","upper","borrent","nw","nw","h","h",1,0.507965720375068,NA,NA,NA
"experimental",20,27,"ld","upper","mamps","nw","nw","h","h",1,0.510083245666465,NA,NA,NA
"experimental",20,28,"ld","upper","seldom","w","w","g","g",1,0.544261613744311,NA,NA,NA
"experimental",20,29,"ld","upper","venturous","w","w","g","g",1,0.528854928707005,NA,NA,NA
"experimental",20,30,"ld","upper","pleamed","nw","nw","h","h",1,0.922271994117182,NA,NA,NA
"experimental",21,1,"ld","upper","tharcely","nw","nw","h","h",1,0.659159874208854,NA,NA,NA
"experimental",21,2,"ld","upper","atble","nw","nw","h","h",1,0.49513244436821,NA,NA,NA
"experimental",21,3,"ld","upper","frogmy","nw","nw","h","h",1,0.457898628985277,NA,NA,NA
"experimental",21,4,"ld","upper","massacre","w","w","g","g",1,0.542004707865999,NA,NA,NA
"experimental",21,5,"ld","upper","lentils","w","w","g","g",1,0.56671777756128,NA,NA,NA
"experimental",21,6,"ld","upper","movie","w","w","g","g",1,0.533851109823445,NA,NA,NA
"experimental",21,7,"ld","upper","butler","w","w","g","g",1,0.582741577542038,NA,NA,NA
"experimental",21,8,"ld","upper","snorls","nw","nw","h","h",1,0.605873786800657,NA,NA,NA
"experimental",21,9,"ld","upper","showdown","w","w","g","g",1,0.539992793972488,NA,NA,NA
"experimental",21,10,"ld","upper","extruded","w","w","g","g",1,0.524717212756514,NA,NA,NA
"experimental",21,11,"ld","upper","deadly","w","w","g","g",1,0.542152696260018,NA,NA,NA
"experimental",21,12,"ld","upper","grenavier","nw","nw","h","h",1,0.551011142888456,NA,NA,NA
"experimental",21,13,"ld","upper","talent","w","w","g","g",1,0.390880409860983,NA,NA,NA
"experimental",21,14,"ld","upper","bentler","nw","nw","h","h",1,0.525638581253588,NA,NA,NA
"experimental",21,15,"ld","upper","rebool","nw","nw","h","g",0,0.551099207572406,NA,NA,NA
"experimental",21,16,"ld","upper","lignpost","nw","nw","h","h",1,0.607178865713649,NA,NA,NA
"experimental",21,17,"ld","upper","tinker","w","w","g","g",1,0.716365833330201,NA,NA,NA
"experimental",21,18,"ld","upper","talate","nw","nw","h","h",1,0.614246884433669,NA,NA,NA
"experimental",21,19,"ld","upper","jaguar","target","target","q","g",0,0.612352831551107,NA,NA,NA
"experimental",21,20,"ld","upper","reprint","aftertar1","w","g","g",1,0.618358776904643,NA,NA,NA
"experimental",21,21,"ld","upper","crudios","aftertar2","nw","h","h",1,0.64770683007373,NA,NA,NA
"experimental",21,22,"ld","upper","earmaff","aftertar3","nw","h","h",1,0.668582464510109,NA,NA,NA
"experimental",21,23,"ld","upper","quickel","nw","nw","h","h",1,0.81527472511516,NA,NA,NA
"experimental",21,24,"ld","upper","eightiech","nw","nw","h","h",1,0.494716620145482,NA,NA,NA
"experimental",21,25,"ld","upper","alarm","nw","w","g","g",1,0.529465091181919,NA,NA,NA
"experimental",21,26,"ld","upper","rivet","w","w","g","g",1,0.762859352471423,NA,NA,NA
"experimental",21,27,"ld","upper","potent","w","w","g","g",1,0.545870946225477,NA,NA,NA
"experimental",21,28,"ld","upper","stifle","w","w","g","g",1,0.674724148673704,NA,NA,NA
"experimental",21,29,"ld","upper","preclude","w","w","g","g",1,0.614150542984135,NA,NA,NA
"experimental",21,30,"ld","upper","neally","w","nw","h","h",1,0.740199249383295,NA,NA,NA
"experimental",22,1,"ld","upper","dingly","nw","nw","h","h",1,0.708999851398403,NA,NA,NA
"experimental",22,2,"ld","upper","gund","nw","nw","h","h",1,0.454975940840086,NA,NA,NA
"experimental",22,3,"ld","upper","century","w","w","g","g",1,0.555077678727685,NA,NA,NA
"experimental",22,4,"ld","upper","shests","nw","nw","h","h",1,0.507271134993061,NA,NA,NA
"experimental",22,5,"ld","upper","hackal","nw","nw","h","h",1,0.789241678357939,NA,NA,NA
"experimental",22,6,"ld","upper","ottans","nw","nw","h","h",1,0.499964414630085,NA,NA,NA
"experimental",22,7,"ld","upper","noblin","nw","nw","h","h",1,0.582721382248565,NA,NA,NA
"experimental",22,8,"ld","upper","bailmenz","nw","nw","h","h",1,0.518065018273774,NA,NA,NA
"experimental",22,9,"ld","upper","egcused","nw","nw","h","h",1,0.52749654748186,NA,NA,NA
"experimental",22,10,"ld","upper","golemic","nw","nw","h","h",1,0.552854873094475,NA,NA,NA
"experimental",22,11,"ld","upper","elvisages","nw","nw","h","h",1,0.544002054666635,NA,NA,NA
"experimental",22,12,"ld","upper","dileting","nw","nw","h","h",1,0.54460725109675,NA,NA,NA
"experimental",22,13,"ld","upper","aggepting","nw","nw","h","h",1,0.593468915700214,NA,NA,NA
"experimental",22,14,"ld","upper","outrank","w","w","g","g",1,0.656073306279723,NA,NA,NA
"experimental",22,15,"ld","upper","imprives","nw","nw","h","h",1,0.60411017559818,NA,NA,NA
"experimental",22,16,"ld","upper","kettle","w","w","g","g",1,0.650246469929698,NA,NA,NA
"experimental",22,17,"ld","upper","maximized","w","w","g","g",1,0.549736191358534,NA,NA,NA
"experimental",22,18,"ld","upper","pressing","w","w","g","g",1,0.783275130350376,NA,NA,NA
"experimental",22,19,"ld","upper","maintain","w","w","g","g",1,0.511116515932372,NA,NA,NA
"experimental",22,20,"ld","upper","unbridled","w","w","g","g",1,0.537200216436759,NA,NA,NA
"experimental",22,21,"ld","upper","brials","nw","nw","h","h",1,0.688865483229165,NA,NA,NA
"experimental",22,22,"ld","upper","pepperoni","w","w","g","g",1,0.555632883537328,NA,NA,NA
"experimental",22,23,"ld","upper","stalemate","w","w","g","g",1,0.739761574513977,NA,NA,NA
"experimental",22,24,"ld","upper","resume","w","w","g","g",1,0.508578531414969,NA,NA,NA
"experimental",22,25,"ld","upper","entitle","w","w","g","g",1,0.630590167202172,NA,NA,NA
"experimental",22,26,"ld","upper","sheerio","nw","nw","h","h",1,0.59600623807637,NA,NA,NA
"experimental",22,27,"ld","upper","defeat","w","w","g","g",1,0.506740760465618,NA,NA,NA
"experimental",22,28,"ld","upper","sliding","w","w","g","g",1,0.516930440542637,NA,NA,NA
"experimental",22,29,"ld","upper","sunshine","w","w","g","g",1,0.462820319298771,NA,NA,NA
"experimental",22,30,"ld","upper","artifact","w","w","g","g",1,0.529950440148241,NA,NA,NA
"experimental",23,1,"hd","lower","carnival","w","w","g","g",1,0.564252628508257,NA,NA,NA
"experimental",23,2,"hd","lower","integral","w","w","g","g",1,0.500469627819257,NA,NA,NA
"experimental",23,3,"hd","lower","digar","nw","nw","h","h",1,0.566460204907344,NA,NA,NA
"experimental",23,4,"hd","lower","grefab","nw","nw","h","h",1,0.534498352149967,NA,NA,NA
"experimental",23,5,"hd","lower","bulmed","nw","nw","h","h",1,0.551203163631726,NA,NA,NA
"experimental",23,6,"hd","lower","asthmatic","w","w","g","h",0,0.606349203677382,NA,NA,NA
"experimental",23,7,"hd","lower","hatred","w","w","g","g",1,0.684303666290361,NA,NA,NA
"experimental",23,8,"hd","lower","sorping","nw","nw","h","h",1,0.567208423672128,NA,NA,NA
"experimental",23,9,"hd","lower","goltish","nw","nw","h","h",1,0.550638688859181,NA,NA,NA
"experimental",23,10,"hd","lower","slowning","nw","nw","h","h",1,0.734472727315733,NA,NA,NA
"experimental",23,11,"hd","lower","probable","w","w","g","g",1,0.623308608177467,NA,NA,NA
"experimental",23,12,"hd","lower","gestalion","nw","nw","h","h",1,0.684742003286374,NA,NA,NA
"experimental",23,13,"hd","lower","rocket","w","w","g","g",1,0.520081898226636,NA,NA,NA
"experimental",23,14,"hd","lower","ensues","w","w","g","g",1,0.593475868168753,NA,NA,NA
"experimental",23,15,"hd","lower","drauns","nw","nw","h","h",1,0.55928955442505,NA,NA,NA
"experimental",23,16,"hd","lower","sengry","nw","nw","h","h",1,0.551398495066678,NA,NA,NA
"experimental",23,17,"hd","lower","otoist","nw","nw","h","h",1,0.511433681225753,NA,NA,NA
"experimental",23,18,"hd","lower","lofty","w","w","g","g",1,0.673519384057727,NA,NA,NA
"experimental",23,19,"hd","lower","goblet","w","w","g","g",1,0.620909011020558,NA,NA,NA
"experimental",23,20,"hd","lower","trembla","nw","nw","h","h",1,0.618392877135193,NA,NA,NA
"experimental",23,21,"hd","lower","widely","w","w","g","g",1,0.57573778645019,NA,NA,NA
"experimental",23,22,"hd","lower","saturate","w","w","g","g",1,0.671135016120388,NA,NA,NA
"experimental",23,23,"hd","lower","erony","nw","nw","h","h",1,0.682605606983998,NA,NA,NA
"experimental",23,24,"hd","lower","envelop","w","w","g","g",1,0.581024316168623,NA,NA,NA
"experimental",23,25,"hd","lower","mitro","nw","nw","h","h",1,0.540342073087231,NA,NA,NA
"experimental",23,26,"hd","lower","penalize","w","w","g","g",1,0.645098989713006,NA,NA,NA
"experimental",23,27,"hd","lower","porcupine","target","target","q","g",0,0.585812916237046,NA,NA,NA
"experimental",23,28,"hd","lower","fission","aftertar1","w","g","g",1,1.60058858137927,NA,NA,NA
"experimental",23,29,"hd","lower","mennel","aftertar2","nw","h","h",1,0.686678433179623,NA,NA,NA
"experimental",23,30,"hd","lower","amplifier","aftertar3","w","g","g",1,0.617429793797783,NA,NA,NA
"experimental",24,1,"hd","lower","unwose","nw","nw","h","h",1,0.622044581963564,NA,NA,NA
"experimental",24,2,"hd","lower","brighten","w","w","g","g",1,0.475500640837708,NA,NA,NA
"experimental",24,3,"hd","lower","apop","nw","nw","h","h",1,0.534845313770347,NA,NA,NA
"experimental",24,4,"hd","lower","statute","w","w","g","g",1,0.559751397406217,NA,NA,NA
"experimental",24,5,"hd","lower","smallash","nw","nw","h","h",1,0.583861919250921,NA,NA,NA
"experimental",24,6,"hd","lower","poughest","nw","nw","h","h",1,0.550471498383558,NA,NA,NA
"experimental",24,7,"hd","lower","other","w","w","g","g",1,0.567193856579252,NA,NA,NA
"experimental",24,8,"hd","lower","optional","w","w","g","g",1,0.591178240661975,NA,NA,NA
"experimental",24,9,"hd","lower","clume","nw","nw","h","h",1,0.621003697116976,NA,NA,NA
"experimental",24,10,"hd","lower","defensa","nw","nw","h","h",1,0.5703943126573,NA,NA,NA
"experimental",24,11,"hd","lower","acorn","w","w","g","g",1,0.537792170041939,NA,NA,NA
"experimental",24,12,"hd","lower","cartles","nw","nw","h","h",1,0.570583684850135,NA,NA,NA
"experimental",24,13,"hd","lower","gaioty","nw","nw","h","h",1,0.546029528879444,NA,NA,NA
"experimental",24,14,"hd","lower","cills","nw","nw","h","h",1,0.618754074777826,NA,NA,NA
"experimental",24,15,"hd","lower","handed","w","w","g","g",1,0.616219732022728,NA,NA,NA
"experimental",24,16,"hd","lower","fraft","nw","nw","h","h",1,0.526243777669151,NA,NA,NA
"experimental",24,17,"hd","lower","obviously","w","w","g","g",1,0.447617904603248,NA,NA,NA
"experimental",24,18,"hd","lower","browting","nw","nw","h","h",1,0.523292948550079,NA,NA,NA
"experimental",24,19,"hd","lower","pregs","nw","nw","h","h",1,0.508730492641916,NA,NA,NA
"experimental",24,20,"hd","lower","gairs","nw","nw","h","h",1,0.486832182199578,NA,NA,NA
"experimental",24,21,"hd","lower","suburb","w","w","g","g",1,0.521560457942542,NA,NA,NA
"experimental",24,22,"hd","lower","correct","w","w","g","g",1,0.578942215390271,NA,NA,NA
"experimental",24,23,"hd","lower","duries","nw","nw","h","h",1,0.53839538001921,NA,NA,NA
"experimental",24,24,"hd","lower","forbid","w","w","g","g",1,0.531095281068701,NA,NA,NA
"experimental",24,25,"hd","lower","buzzer","w","w","g","g",1,0.652528206075658,NA,NA,NA
"experimental",24,26,"hd","lower","machinery","w","w","g","g",1,0.648568274846184,NA,NA,NA
"experimental",24,27,"hd","lower","surface","w","w","g","g",1,0.597323566587875,NA,NA,NA
"experimental",24,28,"hd","lower","bengths","nw","nw","h","h",1,0.747119610765367,NA,NA,NA
"experimental",24,29,"hd","lower","caution","w","w","g","g",1,0.507822698025848,NA,NA,NA
"experimental",24,30,"hd","lower","party","w","w","g","g",1,0.557840128880343,NA,NA,NA
"experimental",25,1,"hd","lower","unstatle","nw","nw","h","h",1,0.662860577431275,NA,NA,NA
"experimental",25,2,"hd","lower","target","w","w","g","g",1,0.490465347102145,NA,NA,NA
"experimental",25,3,"hd","lower","ulcer","w","w","g","g",1,0.653652520632022,NA,NA,NA
"experimental",25,4,"hd","lower","alticles","nw","nw","h","h",1,0.624671955461963,NA,NA,NA
"experimental",25,5,"hd","lower","traze","nw","nw","h","h",1,0.662152749238885,NA,NA,NA
"experimental",25,6,"hd","lower","togglo","nw","nw","h","h",1,0.474297531560296,NA,NA,NA
"experimental",25,7,"hd","lower","pocket","w","w","g","g",1,0.461678126928746,NA,NA,NA
"experimental",25,8,"hd","lower","amidst","w","w","g","g",1,0.665790549130179,NA,NA,NA
"experimental",25,9,"hd","lower","vergas","nw","nw","h","h",1,0.573812281887513,NA,NA,NA
"experimental",25,10,"hd","lower","fonducts","nw","nw","h","h",1,0.525217128830263,NA,NA,NA
"experimental",25,11,"hd","lower","twenties","w","w","g","g",1,0.510645402959199,NA,NA,NA
"experimental",25,12,"hd","lower","unversed","w","w","g","h",0,0.720714772105566,NA,NA,NA
"experimental",25,13,"hd","lower","surround","w","w","g","g",1,0.537117779938853,NA,NA,NA
"experimental",25,14,"hd","lower","attract","w","w","g","g",1,0.473792980497819,NA,NA,NA
"experimental",25,15,"hd","lower","usage","w","w","g","g",1,0.70932562451344,NA,NA,NA
"experimental",25,16,"hd","lower","demon","w","w","g","g",1,0.511339988341206,NA,NA,NA
"experimental",25,17,"hd","lower","baseline","w","w","g","g",1,0.537403493581223,NA,NA,NA
"experimental",25,18,"hd","lower","rabbit","target","target","q","q",1,0.554118237152579,1,NA,NA
"experimental",25,19,"hd","lower","puggers","aftertar1","nw","h","g",0,0.882166806492023,NA,NA,NA
"experimental",25,20,"hd","lower","dounger","aftertar2","nw","h","h",1,0.557599440799095,NA,NA,NA
"experimental",25,21,"hd","lower","unsmilung","aftertar3","nw","h","h",1,1.41373452011612,NA,NA,NA
"experimental",25,22,"hd","lower","ciping","nw","nw","h","h",1,0.570815102939378,NA,NA,NA
"experimental",25,23,"hd","lower","beggarlan","nw","nw","h","h",1,0.53023218094313,NA,NA,NA
"experimental",25,24,"hd","lower","blerapies","nw","nw","h","h",1,0.659645223189727,NA,NA,NA
"experimental",25,25,"hd","lower","analysis","nw","w","g","g",1,0.551601441125968,NA,NA,NA
"experimental",25,26,"hd","lower","pammed","w","nw","h","h",1,0.575655018881662,NA,NA,NA
"experimental",25,27,"hd","lower","chrik","nw","nw","h","h",1,0.511143663679832,NA,NA,NA
"experimental",25,28,"hd","lower","causality","nw","w","g","g",1,0.513091681030346,NA,NA,NA
"experimental",25,29,"hd","lower","create","w","w","g","g",1,0.547117094625719,NA,NA,NA
"experimental",25,30,"hd","lower","plymie","w","nw","h","h",1,0.507885270315455,NA,NA,NA
"experimental",26,1,"ld","upper","ounside","nw","nw","h","h",1,0.661318783284514,NA,NA,NA
"experimental",26,2,"ld","upper","image","w","w","g","g",1,0.505463160370709,NA,NA,NA
"experimental",26,3,"ld","upper","dorte","nw","nw","h","h",1,0.443515944236424,NA,NA,NA
"experimental",26,4,"ld","upper","mubby","nw","nw","h","h",1,0.504304083442548,NA,NA,NA
"experimental",26,5,"ld","upper","roodies","nw","nw","h","h",1,0.578333046127227,NA,NA,NA
"experimental",26,6,"ld","upper","bickering","w","w","g","g",1,0.577760956744896,NA,NA,NA
"experimental",26,7,"ld","upper","listless","w","w","g","g",1,0.608138638359378,NA,NA,NA
"experimental",26,8,"ld","upper","pigned","nw","nw","h","h",1,0.526177894687862,NA,NA,NA
"experimental",26,9,"ld","upper","delegate","w","w","g","g",1,0.559602415814879,NA,NA,NA
"experimental",26,10,"ld","upper","fallacy","w","w","g","g",1,0.61576980756945,NA,NA,NA
"experimental",26,11,"ld","upper","fuintets","nw","nw","h","h",1,0.509745554038091,NA,NA,NA
"experimental",26,12,"ld","upper","protest","w","w","g","g",1,0.487802549090702,NA,NA,NA
"experimental",26,13,"ld","upper","gradielts","nw","nw","h","h",1,0.506510335573694,NA,NA,NA
"experimental",26,14,"ld","upper","figure","w","w","g","g",1,0.412627090146998,NA,NA,NA
"experimental",26,15,"ld","upper","butled","nw","nw","h","h",1,0.538650635193335,NA,NA,NA
"experimental",26,16,"ld","upper","dishwater","w","w","g","g",1,0.459499684715411,NA,NA,NA
"experimental",26,17,"ld","upper","catacomb","w","w","g","g",1,0.502513324478059,NA,NA,NA
"experimental",26,18,"ld","upper","except","w","w","g","g",1,0.440531345957424,NA,NA,NA
"experimental",26,19,"ld","upper","ezulated","nw","nw","h","h",1,0.48527151705639,NA,NA,NA
"experimental",26,20,"ld","upper","culer","nw","nw","h","h",1,1.05607304142904,NA,NA,NA
"experimental",26,21,"ld","upper","abraid","nw","nw","h","h",1,0.572032117168419,NA,NA,NA
"experimental",26,22,"ld","upper","tinion","nw","nw","h","h",1,0.587462308190879,NA,NA,NA
"experimental",26,23,"ld","upper","omners","nw","nw","h","h",1,0.474225689322338,NA,NA,NA
"experimental",26,24,"ld","upper","regards","w","w","g","g",1,0.485624437933438,NA,NA,NA
"experimental",26,25,"ld","upper","peems","nw","nw","h","h",1,0.520273256828659,NA,NA,NA
"experimental",26,26,"ld","upper","reforest","w","w","g","h",0,0.721690105056041,NA,NA,NA
"experimental",26,27,"ld","upper","rascaps","nw","nw","h","h",1,0.521989856060827,NA,NA,NA
"experimental",26,28,"ld","upper","committed","w","w","g","g",1,0.507538970836322,NA,NA,NA
"experimental",26,29,"ld","upper","virulent","w","w","g","g",1,0.605536095143179,NA,NA,NA
"experimental",26,30,"ld","upper","halter","w","w","g","g",1,0.667634941477445,NA,NA,NA
"experimental",27,1,"hd","lower","hodels","nw","nw","h","h",1,0.655443279596511,NA,NA,NA
"experimental",27,2,"hd","lower","congraks","nw","nw","h","h",1,0.522531155904289,NA,NA,NA
"experimental",27,3,"hd","lower","sputter","w","w","g","g",1,0.531900774978567,NA,NA,NA
"experimental",27,4,"hd","lower","hangar","w","w","g","g",1,0.533330336314975,NA,NA,NA
"experimental",27,5,"hd","lower","owner","w","w","g","g",1,0.478704738692613,NA,NA,NA
"experimental",27,6,"hd","lower","forfeit","w","w","g","g",1,0.562046707447735,NA,NA,NA
"experimental",27,7,"hd","lower","elalt","nw","nw","h","h",1,0.722076132966322,NA,NA,NA
"experimental",27,8,"hd","lower","pripend","nw","nw","h","h",1,0.58750336090452,NA,NA,NA
"experimental",27,9,"hd","lower","combat","w","w","g","g",1,0.554216896081925,NA,NA,NA
"experimental",27,10,"hd","lower","tining","nw","nw","h","h",1,0.594342279015109,NA,NA,NA
"experimental",27,11,"hd","lower","sording","nw","nw","h","h",1,0.529068469026242,NA,NA,NA
"experimental",27,12,"hd","lower","smabled","nw","nw","h","h",1,0.625449639454018,NA,NA,NA
"experimental",27,13,"hd","lower","design","w","w","g","g",1,0.502841746158083,NA,NA,NA
"experimental",27,14,"hd","lower","shurk","nw","nw","h","h",1,0.480900065493188,NA,NA,NA
"experimental",27,15,"hd","lower","uncarled","nw","nw","h","h",1,0.60433232372452,NA,NA,NA
"experimental",27,16,"hd","lower","living","w","w","g","g",1,0.450606475729728,NA,NA,NA
"experimental",27,17,"hd","lower","infancy","w","w","g","g",1,0.55062875674048,NA,NA,NA
"experimental",27,18,"hd","lower","uncounted","w","w","g","g",1,0.502465319281328,NA,NA,NA
"experimental",27,19,"hd","lower","railroad","w","w","g","g",1,0.560637010334176,NA,NA,NA
"experimental",27,20,"hd","lower","volume","w","w","g","g",1,0.512589778518304,NA,NA,NA
"experimental",27,21,"hd","lower","temelity","nw","nw","h","h",1,0.585712601940031,NA,NA,NA
"experimental",27,22,"hd","lower","repayment","w","w","g","g",1,0.703932490185252,NA,NA,NA
"experimental",27,23,"hd","lower","elephant","target","target","q","q",1,0.803193971791188,1,NA,NA
"experimental",27,24,"hd","lower","reses","aftertar1","nw","h","h",1,0.657184709096327,NA,NA,NA
"experimental",27,25,"hd","lower","stelled","aftertar2","nw","h","g",0,0.629302635003114,NA,NA,NA
"experimental",27,26,"hd","lower","implode","aftertar3","w","g","g",1,0.546689682945726,NA,NA,NA
"experimental",27,27,"hd","lower","redefloy","w","nw","h","h",1,0.587518921209266,NA,NA,NA
"experimental",27,28,"hd","lower","bropic","nw","nw","h","h",1,0.554246030267677,NA,NA,NA
"experimental",27,29,"hd","lower","formation","nw","w","g","g",1,0.55432019001455,NA,NA,NA
"experimental",27,30,"hd","lower","grolific","w","nw","h","h",1,1.33749334602908,NA,NA,NA
"experimental",28,1,"ld","upper","subber","nw","nw","h","h",1,0.531155535863945,NA,NA,NA
"experimental",28,2,"ld","upper","gigoho","nw","nw","h","h",1,0.444509154971456,NA,NA,NA
"experimental",28,3,"ld","upper","geissue","nw","nw","h","h",1,0.617213273857487,NA,NA,NA
"experimental",28,4,"ld","upper","fassed","nw","nw","h","h",1,0.590619394090027,NA,NA,NA
"experimental",28,5,"ld","upper","admire","w","w","g","g",1,0.525405507796677,NA,NA,NA
"experimental",28,6,"ld","upper","yearnungs","nw","nw","h","h",1,0.573804667277727,NA,NA,NA
"experimental",28,7,"ld","upper","pressures","w","w","g","g",1,0.589189501682995,NA,NA,NA
"experimental",28,8,"ld","upper","favoting","nw","nw","h","h",1,0.9879718915181,NA,NA,NA
"experimental",28,9,"ld","upper","fabstand","nw","nw","h","h",1,0.610732573753921,NA,NA,NA
"experimental",28,10,"ld","upper","huests","nw","nw","h","h",1,0.568727373960428,NA,NA,NA
"experimental",28,11,"ld","upper","itfidels","nw","nw","h","h",1,0.456114491418702,NA,NA,NA
"experimental",28,12,"ld","upper","glassware","w","w","g","g",1,0.524252390139736,NA,NA,NA
"experimental",28,13,"ld","upper","resonant","w","w","g","g",1,0.525602825669921,NA,NA,NA
"experimental",28,14,"ld","upper","worps","nw","nw","h","h",1,0.494983131691697,NA,NA,NA
"experimental",28,15,"ld","upper","throttle","w","w","g","g",1,0.5137912324426,NA,NA,NA
"experimental",28,16,"ld","upper","cripet","nw","nw","h","h",1,0.538696322895703,NA,NA,NA
"experimental",28,17,"ld","upper","eugenifs","nw","nw","h","h",1,0.523178729315987,NA,NA,NA
"experimental",28,18,"ld","upper","fragment","w","w","g","g",1,0.507031771208858,NA,NA,NA
"experimental",28,19,"ld","upper","cutout","w","w","g","g",1,0.599007389871986,NA,NA,NA
"experimental",28,20,"ld","upper","divider","w","w","g","g",1,0.493782008838025,NA,NA,NA
"experimental",28,21,"ld","upper","dialogues","w","w","g","g",1,0.568479402354569,NA,NA,NA
"experimental",28,22,"ld","upper","mandlers","nw","nw","h","h",1,0.767991603439441,NA,NA,NA
"experimental",28,23,"ld","upper","walnut","w","w","g","g",1,0.503385694581084,NA,NA,NA
"experimental",28,24,"ld","upper","newstrint","nw","nw","h","h",1,0.61741357135179,NA,NA,NA
"experimental",28,25,"ld","upper","arrive","w","w","g","g",1,0.445859590501641,NA,NA,NA
"experimental",28,26,"ld","upper","ready","w","w","g","g",1,0.450758436956676,NA,NA,NA
"experimental",28,27,"ld","upper","fudden","nw","nw","h","h",1,0.502645752581884,NA,NA,NA
"experimental",28,28,"ld","upper","rainfall","w","w","g","g",1,0.432767417587456,NA,NA,NA
"experimental",28,29,"ld","upper","practice","w","w","g","g",1,0.574123156868154,NA,NA,NA
"experimental",28,30,"ld","upper","even","w","w","g","g",1,0.485503928357503,NA,NA,NA
"experimental",29,1,"hd","lower","anemic","w","w","g","g",1,0.591511959457421,NA,NA,NA
"experimental",29,2,"hd","lower","loneliest","w","w","g","g",1,0.4463773843745,NA,NA,NA
"experimental",29,3,"hd","lower","nimono","nw","nw","h","h",1,0.570998846931616,NA,NA,NA
"experimental",29,4,"hd","lower","ameld","nw","nw","h","h",1,0.56245425491943,NA,NA,NA
"experimental",29,5,"hd","lower","tibs","nw","nw","h","h",1,0.498538495070534,NA,NA,NA
"experimental",29,6,"hd","lower","gonesty","nw","nw","h","h",1,0.51721979593276,NA,NA,NA
"experimental",29,7,"hd","lower","twarfs","nw","nw","h","h",1,0.526668871869333,NA,NA,NA
"experimental",29,8,"hd","lower","expired","w","w","g","g",1,0.528059697986464,NA,NA,NA
"experimental",29,9,"hd","lower","addma","nw","nw","h","h",1,0.521389294633991,NA,NA,NA
"experimental",29,10,"hd","lower","regional","w","w","g","g",1,0.578763437457383,NA,NA,NA
"experimental",29,11,"hd","lower","presently","w","w","g","g",1,0.521182044656598,NA,NA,NA
"experimental",29,12,"hd","lower","nimp","nw","nw","h","h",1,0.539246561645996,NA,NA,NA
"experimental",29,13,"hd","lower","riosk","nw","nw","h","h",1,0.468146908504423,NA,NA,NA
"experimental",29,14,"hd","lower","legalize","w","w","g","g",1,0.463957214524271,NA,NA,NA
"experimental",29,15,"hd","lower","soluced","nw","nw","h","h",1,0.660231217523688,NA,NA,NA
"experimental",29,16,"hd","lower","olgies","nw","nw","h","h",1,0.45618004334392,NA,NA,NA
"experimental",29,17,"hd","lower","huzzles","nw","nw","h","h",1,0.56436519237468,NA,NA,NA
"experimental",29,18,"hd","lower","flamingo","target","target","q","g",0,0.54849302257935,NA,NA,NA
"experimental",29,19,"hd","lower","irregular","aftertar1","w","g","g",1,0.605240118340589,NA,NA,NA
"experimental",29,20,"hd","lower","remain","aftertar2","w","g","g",1,0.666433156467974,NA,NA,NA
"experimental",29,21,"hd","lower","couple","aftertar3","w","g","g",1,0.470290257289889,NA,NA,NA
"experimental",29,22,"hd","lower","encrusted","w","w","g","h",0,0.561732852846035,NA,NA,NA
"experimental",29,23,"hd","lower","befriend","w","w","g","g",1,0.609795976022724,NA,NA,NA
"experimental",29,24,"hd","lower","spigat","w","nw","h","h",1,0.791870045053656,NA,NA,NA
"experimental",29,25,"hd","lower","glocked","nw","nw","h","h",1,1.12663900932239,NA,NA,NA
"experimental",29,26,"hd","lower","castaway","nw","w","g","g",1,0.592061205010395,NA,NA,NA
"experimental",29,27,"hd","lower","splatter","w","w","g","g",1,0.542730082772323,NA,NA,NA
"experimental",29,28,"hd","lower","scatter","w","w","g","g",1,0.647525403561303,NA,NA,NA
"experimental",29,29,"hd","lower","nature","w","w","g","g",1,0.484373985600541,NA,NA,NA
"experimental",29,30,"hd","lower","lenie","w","nw","h","h",1,0.581932772925938,NA,NA,NA
"experimental",30,1,"ld","upper","rillains","nw","nw","h","h",1,0.5823519078549,NA,NA,NA
"experimental",30,2,"ld","upper","religious","w","w","g","g",1,0.501700215943856,NA,NA,NA
"experimental",30,3,"ld","upper","atabaster","nw","nw","h","g",0,0.703753381181741,NA,NA,NA
"experimental",30,4,"ld","upper","trewl","nw","nw","h","h",1,0.64187767621479,NA,NA,NA
"experimental",30,5,"ld","upper","airmen","w","w","g","g",1,0.517657139731455,NA,NA,NA
"experimental",30,6,"ld","upper","chight","nw","nw","h","h",1,0.599054732912919,NA,NA,NA
"experimental",30,7,"ld","upper","govern","w","w","g","g",1,0.565446467822767,NA,NA,NA
"experimental",30,8,"ld","upper","odacles","nw","nw","h","h",1,0.669635267899139,NA,NA,NA
"experimental",30,9,"ld","upper","aqueduct","w","w","g","h",0,0.984324821678456,NA,NA,NA
"experimental",30,10,"ld","upper","chiffol","nw","nw","h","h",1,0.615965801145649,NA,NA,NA
"experimental",30,11,"ld","upper","buaint","nw","nw","h","h",1,0.526028913067421,NA,NA,NA
"experimental",30,12,"ld","upper","solidity","w","w","g","g",1,0.503497596320813,NA,NA,NA
"experimental",30,13,"ld","upper","category","w","w","g","g",1,0.457553322718013,NA,NA,NA
"experimental",30,14,"ld","upper","overflow","w","w","g","g",1,0.436692586430581,NA,NA,NA
"experimental",30,15,"ld","upper","antique","w","w","g","g",1,0.449545726645738,NA,NA,NA
"experimental",30,16,"ld","upper","pender","nw","nw","h","h",1,0.670075591333443,NA,NA,NA
"experimental",30,17,"ld","upper","heuls","nw","nw","h","h",1,0.465509602916427,NA,NA,NA
"experimental",30,18,"ld","upper","churnad","nw","nw","h","h",1,0.549686530823237,NA,NA,NA
"experimental",30,19,"ld","upper","cegalia","nw","nw","h","h",1,0.526316282062908,NA,NA,NA
"experimental",30,20,"ld","upper","number","w","w","g","g",1,0.495718107646098,NA,NA,NA
"experimental",30,21,"ld","upper","blueberry","w","w","g","g",1,0.56244630922447,NA,NA,NA
"experimental",30,22,"ld","upper","miracle","w","w","g","g",1,0.530521867403877,NA,NA,NA
"experimental",30,23,"ld","upper","atsless","nw","nw","h","h",1,0.595915524827433,NA,NA,NA
"experimental",30,24,"ld","upper","sweeping","w","w","g","g",1,0.497696583435754,NA,NA,NA
"experimental",30,25,"ld","upper","oppose","w","w","g","g",1,0.860371127811959,NA,NA,NA
"experimental",30,26,"ld","upper","arrested","w","w","g","g",1,0.432418800599407,NA,NA,NA
"experimental",30,27,"ld","upper","result","w","w","g","g",1,0.453691057206015,NA,NA,NA
"experimental",30,28,"ld","upper","joadbed","nw","nw","h","h",1,0.505870707842405,NA,NA,NA
"experimental",30,29,"ld","upper","offonents","nw","nw","h","h",1,0.731903953259462,NA,NA,NA
"experimental",30,30,"ld","upper","lecked","nw","nw","h","h",1,0.461368907330325,NA,NA,NA
"experimental",31,1,"ld","upper","standard","w","w","g","g",1,0.457255028435611,NA,NA,NA
"experimental",31,2,"ld","upper","amms","nw","nw","h","h",1,0.443162030147505,NA,NA,NA
"experimental",31,3,"ld","upper","roughly","w","w","g","g",1,0.466051233830513,NA,NA,NA
"experimental",31,4,"ld","upper","emotion","w","w","g","g",1,0.454163494461682,NA,NA,NA
"experimental",31,5,"ld","upper","mortgage","w","w","g","g",1,0.570321146136848,NA,NA,NA
"experimental",31,6,"ld","upper","elpousal","nw","nw","h","h",1,0.529648504088982,NA,NA,NA
"experimental",31,7,"ld","upper","female","w","w","g","g",1,0.499067214259412,NA,NA,NA
"experimental",31,8,"ld","upper","realize","w","w","g","g",1,0.437815576719004,NA,NA,NA
"experimental",31,9,"ld","upper","frader","nw","nw","h","h",1,0.490582545957295,NA,NA,NA
"experimental",31,10,"ld","upper","finstrel","nw","nw","h","h",1,0.476320039699203,NA,NA,NA
"experimental",31,11,"ld","upper","chemical","w","w","g","g",1,0.431701040302869,NA,NA,NA
"experimental",31,12,"ld","upper","drine","nw","nw","h","h",1,0.485108961554943,NA,NA,NA
"experimental",31,13,"ld","upper","hemoter","nw","nw","h","h",1,0.48782837257022,NA,NA,NA
"experimental",31,14,"ld","upper","epthuse","nw","nw","h","h",1,0.506584164235392,NA,NA,NA
"experimental",31,15,"ld","upper","octopus","target","target","q","g",0,0.564658851682907,NA,NA,NA
"experimental",31,16,"ld","upper","ephically","aftertar1","nw","h","h",1,0.868747205066029,NA,NA,NA
"experimental",31,17,"ld","upper","baults","aftertar2","nw","h","h",1,0.464156518806703,NA,NA,NA
"experimental",31,18,"ld","upper","pester","aftertar3","w","g","h",0,0.452212828560732,NA,NA,NA
"experimental",31,19,"ld","upper","jinds","w","nw","h","h",1,0.416355603258125,NA,NA,NA
"experimental",31,20,"ld","upper","padicals","nw","nw","h","h",1,0.509297284908826,NA,NA,NA
"experimental",31,21,"ld","upper","antonym","nw","w","g","g",1,0.487411886206246,NA,NA,NA
"experimental",31,22,"ld","upper","geadpan","w","nw","h","h",1,0.514121971631539,NA,NA,NA
"experimental",31,23,"ld","upper","enunciate","nw","w","g","g",1,0.61219126926153,NA,NA,NA
"experimental",31,24,"ld","upper","lutton","w","nw","h","h",1,0.434230416998616,NA,NA,NA
"experimental",31,25,"ld","upper","moisture","nw","w","g","g",1,0.42296508968866,NA,NA,NA
"experimental",31,26,"ld","upper","peags","w","nw","h","h",1,0.540415570678306,NA,NA,NA
"experimental",31,27,"ld","upper","infusion","nw","w","g","g",1,0.461096105442266,NA,NA,NA
"experimental",31,28,"ld","upper","outfit","w","w","g","g",1,0.457141802413389,NA,NA,NA
"experimental",31,29,"ld","upper","primal","w","w","g","g",1,0.773207946258481,NA,NA,NA
"experimental",31,30,"ld","upper","dreaded","w","w","g","g",1,0.435578866119613,NA,NA,NA
"experimental",32,1,"ld","upper","brimitar","nw","nw","h","h",1,0.688657240054454,NA,NA,NA
"experimental",32,2,"ld","upper","release","w","w","g","g",1,0.443447412690148,NA,NA,NA
"experimental",32,3,"ld","upper","fomrade","nw","nw","h","h",1,0.504135568684433,NA,NA,NA
"experimental",32,4,"ld","upper","checkout","w","w","g","g",1,0.522305034930469,NA,NA,NA
"experimental",32,5,"ld","upper","garment","w","w","g","g",1,0.61070840562752,NA,NA,NA
"experimental",32,6,"ld","upper","spiud","nw","nw","h","h",1,0.648816908607841,NA,NA,NA
"experimental",32,7,"ld","upper","miurnal","nw","nw","h","h",1,0.525575346837286,NA,NA,NA
"experimental",32,8,"ld","upper","pakened","nw","nw","h","h",1,0.622923573479056,NA,NA,NA
"experimental",32,9,"ld","upper","bookend","w","w","g","h",0,0.468313436838798,NA,NA,NA
"experimental",32,10,"ld","upper","aligning","w","w","g","g",1,0.703717956668697,NA,NA,NA
"experimental",32,11,"ld","upper","rasuals","nw","nw","h","h",1,0.481778725938057,NA,NA,NA
"experimental",32,12,"ld","upper","binder","w","w","g","h",0,0.637210578948725,NA,NA,NA
"experimental",32,13,"ld","upper","vopings","nw","nw","h","h",1,0.697916612713016,NA,NA,NA
"experimental",32,14,"ld","upper","clarms","nw","nw","h","h",1,0.604657765783486,NA,NA,NA
"experimental",32,15,"ld","upper","desert","w","w","g","g",1,0.529713062787778,NA,NA,NA
"experimental",32,16,"ld","upper","vaporize","w","w","g","g",1,0.547155829844996,NA,NA,NA
"experimental",32,17,"ld","upper","usually","w","w","g","g",1,0.459857902707881,NA,NA,NA
"experimental",32,18,"ld","upper","sunhess","nw","nw","h","h",1,0.607931719452608,NA,NA,NA
"experimental",32,19,"ld","upper","snocks","nw","nw","h","h",1,0.598012192698661,NA,NA,NA
"experimental",32,20,"ld","upper","suspect","w","w","g","g",1,0.540720486373175,NA,NA,NA
"experimental",32,21,"ld","upper","culinary","w","w","g","g",1,0.525515092056594,NA,NA,NA
"experimental",32,22,"ld","upper","recount","w","w","g","g",1,0.558920080031385,NA,NA,NA
"experimental",32,23,"ld","upper","bingu","nw","nw","h","h",1,0.48694044216245,NA,NA,NA
"experimental",32,24,"ld","upper","volder","nw","nw","h","h",1,0.744744181734859,NA,NA,NA
"experimental",32,25,"ld","upper","remover","w","w","g","g",1,0.473443701383076,NA,NA,NA
"experimental",32,26,"ld","upper","saucer","w","w","g","g",1,0.452814714270062,NA,NA,NA
"experimental",32,27,"ld","upper","miteous","nw","nw","h","h",1,0.504806979137356,NA,NA,NA
"experimental",32,28,"ld","upper","butcher","w","w","g","g",1,0.547011483213282,NA,NA,NA
"experimental",32,29,"ld","upper","chyme","nw","nw","h","h",1,0.683758062528796,NA,NA,NA
"experimental",32,30,"ld","upper","ganter","nw","nw","h","h",1,0.599032551210257,NA,NA,NA
"experimental",33,1,"hd","lower","fomes","nw","nw","h","h",1,0.605169600399677,NA,NA,NA
"experimental",33,2,"hd","lower","digest","w","w","g","g",1,0.491248328238726,NA,NA,NA
"experimental",33,3,"hd","lower","hinsome","nw","nw","h","h",1,0.502081939936033,NA,NA,NA
"experimental",33,4,"hd","lower","podges","nw","nw","h","h",1,0.423387866394478,NA,NA,NA
"experimental",33,5,"hd","lower","parlayid","nw","nw","h","h",1,0.452752804136253,NA,NA,NA
"experimental",33,6,"hd","lower","arpired","nw","nw","h","h",1,0.912863639838179,NA,NA,NA
"experimental",33,7,"hd","lower","overwork","w","w","g","g",1,0.48323377968336,NA,NA,NA
"experimental",33,8,"hd","lower","engineer","w","w","g","g",1,0.518323584125028,NA,NA,NA
"experimental",33,9,"hd","lower","pexts","nw","nw","h","h",1,0.455831426370423,NA,NA,NA
"experimental",33,10,"hd","lower","sludding","nw","nw","h","h",1,0.46680474972527,NA,NA,NA
"experimental",33,11,"hd","lower","tunneg","nw","nw","h","h",1,0.382892677997006,NA,NA,NA
"experimental",33,12,"hd","lower","mestowal","nw","nw","h","h",1,0.398226858640555,NA,NA,NA
"experimental",33,13,"hd","lower","monkey","target","target","q","g",0,0.46099347366544,NA,NA,NA
"experimental",33,14,"hd","lower","gontracts","aftertar1","nw","h","h",1,0.457040494904504,NA,NA,NA
"experimental",33,15,"hd","lower","pimorous","aftertar2","nw","h","h",1,0.469123896793462,NA,NA,NA
"experimental",33,16,"hd","lower","inside","aftertar3","w","g","g",1,0.720544602008886,NA,NA,NA
"experimental",33,17,"hd","lower","adok","w","nw","h","h",1,0.545939808827825,NA,NA,NA
"experimental",33,18,"hd","lower","hasks","nw","nw","h","h",1,0.538688046130119,NA,NA,NA
"experimental",33,19,"hd","lower","computer","nw","w","g","g",1,0.651280733378371,NA,NA,NA
"experimental",33,20,"hd","lower","yellep","w","nw","h","h",1,0.542368885144242,NA,NA,NA
"experimental",33,21,"hd","lower","rander","nw","nw","h","h",1,0.575164041714743,NA,NA,NA
"experimental",33,22,"hd","lower","assent","nw","w","g","g",1,0.982609215658158,NA,NA,NA
"experimental",33,23,"hd","lower","tragedy","w","w","g","g",1,0.573916237946833,NA,NA,NA
"experimental",33,24,"hd","lower","permeable","w","w","g","g",1,0.564507883653278,NA,NA,NA
"experimental",33,25,"hd","lower","posing","w","w","g","g",1,0.549439552414697,NA,NA,NA
"experimental",33,26,"hd","lower","epic","w","w","g","g",1,0.526196103543043,NA,NA,NA
"experimental",33,27,"hd","lower","insertion","w","w","g","g",1,0.503559175383998,NA,NA,NA
"experimental",33,28,"hd","lower","serving","w","w","g","g",1,0.465634416381363,NA,NA,NA
"experimental",33,29,"hd","lower","rodeo","w","w","g","g",1,0.468792495477828,NA,NA,NA
"experimental",33,30,"hd","lower","boutique","w","w","g","g",1,0.480195548007032,NA,NA,NA
"experimental",34,1,"hd","lower","misest","nw","nw","h","h",1,0.676531130084186,NA,NA,NA
"experimental",34,2,"hd","lower","guivers","nw","nw","h","h",1,0.512009743441013,NA,NA,NA
"experimental",34,3,"hd","lower","abstain","w","w","g","g",1,0.530028903798666,NA,NA,NA
"experimental",34,4,"hd","lower","function","w","w","g","g",1,0.475486735886079,NA,NA,NA
"experimental",34,5,"hd","lower","frequency","w","w","g","g",1,0.453812559993821,NA,NA,NA
"experimental",34,6,"hd","lower","rualify","nw","nw","h","h",1,0.521813395622303,NA,NA,NA
"experimental",34,7,"hd","lower","colicky","w","w","g","h",0,0.459264293764136,NA,NA,NA
"experimental",34,8,"hd","lower","setwixt","nw","nw","h","h",1,0.607348373683635,NA,NA,NA
"experimental",34,9,"hd","lower","undimmec","nw","nw","h","h",1,0.517419431300368,NA,NA,NA
"experimental",34,10,"hd","lower","ubefully","nw","nw","h","h",1,0.486833506467519,NA,NA,NA
"experimental",34,11,"hd","lower","grieving","w","w","g","g",1,0.521582970715826,NA,NA,NA
"experimental",34,12,"hd","lower","halms","nw","nw","h","h",1,0.538945287713432,NA,NA,NA
"experimental",34,13,"hd","lower","pracking","nw","nw","h","h",1,0.627766138000879,NA,NA,NA
"experimental",34,14,"hd","lower","asclibed","nw","nw","h","h",1,0.553063778424985,NA,NA,NA
"experimental",34,15,"hd","lower","coverall","w","w","g","h",0,0.712123168108519,NA,NA,NA
"experimental",34,16,"hd","lower","emergence","w","w","g","g",1,0.514215333430911,NA,NA,NA
"experimental",34,17,"hd","lower","glamorous","w","w","g","g",1,0.476301168688224,NA,NA,NA
"experimental",34,18,"hd","lower","fidelity","w","w","g","g",1,0.567655368504347,NA,NA,NA
"experimental",34,19,"hd","lower","glating","nw","nw","h","h",1,0.598389281716663,NA,NA,NA
"experimental",34,20,"hd","lower","porghum","nw","nw","h","h",1,0.596793854187126,NA,NA,NA
"experimental",34,21,"hd","lower","flooted","nw","nw","h","h",1,0.595890363489161,NA,NA,NA
"experimental",34,22,"hd","lower","nopping","nw","nw","h","h",1,0.538594022174948,NA,NA,NA
"experimental",34,23,"hd","lower","iflaid","nw","nw","h","h",1,0.515348255823483,NA,NA,NA
"experimental",34,24,"hd","lower","entropy","w","w","g","g",1,0.548484414757695,NA,NA,NA
"experimental",34,25,"hd","lower","expounded","w","w","g","h",0,0.717223967410973,NA,NA,NA
"experimental",34,26,"hd","lower","mosary","nw","nw","h","g",0,0.598028415144654,NA,NA,NA
"experimental",34,27,"hd","lower","arranged","w","w","g","g",1,0.532796651081298,NA,NA,NA
"experimental",34,28,"hd","lower","encounter","w","w","g","g",1,0.462143611701322,NA,NA,NA
"experimental",34,29,"hd","lower","describe","w","w","g","g",1,0.482176672376227,NA,NA,NA
"experimental",34,30,"hd","lower","entertain","w","w","g","g",1,0.461608602185152,NA,NA,NA
"experimental",35,1,"hd","lower","lasprey","nw","nw","h","h",1,0.545603772523464,NA,NA,NA
"experimental",35,2,"hd","lower","summon","w","w","g","g",1,0.538350354472641,NA,NA,NA
"experimental",35,3,"hd","lower","sefine","nw","nw","h","h",1,0.635092722557602,NA,NA,NA
"experimental",35,4,"hd","lower","blassed","nw","nw","h","h",1,0.583860926053603,NA,NA,NA
"experimental",35,5,"hd","lower","mixture","w","w","g","g",1,0.478591181599768,NA,NA,NA
"experimental",35,6,"hd","lower","terming","w","w","g","h",0,0.689949407213135,NA,NA,NA
"experimental",35,7,"hd","lower","suddenly","w","w","g","g",1,0.500715281959856,NA,NA,NA
"experimental",35,8,"hd","lower","daining","nw","nw","h","h",1,0.662825152918231,NA,NA,NA
"experimental",35,9,"hd","lower","pillage","w","w","g","g",1,0.737859907007078,NA,NA,NA
"experimental",35,10,"hd","lower","egect","nw","nw","h","h",1,0.706667461505276,NA,NA,NA
"experimental",35,11,"hd","lower","obtuse","w","w","g","g",1,0.668612922978355,NA,NA,NA
"experimental",35,12,"hd","lower","wimpid","nw","nw","h","h",1,0.567992066949955,NA,NA,NA
"experimental",35,13,"hd","lower","gremieres","nw","nw","h","h",1,0.53534456770285,NA,NA,NA
"experimental",35,14,"hd","lower","mandate","w","w","g","g",1,0.559569308781647,NA,NA,NA
"experimental",35,15,"hd","lower","efficient","w","w","g","g",1,0.566761147769284,NA,NA,NA
"experimental",35,16,"hd","lower","trophy","w","w","g","g",1,0.535625977412565,NA,NA,NA
"experimental",35,17,"hd","lower","snife","nw","nw","h","h",1,0.719702028218308,NA,NA,NA
"experimental",35,18,"hd","lower","incidonts","nw","nw","h","h",1,0.664173933095299,NA,NA,NA
"experimental",35,19,"hd","lower","postal","w","w","g","g",1,0.804324907760019,NA,NA,NA
"experimental",35,20,"hd","lower","turntable","w","w","g","g",1,0.530356663351995,NA,NA,NA
"experimental",35,21,"hd","lower","oalis","nw","nw","h","h",1,0.547690839375718,NA,NA,NA
"experimental",35,22,"hd","lower","caterpillar","target","target","q","q",1,0.780469641074887,1,NA,NA
"experimental",35,23,"hd","lower","gigglod","aftertar1","nw","h","h",1,0.595834743682644,NA,NA,NA
"experimental",35,24,"hd","lower","ecistle","aftertar2","nw","h","h",1,0.650607005431084,NA,NA,NA
"experimental",35,25,"hd","lower","courier","aftertar3","w","g","g",1,0.838651264231885,NA,NA,NA
"experimental",35,26,"hd","lower","trake","w","nw","h","h",1,0.611443712637993,NA,NA,NA
"experimental",35,27,"hd","lower","jungle","nw","w","g","g",1,0.665511125829653,NA,NA,NA
"experimental",35,28,"hd","lower","bluads","w","nw","h","h",1,0.548577776571619,NA,NA,NA
"experimental",35,29,"hd","lower","happen","nw","w","g","g",1,0.55728790370631,NA,NA,NA
"experimental",35,30,"hd","lower","havel","w","nw","h","h",1,0.541342236305354,NA,NA,NA
"experimental",36,1,"ld","upper","seeming","w","w","g","g",1,0.694398660285515,NA,NA,NA
"experimental",36,2,"ld","upper","metebing","nw","nw","h","h",1,0.545180002605775,NA,NA,NA
"experimental",36,3,"ld","upper","command","w","w","g","g",1,0.512912572012283,NA,NA,NA
"experimental",36,4,"ld","upper","bellicove","nw","nw","h","h",1,0.554901549359784,NA,NA,NA
"experimental",36,5,"ld","upper","ugifies","nw","nw","h","h",1,0.746968973806361,NA,NA,NA
"experimental",36,6,"ld","upper","consonant","w","w","g","g",1,0.491676402059966,NA,NA,NA
"experimental",36,7,"ld","upper","deficit","w","w","g","g",1,0.47046837308153,NA,NA,NA
"experimental",36,8,"ld","upper","planofoad","nw","nw","h","h",1,0.513787590680295,NA,NA,NA
"experimental",36,9,"ld","upper","painter","w","w","g","g",1,0.425547106540762,NA,NA,NA
"experimental",36,10,"ld","upper","failure","w","w","g","g",1,0.537118111024029,NA,NA,NA
"experimental",36,11,"ld","upper","slooch","nw","nw","h","h",1,0.537295233589248,NA,NA,NA
"experimental",36,12,"ld","upper","seighing","nw","nw","h","h",1,0.570126145757968,NA,NA,NA
"experimental",36,13,"ld","upper","scrib","nw","nw","h","h",1,0.480528604690335,NA,NA,NA
"experimental",36,14,"ld","upper","resent","w","w","g","g",1,0.507876662479248,NA,NA,NA
"experimental",36,15,"ld","upper","shivering","w","w","g","g",1,0.469991300851689,NA,NA,NA
"experimental",36,16,"ld","upper","fuack","nw","nw","h","h",1,0.52142107738473,NA,NA,NA
"experimental",36,17,"ld","upper","detrabe","nw","nw","h","h",1,0.530855586228427,NA,NA,NA
"experimental",36,18,"ld","upper","midday","w","w","g","g",1,0.476206813676981,NA,NA,NA
"experimental",36,19,"ld","upper","contund","nw","nw","h","h",1,0.655607159380452,NA,NA,NA
"experimental",36,20,"ld","upper","coster","nw","nw","h","h",1,0.587748683959944,NA,NA,NA
"experimental",36,21,"ld","upper","clypaper","nw","nw","h","h",1,0.658436154655647,NA,NA,NA
"experimental",36,22,"ld","upper","gepealed","nw","nw","h","h",1,0.565541484960704,NA,NA,NA
"experimental",36,23,"ld","upper","intersect","w","w","g","g",1,0.445610956754535,NA,NA,NA
"experimental",36,24,"ld","upper","truthful","w","w","g","g",1,0.410264572856249,NA,NA,NA
"experimental",36,25,"ld","upper","stable","w","w","g","g",1,0.424351280817064,NA,NA,NA
"experimental",36,26,"ld","upper","colored","w","w","g","g",1,1.62973269526265,NA,NA,NA
"experimental",36,27,"ld","upper","provide","w","w","g","g",1,0.41120448129368,NA,NA,NA
"experimental",36,28,"ld","upper","blocking","w","w","g","g",1,0.593254051113036,NA,NA,NA
"experimental",36,29,"ld","upper","chesume","nw","nw","h","h",1,0.552022562478669,NA,NA,NA
"experimental",36,30,"ld","upper","contusiok","nw","nw","h","h",1,0.535407802119153,NA,NA,NA
"experimental",37,1,"hd","lower","yash","nw","nw","h","h",1,0.495400611267542,NA,NA,NA
"experimental",37,2,"hd","lower","giving","w","w","g","g",1,0.482171706316876,NA,NA,NA
"experimental",37,3,"hd","lower","fullity","nw","nw","h","g",0,0.653471425204771,NA,NA,NA
"experimental",37,4,"hd","lower","alchemist","w","w","g","g",1,0.577635812194785,NA,NA,NA
"experimental",37,5,"hd","lower","minimum","w","w","g","g",1,0.47260808009014,NA,NA,NA
"experimental",37,6,"hd","lower","sequence","w","w","g","g",1,0.475318221142516,NA,NA,NA
