"procedure","block","trial","PMdemand","context","stim","role","word_type","correct_key","response","correct","reaction_time","pressedQ","pressedQ_blank","pressedQ_fix"
"LDTpractice",1,1,NA,"lower","umpire","","w","g","g",1,0.588359315808702,NA,NA,NA
"LDTpractice",2,1,NA,"lower","revival","","w","g","g",1,0.489970861117399,NA,NA,NA
"LDTpractice",3,1,NA,"lower","grutch","","nw","h","h",1,0.476104691848832,NA,NA,NA
"LDTpractice",4,1,NA,"lower","alolition","","nw","h","g",0,0.756317317700905,NA,NA,NA
"LDTpractice",5,1,NA,"lower","crinklo","","nw","h","h",1,0.694983115642117,NA,NA,NA
"LDTpractice",6,1,NA,"lower","grocus","","nw","h","h",1,0.714336093956717,NA,NA,NA
"LDTpractice",7,1,NA,"lower","treeps","","nw","h","g",0,0.64557137586371,NA,NA,NA
"LDTpractice",8,1,NA,"lower","hiring","","w","g","g",1,0.506222383621662,NA,NA,NA
"LDTpractice",9,1,NA,"lower","trotch","","nw","h","h",1,0.611358358687994,NA,NA,NA
"LDTpractice",10,1,NA,"lower","infinity","","w","g","g",1,0.552690918643748,NA,NA,NA
"LDTpractice",11,1,NA,"lower","tricycle","","w","g","g",1,0.70548860195413,NA,NA,NA
"LDTpractice",12,1,NA,"lower","summary","","w","g","g",1,0.595582251485212,NA,NA,NA
"LDTpractice",13,1,NA,"lower","lumbigo","","nw","h","h",1,0.586322909458886,NA,NA,NA
"LDTpractice",14,1,NA,"lower","slumber","","w","g","g",1,0.513031151789619,NA,NA,NA
"LDTpractice",1,2,NA,"upper","unscrew","","w","g","g",1,0.474889668063497,NA,NA,NA
"LDTpractice",2,2,NA,"upper","sponsor","","w","g","g",1,0.446311447844892,NA,NA,NA
"LDTpractice",3,2,NA,"upper","lurshing","","nw","h","h",1,0.514969230601764,NA,NA,NA
"LDTpractice",4,2,NA,"upper","hasking","","nw","h","h",1,0.668995180463753,NA,NA,NA
"LDTpractice",5,2,NA,"upper","turative","","nw","h","h",1,0.767413431379282,NA,NA,NA
"LDTpractice",6,2,NA,"upper","latador","","nw","h","h",1,0.709803095135612,NA,NA,NA
"LDTpractice",7,2,NA,"upper","raestro","","nw","h","h",1,0.593728595306402,NA,NA,NA
"LDTpractice",8,2,NA,"upper","reputable","","w","g","g",1,0.560532622564097,NA,NA,NA
"LDTpractice",9,2,NA,"upper","julled","","nw","h","h",1,0.616737901329543,NA,NA,NA
"LDTpractice",10,2,NA,"upper","overshoot","","w","g","g",1,0.517752197888512,NA,NA,NA
"LDTpractice",11,2,NA,"upper","picture","","w","g","g",1,0.455181121480109,NA,NA,NA
"LDTpractice",12,2,NA,"upper","grimace","","w","g","g",1,0.571348320671405,NA,NA,NA
"LDTpractice",13,2,NA,"upper","curlecs","","nw","h","h",1,0.530668529761442,NA,NA,NA
"LDTpractice",14,2,NA,"upper","busted","","w","g","g",1,0.428135089294301,NA,NA,NA
"experimental",1,1,"ld","upper","chrik","nw","nw","h","h",1,0.734062187204927,NA,NA,NA
"experimental",1,2,"ld","upper","puggers","nw","nw","h","h",1,0.687502277096428,NA,NA,NA
"experimental",1,3,"ld","upper","reloant","nw","nw","h","h",1,0.722928662712093,NA,NA,NA
"experimental",1,4,"ld","upper","lecked","nw","nw","h","h",1,0.596051376472587,NA,NA,NA
"experimental",1,5,"ld","upper","brank","nw","nw","h","h",1,0.65937033809405,NA,NA,NA
"experimental",1,6,"ld","upper","blueberry","w","w","g","g",1,0.488124488460016,NA,NA,NA
"experimental",1,7,"ld","upper","unversed","w","w","g","h",0,0.819546228512991,NA,NA,NA
"experimental",1,8,"ld","upper","ergonomic","w","w","g","g",1,0.849676169844315,NA,NA,NA
"experimental",1,9,"ld","upper","trecious","nw","nw","h","h",1,0.895047872767918,NA,NA,NA
"experimental",1,10,"ld","upper","planofoad","nw","nw","h","h",1,0.78645321827662,NA,NA,NA
"experimental",1,11,"ld","upper","sporidic","nw","nw","h","g",0,0.969954585757478,NA,NA,NA
"experimental",1,12,"ld","upper","accessory","w","w","g","g",1,0.793028913761646,NA,NA,NA
"experimental",1,13,"ld","upper","pimorous","nw","nw","h","h",1,0.584356358699097,NA,NA,NA
"experimental",1,14,"ld","upper","capobly","nw","nw","h","h",1,0.68775521392854,NA,NA,NA
"experimental",1,15,"ld","upper","submit","w","w","g","g",1,0.555211348093508,NA,NA,NA
"experimental",1,16,"ld","upper","listless","w","w","g","g",1,0.851963857680403,NA,NA,NA
"experimental",1,17,"ld","upper","decant","w","w","g","h",0,0.800623971164441,NA,NA,NA
"experimental",1,18,"ld","upper","ephically","nw","nw","h","h",1,0.767404492512014,NA,NA,NA
"experimental",1,19,"ld","upper","outfit","w","w","g","g",1,0.615430840319732,NA,NA,NA
"experimental",1,20,"ld","upper","provide","w","w","g","g",1,0.646206035426985,NA,NA,NA
"experimental",1,21,"ld","upper","awful","w","w","g","g",1,0.739600974107816,NA,NA,NA
"experimental",1,22,"ld","upper","togglo","nw","nw","h","h",1,0.587943492955219,NA,NA,NA
"experimental",1,23,"ld","upper","staircase","w","w","g","g",1,0.603346816293197,NA,NA,NA
"experimental",1,24,"ld","upper","plartly","nw","nw","h","h",1,0.834135783877173,NA,NA,NA
"experimental",1,25,"ld","upper","preight","nw","nw","h","h",1,0.712226852393087,NA,NA,NA
"experimental",1,26,"ld","upper","attract","w","w","g","g",1,0.633662818487664,NA,NA,NA
"experimental",1,27,"ld","upper","ascending","w","w","g","g",1,0.697064547397076,NA,NA,NA
"experimental",1,28,"ld","upper","assent","w","w","g","g",1,0.908480010378753,NA,NA,NA
"experimental",1,29,"ld","upper","roodies","nw","nw","h","h",1,0.663326614453581,NA,NA,NA
"experimental",1,30,"ld","upper","twenties","w","w","g","g",1,0.65208085751874,NA,NA,NA
"experimental",2,1,"ld","upper","halter","w","w","g","g",1,0.744095899976401,NA,NA,NA
"experimental",2,2,"ld","upper","seeming","w","w","g","g",1,0.561438758831628,NA,NA,NA
"experimental",2,3,"ld","upper","armada","w","w","g","g",1,0.818143819587931,NA,NA,NA
"experimental",2,4,"ld","upper","clypaper","nw","nw","h","h",1,0.624214104906514,NA,NA,NA
"experimental",2,5,"ld","upper","meteoroid","w","w","g","h",0,1.05429643849357,NA,NA,NA
"experimental",2,6,"ld","upper","border","w","w","g","g",1,0.817996162746113,NA,NA,NA
"experimental",2,7,"ld","upper","dislokes","nw","nw","h","h",1,0.576180274936178,NA,NA,NA
"experimental",2,8,"ld","upper","sengry","nw","nw","h","h",1,0.704110030007996,NA,NA,NA
"experimental",2,9,"ld","upper","tyena","nw","nw","h","h",1,0.722978985223108,NA,NA,NA
"experimental",2,10,"ld","upper","acroad","nw","nw","h","h",1,0.700978446905083,NA,NA,NA
"experimental",2,11,"ld","upper","pigned","nw","nw","h","h",1,0.607745401038756,NA,NA,NA
"experimental",2,12,"ld","upper","forbid","w","w","g","g",1,0.574480234843577,NA,NA,NA
"experimental",2,13,"ld","upper","smallash","nw","nw","h","h",1,0.766529145676031,NA,NA,NA
"experimental",2,14,"ld","upper","hustle","w","w","g","g",1,0.511262911451922,NA,NA,NA
"experimental",2,15,"ld","upper","frequency","w","w","g","g",1,0.711381963918939,NA,NA,NA
"experimental",2,16,"ld","upper","carnival","w","w","g","g",1,0.587688900777266,NA,NA,NA
"experimental",2,17,"ld","upper","ipiocy","nw","nw","h","h",1,0.579085075670719,NA,NA,NA
"experimental",2,18,"ld","upper","fonducts","nw","nw","h","h",1,0.61708155110864,NA,NA,NA
"experimental",2,19,"ld","upper","rualify","nw","nw","h","h",1,0.609379558370165,NA,NA,NA
"experimental",2,20,"ld","upper","noblin","nw","nw","h","h",1,0.680104536908857,NA,NA,NA
"experimental",2,21,"ld","upper","pollute","w","w","g","g",1,0.996202079150407,NA,NA,NA
"experimental",2,22,"ld","upper","germeated","nw","nw","h","g",0,1.19556066577661,NA,NA,NA
"experimental",2,23,"ld","upper","surround","w","w","g","g",1,0.627087123002184,NA,NA,NA
"experimental",2,24,"ld","upper","flougy","nw","nw","h","h",1,0.664079465704162,NA,NA,NA
"experimental",2,25,"ld","upper","humanize","w","w","g","g",1,0.724046683236793,NA,NA,NA
"experimental",2,26,"ld","upper","unamufed","nw","nw","h","h",1,0.662894900280207,NA,NA,NA
"experimental",2,27,"ld","upper","maximized","w","w","g","g",1,0.673360327225055,NA,NA,NA
"experimental",2,28,"ld","upper","atabaster","nw","nw","h","h",1,0.727713274088273,NA,NA,NA
"experimental",2,29,"ld","upper","digested","w","w","g","g",1,0.609787104495808,NA,NA,NA
"experimental",2,30,"ld","upper","overflow","w","w","g","g",1,0.624511073935082,NA,NA,NA
"experimental",3,1,"ld","upper","churnad","nw","nw","h","h",1,0.533913338514594,NA,NA,NA
"experimental",3,2,"ld","upper","beggarlan","nw","nw","h","h",1,0.607331895668722,NA,NA,NA
"experimental",3,3,"ld","upper","single","w","w","g","g",1,0.550032433357956,NA,NA,NA
"experimental",3,4,"ld","upper","mixture","w","w","g","g",1,0.551427227692784,NA,NA,NA
"experimental",3,5,"ld","upper","olgies","nw","nw","h","h",1,0.65615267701196,NA,NA,NA
"experimental",3,6,"ld","upper","huffle","nw","nw","h","h",1,0.716916115853564,NA,NA,NA
"experimental",3,7,"ld","upper","donastic","nw","nw","h","h",1,0.679603629282155,NA,NA,NA
"experimental",3,8,"ld","upper","maroon","w","w","g","g",1,0.714641008644776,NA,NA,NA
"experimental",3,9,"ld","upper","ilterfere","nw","nw","h","h",1,0.805391698013409,NA,NA,NA
"experimental",3,10,"ld","upper","remain","w","w","g","g",1,0.548036417444564,NA,NA,NA
"experimental",3,11,"ld","upper","thesis","w","w","g","g",1,0.605513001750751,NA,NA,NA
"experimental",3,12,"ld","upper","gremieres","nw","nw","h","h",1,0.643384001980394,NA,NA,NA
"experimental",3,13,"ld","upper","volume","w","w","g","g",1,0.529644532875864,NA,NA,NA
"experimental",3,14,"ld","upper","eaglot","nw","nw","h","h",1,0.651764686479055,NA,NA,NA
"experimental",3,15,"ld","upper","bellicove","nw","nw","h","h",1,0.68847661360951,NA,NA,NA
"experimental",3,16,"ld","upper","prohibit","w","w","g","g",1,0.651923599671591,NA,NA,NA
"experimental",3,17,"ld","upper","arrested","w","w","g","g",1,0.559736070185863,NA,NA,NA
"experimental",3,18,"ld","upper","opert","nw","nw","h","h",1,0.680391573862835,NA,NA,NA
"experimental",3,19,"ld","upper","martial","w","w","g","g",1,0.932500401590005,NA,NA,NA
"experimental",3,20,"ld","upper","ufionize","nw","nw","h","h",1,0.718518159477298,NA,NA,NA
"experimental",3,21,"ld","upper","demon","w","w","g","g",1,0.760594068998671,NA,NA,NA
"experimental",3,22,"ld","upper","blocking","w","w","g","g",1,0.753380403258234,NA,NA,NA
"experimental",3,23,"ld","upper","crudios","nw","nw","h","h",1,0.634096850144942,NA,NA,NA
"experimental",3,24,"ld","upper","potent","w","w","g","g",1,0.655502788267768,NA,NA,NA
"experimental",3,25,"ld","upper","vintnel","nw","nw","h","h",1,0.532265938416913,NA,NA,NA
"experimental",3,26,"ld","upper","baladroit","nw","nw","h","h",1,0.606302270607557,NA,NA,NA
"experimental",3,27,"ld","upper","shurk","nw","nw","h","h",1,0.668032762440816,NA,NA,NA
"experimental",3,28,"ld","upper","caloric","w","w","g","g",1,0.728115192037876,NA,NA,NA
"experimental",3,29,"ld","upper","burrowing","w","w","g","g",1,0.690204794579586,NA,NA,NA
"experimental",3,30,"ld","upper","stretches","w","w","g","g",1,0.917698961969108,NA,NA,NA
"experimental",4,1,"hd","lower","rillains","nw","nw","h","h",1,0.671027613984734,NA,NA,NA
"experimental",4,2,"hd","lower","latirizes","nw","nw","h","h",1,0.818925142784792,NA,NA,NA
"experimental",4,3,"hd","lower","pallir","nw","nw","h","h",1,0.576951997128162,NA,NA,NA
"experimental",4,4,"hd","lower","infusion","w","w","g","g",1,0.592984682923088,NA,NA,NA
"experimental",4,5,"hd","lower","column","w","w","g","g",1,0.576332897815064,NA,NA,NA
"experimental",4,6,"hd","lower","hubris","w","w","g","g",1,0.688482241785096,NA,NA,NA
"experimental",4,7,"hd","lower","satisfies","w","w","g","g",1,0.595732225810934,NA,NA,NA
"experimental",4,8,"hd","lower","glaims","nw","nw","h","h",1,0.61941459541822,NA,NA,NA
"experimental",4,9,"hd","lower","bamps","nw","nw","h","h",1,0.577414831801889,NA,NA,NA
"experimental",4,10,"hd","lower","peahem","nw","nw","h","h",1,0.721480235175022,NA,NA,NA
"experimental",4,11,"hd","lower","epic","w","w","g","g",1,0.51455572523173,NA,NA,NA
"experimental",4,12,"hd","lower","kickoff","w","w","g","g",1,0.541401129511996,NA,NA,NA
"experimental",4,13,"hd","lower","aefated","nw","nw","h","h",1,0.558715715061226,NA,NA,NA
"experimental",4,14,"hd","lower","walsams","nw","nw","h","h",1,0.615473548240061,NA,NA,NA
"experimental",4,15,"hd","lower","splum","nw","nw","h","h",1,0.582228908332127,NA,NA,NA
"experimental",4,16,"hd","lower","wienegs","nw","nw","h","h",1,0.582359349578383,NA,NA,NA
"experimental",4,17,"hd","lower","result","w","w","g","g",1,0.582465953844803,NA,NA,NA
"experimental",4,18,"hd","lower","deficit","w","w","g","g",1,0.766463925052904,NA,NA,NA
"experimental",4,19,"hd","lower","fuack","nw","nw","h","h",1,0.999262151316998,NA,NA,NA
"experimental",4,20,"hd","lower","planar","w","w","g","g",1,0.725616944221656,NA,NA,NA
"experimental",4,21,"hd","lower","drobate","nw","nw","h","h",1,0.559657275728114,NA,NA,NA
"experimental",4,22,"hd","lower","outflow","w","w","g","g",1,0.56045482131367,NA,NA,NA
"experimental",4,23,"hd","lower","efficient","w","w","g","g",1,0.61726099058842,NA,NA,NA
"experimental",4,24,"hd","lower","igiom","nw","nw","h","h",1,0.551240173622318,NA,NA,NA
"experimental",4,25,"hd","lower","micron","w","w","g","g",1,0.847970170506869,NA,NA,NA
"experimental",4,26,"hd","lower","egect","nw","nw","h","h",1,0.78140606906345,NA,NA,NA
"experimental",4,27,"hd","lower","finish","w","w","g","g",1,0.533407133781566,NA,NA,NA
"experimental",4,28,"hd","lower","angry","w","w","g","g",1,0.535454796483464,NA,NA,NA
"experimental",4,29,"hd","lower","eyesight","w","w","g","g",1,0.696942382880025,NA,NA,NA
"experimental",4,30,"hd","lower","hasks","nw","nw","h","h",1,0.619215622858519,NA,NA,NA
"experimental",5,1,"hd","lower","amms","nw","nw","h","h",1,0.530177223140981,NA,NA,NA
"experimental",5,2,"hd","lower","reason","w","w","g","g",1,0.51634482292593,NA,NA,NA
"experimental",5,3,"hd","lower","pircus","nw","nw","h","h",1,0.607005461485187,NA,NA,NA
"experimental",5,4,"hd","lower","grefab","nw","nw","h","h",1,0.565726435411761,NA,NA,NA
"experimental",5,5,"hd","lower","dazid","nw","nw","h","h",1,0.56548541706934,NA,NA,NA
"experimental",5,6,"hd","lower","triplet","w","w","g","g",1,0.550261533210687,NA,NA,NA
"experimental",5,7,"hd","lower","aviation","w","w","g","g",1,0.55962052705172,NA,NA,NA
"experimental",5,8,"hd","lower","leuter","nw","nw","h","h",1,1.03239191022931,NA,NA,NA
"experimental",5,9,"hd","lower","pretzel","w","w","g","g",1,0.646439108109462,NA,NA,NA
"experimental",5,10,"hd","lower","fetching","w","w","g","g",1,0.771877567817228,NA,NA,NA
"experimental",5,11,"hd","lower","zears","nw","nw","h","h",1,0.604023852707542,NA,NA,NA
"experimental",5,12,"hd","lower","trophy","w","w","g","g",1,0.658671782184683,NA,NA,NA
"experimental",5,13,"hd","lower","sustain","w","w","g","g",1,0.607458033015519,NA,NA,NA
"experimental",5,14,"hd","lower","razelle","nw","nw","h","h",1,0.597189261146468,NA,NA,NA
"experimental",5,15,"hd","lower","pariah","w","w","g","g",1,0.88453245438086,NA,NA,NA
"experimental",5,16,"hd","lower","ofsters","nw","nw","h","h",1,0.807977017017038,NA,NA,NA
"experimental",5,17,"hd","lower","emotion","w","w","g","g",1,0.878724839327333,NA,NA,NA
"experimental",5,18,"hd","lower","incidonts","nw","nw","h","h",1,0.930828171306075,NA,NA,NA
"experimental",5,19,"hd","lower","hangar","w","w","g","g",1,0.948939309233992,NA,NA,NA
"experimental",5,20,"hd","lower","brother","w","w","g","g",1,0.61434791312513,NA,NA,NA
"experimental",5,21,"hd","lower","relaying","w","w","g","g",1,0.557074936346908,NA,NA,NA
"experimental",5,22,"hd","lower","asthmatic","w","w","g","g",1,0.701718386458197,NA,NA,NA
"experimental",5,23,"hd","lower","lizard","target","target","q","q",1,0.799621824843143,1,NA,NA
"experimental",5,24,"hd","lower","pranny","aftertar1","nw","h","h",1,0.878927122578261,NA,NA,NA
"experimental",5,25,"hd","lower","brimitive","aftertar2","nw","h","h",1,0.730948150766835,NA,NA,NA
"experimental",5,26,"hd","lower","topefuls","aftertar3","nw","h","h",1,0.685013961354798,NA,NA,NA
"experimental",5,27,"hd","lower","retain","nw","w","g","g",1,0.608435349150568,NA,NA,NA
"experimental",5,28,"hd","lower","plogging","w","nw","h","h",1,0.606564808445,NA,NA,NA
"experimental",5,29,"hd","lower","gumdrep","nw","nw","h","h",1,0.597933835667845,NA,NA,NA
"experimental",5,30,"hd","lower","tenpince","nw","nw","h","h",1,0.653321704698101,NA,NA,NA
"experimental",6,1,"hd","lower","smabled","nw","nw","h","h",1,0.585357842882331,NA,NA,NA
"experimental",6,2,"hd","lower","ringlat","nw","nw","h","h",1,0.608816409743213,NA,NA,NA
"experimental",6,3,"hd","lower","recipus","nw","nw","h","h",1,0.66360107078026,NA,NA,NA
"experimental",6,4,"hd","lower","previous","w","w","g","g",1,0.652369549818559,NA,NA,NA
"experimental",6,5,"hd","lower","binder","w","w","g","g",1,0.593041957886271,NA,NA,NA
"experimental",6,6,"hd","lower","stooping","w","w","g","g",1,0.984478589430182,NA,NA,NA
"experimental",6,7,"hd","lower","divider","w","w","g","g",1,0.583020825742551,NA,NA,NA
"experimental",6,8,"hd","lower","chyme","nw","nw","h","g",0,0.742966954170697,NA,NA,NA
"experimental",6,9,"hd","lower","elpired","nw","nw","h","h",1,0.640377563016045,NA,NA,NA
"experimental",6,10,"hd","lower","yellep","nw","nw","h","h",1,0.573753538056735,NA,NA,NA
"experimental",6,11,"hd","lower","fisco","nw","nw","h","g",0,0.725878488850867,NA,NA,NA
"experimental",6,12,"hd","lower","rodeo","w","w","g","g",1,0.583885909435139,NA,NA,NA
"experimental",6,13,"hd","lower","organize","w","w","g","g",1,1.00732931332959,NA,NA,NA
"experimental",6,14,"hd","lower","formation","w","w","g","g",1,0.60609137955862,NA,NA,NA
"experimental",6,15,"hd","lower","casino","w","w","g","g",1,0.556853782153667,NA,NA,NA
"experimental",6,16,"hd","lower","halents","nw","nw","h","h",1,0.652520186282345,NA,NA,NA
"experimental",6,17,"hd","lower","gund","nw","nw","h","h",1,0.569226167410761,NA,NA,NA
"experimental",6,18,"hd","lower","cherry","w","w","g","g",1,0.545367337945663,NA,NA,NA
"experimental",6,19,"hd","lower","acting","w","w","g","g",1,0.938730791950093,NA,NA,NA
"experimental",6,20,"hd","lower","baults","nw","nw","h","h",1,0.556030744243344,NA,NA,NA
"experimental",6,21,"hd","lower","derisury","nw","nw","h","h",1,0.652829404869863,NA,NA,NA
"experimental",6,22,"hd","lower","fudden","nw","nw","h","h",1,0.737389432176315,NA,NA,NA
"experimental",6,23,"hd","lower","enunciate","w","w","g","g",1,0.698804977925647,NA,NA,NA
"experimental",6,24,"hd","lower","jungle","w","w","g","g",1,0.710452321741286,NA,NA,NA
"experimental",6,25,"hd","lower","rabbit","target","target","q","q",1,0.608104942137288,1,NA,NA
"experimental",6,26,"hd","lower","huntry","aftertar1","nw","h","h",1,0.72690877605055,NA,NA,NA
"experimental",6,27,"hd","lower","harder","aftertar2","w","g","g",1,0.649030386357481,NA,NA,NA
"experimental",6,28,"hd","lower","kettle","aftertar3","w","g","g",1,0.774390713745106,NA,NA,NA
"experimental",6,29,"hd","lower","stranded","w","w","g","g",1,0.710424511932615,NA,NA,NA
"experimental",6,30,"hd","lower","reddar","w","nw","h","h",1,0.881208520100699,NA,NA,NA
"experimental",7,1,"hd","lower","gontracts","nw","nw","h","h",1,0.596582742460669,NA,NA,NA
"experimental",7,2,"hd","lower","dariner","nw","nw","h","h",1,0.636026321159534,NA,NA,NA
"experimental",7,3,"hd","lower","whirling","w","w","g","g",1,0.56137717996944,NA,NA,NA
"experimental",7,4,"hd","lower","image","w","w","g","g",1,0.610065533651778,NA,NA,NA
"experimental",7,5,"hd","lower","labitable","nw","nw","h","h",1,0.648865182851296,NA,NA,NA
"experimental",7,6,"hd","lower","permute","w","w","g","h",0,0.766325207078353,NA,NA,NA
"experimental",7,7,"hd","lower","guffy","nw","nw","h","h",1,0.646997621767696,NA,NA,NA
"experimental",7,8,"hd","lower","insertion","w","w","g","g",1,0.580397764856116,NA,NA,NA
"experimental",7,9,"hd","lower","culer","nw","nw","h","h",1,0.603495797411142,NA,NA,NA
"experimental",7,10,"hd","lower","century","w","w","g","g",1,0.514123679989098,NA,NA,NA
"experimental",7,11,"hd","lower","sefine","nw","nw","h","h",1,0.580907611349176,NA,NA,NA
"experimental",7,12,"hd","lower","gigglod","nw","nw","h","h",1,0.580995675742997,NA,NA,NA
"experimental",7,13,"hd","lower","porcupine","target","target","q","g",0,0.564963321017331,NA,NA,NA
"experimental",7,14,"hd","lower","trises","aftertar1","nw","h","h",1,0.645630306172734,NA,NA,NA
"experimental",7,15,"hd","lower","sprea","aftertar2","nw","h","h",1,0.62709473759287,NA,NA,NA
"experimental",7,16,"hd","lower","ounside","aftertar3","nw","h","h",1,0.664794906139832,NA,NA,NA
"experimental",7,17,"hd","lower","bullet","nw","w","g","g",1,0.693932964293708,NA,NA,NA
"experimental",7,18,"hd","lower","equitable","w","w","g","h",0,0.633380416501495,NA,NA,NA
"experimental",7,19,"hd","lower","splinging","w","nw","h","h",1,0.678359802480827,NA,NA,NA
"experimental",7,20,"hd","lower","personify","nw","w","g","g",1,0.794418742059406,NA,NA,NA
"experimental",7,21,"hd","lower","oppose","w","w","g","g",1,0.641928621990701,NA,NA,NA
"experimental",7,22,"hd","lower","nogwhell","w","nw","h","h",1,0.575311880551908,NA,NA,NA
"experimental",7,23,"hd","lower","vented","nw","w","g","g",1,0.551355054618398,NA,NA,NA
"experimental",7,24,"hd","lower","maiden","w","w","g","g",1,0.696094845852713,NA,NA,NA
"experimental",7,25,"hd","lower","begut","w","nw","h","h",1,0.555507654984012,NA,NA,NA
"experimental",7,26,"hd","lower","regards","nw","w","g","g",1,0.588238806637492,NA,NA,NA
"experimental",7,27,"hd","lower","haurded","w","nw","h","h",1,0.587658442415432,NA,NA,NA
"experimental",7,28,"hd","lower","suddenly","nw","w","g","g",1,0.546152965041983,NA,NA,NA
"experimental",7,29,"hd","lower","duplex","w","w","g","g",1,0.635443308383856,NA,NA,NA
"experimental",7,30,"hd","lower","sheerio","w","nw","h","h",1,0.624857372267343,NA,NA,NA
"experimental",8,1,"ld","upper","minimum","w","w","g","g",1,0.511226162775984,NA,NA,NA
"experimental",8,2,"ld","upper","batire","nw","nw","h","h",1,0.63396078072401,NA,NA,NA
"experimental",8,3,"ld","upper","portify","nw","nw","h","h",1,0.423431589860229,NA,NA,NA
"experimental",8,4,"ld","upper","bypassed","w","w","g","g",1,0.628453776459537,NA,NA,NA
"experimental",8,5,"ld","upper","inside","w","w","g","g",1,0.514440844236105,NA,NA,NA
"experimental",8,6,"ld","upper","rootsie","nw","nw","h","h",1,0.589187981895066,NA,NA,NA
"experimental",8,7,"ld","upper","slutches","nw","nw","h","h",1,0.676635263270782,NA,NA,NA
"experimental",8,8,"ld","upper","scrobby","nw","nw","h","h",1,0.632073686560943,NA,NA,NA
"experimental",8,9,"ld","upper","rander","nw","nw","h","h",1,0.622011170773021,NA,NA,NA
"experimental",8,10,"ld","upper","cookbook","w","w","g","g",1,0.532075242585961,NA,NA,NA
"experimental",8,11,"ld","upper","confined","w","w","g","g",1,0.877948151097826,NA,NA,NA
"experimental",8,12,"ld","upper","brouhuha","nw","nw","h","h",1,0.569616166871128,NA,NA,NA
"experimental",8,13,"ld","upper","infested","w","w","g","g",1,0.560802443922512,NA,NA,NA
"experimental",8,14,"ld","upper","violate","w","w","g","g",1,0.657499797388482,NA,NA,NA
"experimental",8,15,"ld","upper","ladybug","target","target","q","q",1,0.685509240805459,1,NA,NA
"experimental",8,16,"ld","upper","schinter","aftertar1","nw","h","h",1,0.561062002137533,NA,NA,NA
"experimental",8,17,"ld","upper","apology","aftertar2","w","g","g",1,0.585079413725907,NA,NA,NA
"experimental",8,18,"ld","upper","lasprey","aftertar3","nw","h","h",1,0.60060159088971,NA,NA,NA
"experimental",8,19,"ld","upper","vivid","nw","w","g","g",1,1.15922350892561,NA,NA,NA
"experimental",8,20,"ld","upper","gonesty","w","nw","h","h",1,0.559289457900832,NA,NA,NA
"experimental",8,21,"ld","upper","sampling","nw","w","g","g",1,1.03933244391919,NA,NA,NA
"experimental",8,22,"ld","upper","postal","w","w","g","g",1,0.731162352507909,NA,NA,NA
"experimental",8,23,"ld","upper","cavern","w","w","g","g",1,0.492553200498605,NA,NA,NA
"experimental",8,24,"ld","upper","emergence","w","w","g","g",1,0.607300113029851,NA,NA,NA
"experimental",8,25,"ld","upper","argue","w","w","g","g",1,0.429356072324481,NA,NA,NA
"experimental",8,26,"ld","upper","asclibed","w","nw","h","h",1,0.650706258401897,NA,NA,NA
"experimental",8,27,"ld","upper","tritical","nw","nw","h","h",1,0.679439087914034,NA,NA,NA
"experimental",8,28,"ld","upper","elbalm","nw","nw","h","g",0,0.63489969283728,NA,NA,NA
"experimental",8,29,"ld","upper","metrol","nw","nw","h","g",0,0.880296093519519,NA,NA,NA
"experimental",8,30,"ld","upper","ebuating","nw","nw","h","h",1,1.01171366210156,NA,NA,NA
"experimental",9,1,"ld","upper","cassette","w","w","g","g",1,0.673744036371772,NA,NA,NA
"experimental",9,2,"ld","upper","amidst","w","w","g","g",1,0.653089956292206,NA,NA,NA
"experimental",9,3,"ld","upper","gallon","w","w","g","g",1,0.577159908555586,NA,NA,NA
"experimental",9,4,"ld","upper","mantos","nw","nw","h","h",1,0.577235392321654,NA,NA,NA
"experimental",9,5,"ld","upper","ebince","nw","nw","h","h",1,0.640656985380247,NA,NA,NA
"experimental",9,6,"ld","upper","gaining","w","w","g","g",1,1.06840296396558,NA,NA,NA
"experimental",9,7,"ld","upper","gairs","nw","nw","h","h",1,1.48054002527033,NA,NA,NA
"experimental",9,8,"ld","upper","machinery","w","w","g","g",1,0.604022859500219,NA,NA,NA
"experimental",9,9,"ld","upper","rumblos","nw","nw","h","h",1,0.562087985437302,NA,NA,NA
"experimental",9,10,"ld","upper","melodic","w","w","g","g",1,0.682165773445377,NA,NA,NA
"experimental",9,11,"ld","upper","punctual","w","w","g","g",1,0.678217442745336,NA,NA,NA
"experimental",9,12,"ld","upper","edasion","nw","nw","h","h",1,0.76961239268303,NA,NA,NA
"experimental",9,13,"ld","upper","serfume","nw","nw","h","h",1,0.53700982828741,NA,NA,NA
"experimental",9,14,"ld","upper","trocess","nw","nw","h","h",1,0.561765524083967,NA,NA,NA
"experimental",9,15,"ld","upper","saucer","w","w","g","g",1,0.608861435148356,NA,NA,NA
"experimental",9,16,"ld","upper","defensa","nw","nw","h","h",1,0.534939983952881,NA,NA,NA
"experimental",9,17,"ld","upper","handed","w","w","g","g",1,0.552394942822502,NA,NA,NA
"experimental",9,18,"ld","upper","gepealed","nw","nw","h","h",1,0.521032762109826,NA,NA,NA
"experimental",9,19,"ld","upper","clarms","nw","nw","h","h",1,0.56243527697734,NA,NA,NA
"experimental",9,20,"ld","upper","sullen","w","w","g","g",1,0.818523886973708,NA,NA,NA
"experimental",9,21,"ld","upper","tipoff","w","w","g","g",1,0.744590517288998,NA,NA,NA
"experimental",9,22,"ld","upper","dialect","w","w","g","g",1,0.60057709177272,NA,NA,NA
"experimental",9,23,"ld","upper","ciping","nw","nw","h","h",1,0.552029773548838,NA,NA,NA
"experimental",9,24,"ld","upper","midday","w","w","g","g",1,0.783873196379773,NA,NA,NA
"experimental",9,25,"ld","upper","upstairs","w","w","g","g",1,0.527238984422183,NA,NA,NA
"experimental",9,26,"ld","upper","solidity","w","w","g","g",1,0.744634218417104,NA,NA,NA
"experimental",9,27,"ld","upper","paterways","nw","nw","h","h",1,0.705280028389097,NA,NA,NA
"experimental",9,28,"ld","upper","chiffol","nw","nw","h","h",1,0.627416536808141,NA,NA,NA
"experimental",9,29,"ld","upper","mustled","nw","nw","h","h",1,0.768837028730559,NA,NA,NA
"experimental",9,30,"ld","upper","godomy","nw","nw","h","h",1,0.672782942625417,NA,NA,NA
"experimental",10,1,"hd","lower","acidic","w","w","g","g",1,0.524235856149517,NA,NA,NA
"experimental",10,2,"hd","lower","skiing","w","w","g","g",1,0.629594309686127,NA,NA,NA
"experimental",10,3,"hd","lower","puyer","nw","nw","h","h",1,0.51506358530969,NA,NA,NA
"experimental",10,4,"hd","lower","facienda","nw","nw","h","h",1,0.677159014668177,NA,NA,NA
"experimental",10,5,"hd","lower","quittint","nw","nw","h","h",1,0.608549236938416,NA,NA,NA
"experimental",10,6,"hd","lower","paying","w","w","g","g",1,0.574638485898049,NA,NA,NA
"experimental",10,7,"hd","lower","arrival","w","w","g","g",1,0.526010717870122,NA,NA,NA
"experimental",10,8,"hd","lower","volition","w","w","g","g",1,0.655424324878823,NA,NA,NA
"experimental",10,9,"hd","lower","comply","w","w","g","g",1,0.570344187935007,NA,NA,NA
"experimental",10,10,"hd","lower","epthuse","nw","nw","h","h",1,0.561793333892638,NA,NA,NA
"experimental",10,11,"hd","lower","practice","w","w","g","g",1,0.473839847784348,NA,NA,NA
"experimental",10,12,"hd","lower","huests","nw","nw","h","h",1,0.589318423140412,NA,NA,NA
"experimental",10,13,"hd","lower","praiged","nw","nw","h","h",1,0.572039593059799,NA,NA,NA
"experimental",10,14,"hd","lower","throttle","w","w","g","g",1,0.595386920685996,NA,NA,NA
"experimental",10,15,"hd","lower","maunches","nw","nw","h","h",1,0.650173237067975,NA,NA,NA
"experimental",10,16,"hd","lower","graiking","nw","nw","h","h",1,0.630906005663746,NA,NA,NA
"experimental",10,17,"hd","lower","foster","w","w","g","g",1,0.50833030090871,NA,NA,NA
"experimental",10,18,"hd","lower","nature","w","w","g","g",1,0.525483324712241,NA,NA,NA
"experimental",10,19,"hd","lower","country","w","w","g","g",1,0.582898992294759,NA,NA,NA
"experimental",10,20,"hd","lower","mystery","w","w","g","g",1,0.486193362099584,NA,NA,NA
"experimental",10,21,"hd","lower","geissue","nw","nw","h","h",1,0.488833969651296,NA,NA,NA
"experimental",10,22,"hd","lower","earterner","nw","nw","h","h",1,0.779614984954605,NA,NA,NA
"experimental",10,23,"hd","lower","flamingo","target","target","q","g",0,0.562997763465319,NA,NA,NA
"experimental",10,24,"hd","lower","borrent","aftertar1","nw","h","h",1,0.810926843155812,NA,NA,NA
"experimental",10,25,"hd","lower","become","aftertar2","w","g","g",1,0.576980469074897,NA,NA,NA
"experimental",10,26,"hd","lower","dests","aftertar3","nw","h","h",1,0.560441247478138,NA,NA,NA
"experimental",10,27,"hd","lower","thorifies","nw","nw","h","h",1,0.583843532584069,NA,NA,NA
"experimental",10,28,"hd","lower","gelfry","nw","nw","h","h",1,0.590944634812331,NA,NA,NA
"experimental",10,29,"hd","lower","lenie","nw","nw","h","h",1,0.677638071730598,NA,NA,NA
"experimental",10,30,"hd","lower","antonym","nw","w","g","g",1,0.66511604321704,NA,NA,NA
"experimental",11,1,"ld","upper","shimble","nw","nw","h","h",1,0.502066141494652,NA,NA,NA
"experimental",11,2,"ld","upper","blassed","nw","nw","h","h",1,0.704860894843023,NA,NA,NA
"experimental",11,3,"ld","upper","hivinity","nw","nw","h","h",1,0.497935060623149,NA,NA,NA
"experimental",11,4,"ld","upper","resent","w","w","g","g",1,0.676697173202683,NA,NA,NA
"experimental",11,5,"ld","upper","migmarole","nw","nw","h","h",1,0.488093367959664,NA,NA,NA
"experimental",11,6,"ld","upper","arranged","w","w","g","g",1,0.906781956701252,NA,NA,NA
"experimental",11,7,"ld","upper","courier","w","w","g","g",1,1.00490025896579,NA,NA,NA
"experimental",11,8,"ld","upper","preclude","w","w","g","g",1,0.818826815247121,NA,NA,NA
"experimental",11,9,"ld","upper","ethical","w","w","g","g",1,0.601003177770053,NA,NA,NA
"experimental",11,10,"ld","upper","criminal","w","w","g","g",1,0.543626907416638,NA,NA,NA
"experimental",11,11,"ld","upper","rarely","w","w","g","g",1,0.519311533591463,NA,NA,NA
"experimental",11,12,"ld","upper","contusiok","nw","nw","h","h",1,0.568538205714503,NA,NA,NA
"experimental",11,13,"ld","upper","threaded","w","w","g","g",1,0.74454747829941,NA,NA,NA
"experimental",11,14,"ld","upper","gigoho","nw","nw","h","h",1,0.473286300162727,NA,NA,NA
"experimental",11,15,"ld","upper","ludictous","nw","nw","h","h",1,0.772641675418527,NA,NA,NA
"experimental",11,16,"ld","upper","ronic","nw","nw","h","h",1,0.707790856833071,NA,NA,NA
"experimental",11,17,"ld","upper","dricked","nw","nw","h","h",1,0.565600298064965,NA,NA,NA
"experimental",11,18,"ld","upper","squadroim","nw","nw","h","h",1,0.637714111693185,NA,NA,NA
"experimental",11,19,"ld","upper","minister","w","w","g","g",1,0.865422811892586,NA,NA,NA
"experimental",11,20,"ld","upper","religious","w","w","g","g",1,0.782594607317151,NA,NA,NA
"experimental",11,21,"ld","upper","priant","nw","nw","h","h",1,0.580732144699141,NA,NA,NA
"experimental",11,22,"ld","upper","bloves","nw","nw","h","h",1,0.564070096446812,NA,NA,NA
"experimental",11,23,"ld","upper","decantel","nw","nw","h","h",1,0.604169192065456,NA,NA,NA
"experimental",11,24,"ld","upper","retreat","w","w","g","g",1,0.618386294633638,NA,NA,NA
"experimental",11,25,"ld","upper","odacles","nw","nw","h","h",1,0.520379231604238,NA,NA,NA
"experimental",11,26,"ld","upper","undimmec","nw","nw","h","h",1,0.561614225482117,NA,NA,NA
"experimental",11,27,"ld","upper","lifetime","w","w","g","g",1,0.529616391998388,NA,NA,NA
"experimental",11,28,"ld","upper","venturous","w","w","g","h",0,1.00301283373301,NA,NA,NA
"experimental",11,29,"ld","upper","bamboo","w","w","g","g",1,0.737127225408585,NA,NA,NA
"experimental",11,30,"ld","upper","ready","w","w","g","g",1,0.672718715209157,NA,NA,NA
"experimental",12,1,"ld","upper","graveyard","w","w","g","g",1,0.54105714866364,NA,NA,NA
"experimental",12,2,"ld","upper","bumbo","nw","nw","h","h",1,0.773759033804708,NA,NA,NA
"experimental",12,3,"ld","upper","glassware","w","w","g","g",1,0.517255594161725,NA,NA,NA
"experimental",12,4,"ld","upper","uncarled","nw","nw","h","h",1,0.535220730594119,NA,NA,NA
"experimental",12,5,"ld","upper","vorm","nw","nw","h","h",1,0.56061207915991,NA,NA,NA
"experimental",12,6,"ld","upper","even","w","w","g","g",1,0.503596012044,NA,NA,NA
"experimental",12,7,"ld","upper","nelvet","nw","nw","h","h",1,0.553572886863549,NA,NA,NA
"experimental",12,8,"ld","upper","brongs","nw","nw","h","h",1,0.529619040551552,NA,NA,NA
"experimental",12,9,"ld","upper","pender","nw","nw","h","h",1,0.475038318111729,NA,NA,NA
"experimental",12,10,"ld","upper","turning","w","w","g","g",1,0.798391571875982,NA,NA,NA
"experimental",12,11,"ld","upper","poyride","nw","nw","h","h",1,0.509325494776931,NA,NA,NA
"experimental",12,12,"ld","upper","yearnungs","nw","nw","h","h",1,0.526244783760376,NA,NA,NA
"experimental",12,13,"ld","upper","statute","w","w","g","g",1,0.696794726038206,NA,NA,NA
"experimental",12,14,"ld","upper","enabled","w","w","g","g",1,0.75543468734304,NA,NA,NA
"experimental",12,15,"ld","upper","ecistle","nw","nw","h","h",1,0.602562513473458,NA,NA,NA
"experimental",12,16,"ld","upper","goblet","w","w","g","g",1,0.609263684166763,NA,NA,NA
"experimental",12,17,"ld","upper","category","w","w","g","g",1,0.823367428659367,NA,NA,NA
"experimental",12,18,"ld","upper","subber","nw","nw","h","h",1,0.540825069188031,NA,NA,NA
"experimental",12,19,"ld","upper","comment","w","w","g","g",1,0.63756910340544,NA,NA,NA
"experimental",12,20,"ld","upper","slowning","nw","nw","h","h",1,0.76228848091614,NA,NA,NA
"experimental",12,21,"ld","upper","nostril","w","w","g","g",1,0.586353367821175,NA,NA,NA
"experimental",12,22,"ld","upper","scack","nw","nw","h","h",1,0.505042453166425,NA,NA,NA
"experimental",12,23,"ld","upper","icepick","w","w","g","g",1,0.731180561310794,NA,NA,NA
"experimental",12,24,"ld","upper","actively","w","w","g","g",1,0.539612031817342,NA,NA,NA
"experimental",12,25,"ld","upper","teamwork","w","w","g","g",1,0.724320808494667,NA,NA,NA
"experimental",12,26,"ld","upper","ragtam","nw","nw","h","h",1,0.669669899394648,NA,NA,NA
"experimental",12,27,"ld","upper","terming","w","w","g","h",0,0.609082589340687,NA,NA,NA
"experimental",12,28,"ld","upper","destroy","w","w","g","g",1,0.495179572076268,NA,NA,NA
"experimental",12,29,"ld","upper","dredigest","nw","nw","h","h",1,0.545892744689809,NA,NA,NA
"experimental",12,30,"ld","upper","cartles","nw","nw","h","h",1,0.618611421657988,NA,NA,NA
"experimental",13,1,"ld","upper","atsless","nw","nw","h","h",1,0.591911687803986,NA,NA,NA
"experimental",13,2,"ld","upper","oalis","nw","nw","h","h",1,0.582689756591208,NA,NA,NA
"experimental",13,3,"ld","upper","mineluyer","nw","nw","h","h",1,0.653957026399439,NA,NA,NA
"experimental",13,4,"ld","upper","goltish","nw","nw","h","h",1,0.505985338109895,NA,NA,NA
"experimental",13,5,"ld","upper","issue","w","w","g","g",1,0.564079697452144,NA,NA,NA
"experimental",13,6,"ld","upper","talate","nw","nw","h","g",0,0.57002271978854,NA,NA,NA
"experimental",13,7,"ld","upper","athcan","nw","nw","h","h",1,0.579657163164484,NA,NA,NA
"experimental",13,8,"ld","upper","warmer","w","w","g","g",1,0.579109905856967,NA,NA,NA
"experimental",13,9,"ld","upper","gerby","nw","nw","h","h",1,0.481413716761381,NA,NA,NA
"experimental",13,10,"ld","upper","virulent","w","w","g","g",1,1.00488602299174,NA,NA,NA
"experimental",13,11,"ld","upper","omission","w","w","g","g",1,0.514969561671023,NA,NA,NA
"experimental",13,12,"ld","upper","airmen","w","w","g","g",1,0.869105956202475,NA,NA,NA
"experimental",13,13,"ld","upper","picnic","w","w","g","g",1,0.473031707985683,NA,NA,NA
"experimental",13,14,"ld","upper","mitten","w","w","g","g",1,0.740462416039918,NA,NA,NA
"experimental",13,15,"ld","upper","rivet","w","w","g","g",1,0.67725270723804,NA,NA,NA
"experimental",13,16,"ld","upper","grested","nw","nw","h","h",1,0.60860584976308,NA,NA,NA
"experimental",13,17,"ld","upper","ensues","w","w","g","g",1,0.606665784536744,NA,NA,NA
"experimental",13,18,"ld","upper","gewer","nw","nw","h","h",1,0.56378305949238,NA,NA,NA
"experimental",13,19,"ld","upper","mabit","nw","nw","h","h",1,0.659764310384162,NA,NA,NA
"experimental",13,20,"ld","upper","treenery","nw","nw","h","h",1,0.687861818195415,NA,NA,NA
"experimental",13,21,"ld","upper","correct","w","w","g","g",1,0.578607342885334,NA,NA,NA
"experimental",13,22,"ld","upper","snorls","nw","nw","h","h",1,0.506023079992701,NA,NA,NA
"experimental",13,23,"ld","upper","dorte","nw","nw","h","h",1,0.57207733494306,NA,NA,NA
"experimental",13,24,"ld","upper","emission","w","w","g","g",1,0.571475451225524,NA,NA,NA
"experimental",13,25,"ld","upper","bengths","nw","nw","h","h",1,0.514929171234144,NA,NA,NA
"experimental",13,26,"ld","upper","frunted","nw","nw","h","h",1,0.772856208228404,NA,NA,NA
"experimental",13,27,"ld","upper","intrude","w","w","g","g",1,0.916459439065875,NA,NA,NA
"experimental",13,28,"ld","upper","tinker","w","w","g","g",1,0.773455774461581,NA,NA,NA
"experimental",13,29,"ld","upper","intercede","w","w","g","g",1,0.676839864006979,NA,NA,NA
"experimental",13,30,"ld","upper","obtuse","w","w","g","g",1,0.536288759675699,NA,NA,NA
"experimental",14,1,"hd","lower","louches","nw","nw","h","h",1,1.06564151617386,NA,NA,NA
"experimental",14,2,"hd","lower","army","w","w","g","g",1,0.669068015678022,NA,NA,NA
"experimental",14,3,"hd","lower","euphoric","w","w","g","g",1,0.552387990370335,NA,NA,NA
"experimental",14,4,"hd","lower","unburnid","nw","nw","h","h",1,0.536454956390116,NA,NA,NA
"experimental",14,5,"hd","lower","cheathe","nw","nw","h","h",1,0.513253299190183,NA,NA,NA
"experimental",14,6,"hd","lower","mebase","nw","nw","h","h",1,0.547331902289443,NA,NA,NA
"experimental",14,7,"hd","lower","ahead","w","w","g","g",1,0.547968217199013,NA,NA,NA
"experimental",14,8,"hd","lower","pypecast","nw","nw","h","h",1,0.484751887014681,NA,NA,NA
"experimental",14,9,"hd","lower","uncle","w","w","g","g",1,0.495578510403902,NA,NA,NA
"experimental",14,10,"hd","lower","acorn","w","w","g","g",1,0.514249486266635,NA,NA,NA
"experimental",14,11,"hd","lower","volder","nw","nw","h","h",1,0.812420296098026,NA,NA,NA
"experimental",14,12,"hd","lower","metebing","nw","nw","h","h",1,0.809412532857095,NA,NA,NA
"experimental",14,13,"hd","lower","create","w","w","g","g",1,0.551483178379385,NA,NA,NA
"experimental",14,14,"hd","lower","carbled","nw","nw","h","h",1,0.567658223910257,NA,NA,NA
"experimental",14,15,"hd","lower","populace","w","w","g","g",1,0.798982199242346,NA,NA,NA
"experimental",14,16,"hd","lower","gaioty","nw","nw","h","h",1,0.653683894350252,NA,NA,NA
"experimental",14,17,"hd","lower","blerapies","nw","nw","h","h",1,0.625774433817242,NA,NA,NA
"experimental",14,18,"hd","lower","rationale","w","w","g","g",1,0.631167881362671,NA,NA,NA
"experimental",14,19,"hd","lower","calcify","w","w","g","g",1,0.812587486019765,NA,NA,NA
"experimental",14,20,"hd","lower","peanimate","nw","nw","h","h",1,0.578672563508007,NA,NA,NA
"experimental",14,21,"hd","lower","ireology","nw","nw","h","h",1,0.625096404195574,NA,NA,NA
"experimental",14,22,"hd","lower","revising","w","w","g","g",1,0.6544562786803,NA,NA,NA
"experimental",14,23,"hd","lower","lonnote","nw","nw","h","h",1,0.834447651018309,NA,NA,NA
"experimental",14,24,"hd","lower","forgive","w","w","g","g",1,0.767891826303639,NA,NA,NA
"experimental",14,25,"hd","lower","ilcurring","nw","nw","h","h",1,0.943926260143598,NA,NA,NA
"experimental",14,26,"hd","lower","mogus","nw","nw","h","h",1,0.688624932588937,NA,NA,NA
"experimental",14,27,"hd","lower","intersect","w","w","g","g",1,0.627363234673794,NA,NA,NA
"experimental",14,28,"hd","lower","vaporize","w","w","g","h",0,0.455465178812119,NA,NA,NA
"experimental",14,29,"hd","lower","dehydrate","w","w","g","g",1,1.26858491957137,NA,NA,NA
"experimental",14,30,"hd","lower","lawsuit","w","w","g","g",1,0.72724315589312,NA,NA,NA
"experimental",15,1,"hd","lower","inforl","nw","nw","h","h",1,0.536929709553078,NA,NA,NA
"experimental",15,2,"hd","lower","vibrate","w","w","g","g",1,0.82569153410077,NA,NA,NA
"experimental",15,3,"hd","lower","matter","w","w","g","g",1,0.63904368540534,NA,NA,NA
"experimental",15,4,"hd","lower","acoustic","w","w","g","g",1,0.571785000882301,NA,NA,NA
"experimental",15,5,"hd","lower","crundle","nw","nw","h","h",1,0.594203017400105,NA,NA,NA
"experimental",15,6,"hd","lower","spaceship","w","w","g","g",1,0.536956195085622,NA,NA,NA
"experimental",15,7,"hd","lower","recount","w","w","g","g",1,0.665732493976975,NA,NA,NA
"experimental",15,8,"hd","lower","except","w","w","g","g",1,0.557718534776541,NA,NA,NA
"experimental",15,9,"hd","lower","digar","nw","nw","h","h",1,0.525770030597414,NA,NA,NA
"experimental",15,10,"hd","lower","felevance","nw","nw","h","h",1,0.583296606346266,NA,NA,NA
"experimental",15,11,"hd","lower","gorilla","target","target","q","g",0,0.574595115838747,1,1,NA
"experimental",15,12,"hd","lower","vopings","aftertar1","nw","h","h",1,1.17407229143555,NA,NA,NA
"experimental",15,13,"hd","lower","mounting","aftertar2","w","g","g",1,0.589431648791106,NA,NA,NA
"experimental",15,14,"hd","lower","checkout","aftertar3","w","g","g",1,0.595225690009102,NA,NA,NA
"experimental",15,15,"hd","lower","ements","w","nw","h","h",1,0.601884483851791,NA,NA,NA
"experimental",15,16,"hd","lower","stalemate","nw","w","g","g",1,0.544018231154041,NA,NA,NA
"experimental",15,17,"hd","lower","spiud","w","nw","h","h",1,0.51266829999895,NA,NA,NA
"experimental",15,18,"hd","lower","aggepting","nw","nw","h","h",1,0.594625792706211,NA,NA,NA
"experimental",15,19,"hd","lower","chrayed","nw","nw","h","h",1,0.513406253137873,NA,NA,NA
"experimental",15,20,"hd","lower","attrove","nw","nw","h","h",1,0.643366455315117,NA,NA,NA
"experimental",15,21,"hd","lower","unsmilung","nw","nw","h","h",1,0.632128644039767,NA,NA,NA
"experimental",15,22,"hd","lower","dusmy","nw","nw","h","h",1,0.581483671672686,NA,NA,NA
"experimental",15,23,"hd","lower","triangle","nw","w","g","g",1,0.540903863647145,NA,NA,NA
"experimental",15,24,"hd","lower","burning","w","w","g","g",1,0.59676350621794,NA,NA,NA
"experimental",15,25,"hd","lower","imprives","w","nw","h","h",1,0.891497487188644,NA,NA,NA
"experimental",15,26,"hd","lower","fuintets","nw","nw","h","h",1,0.582256718141252,NA,NA,NA
"experimental",15,27,"hd","lower","glates","nw","nw","h","h",1,0.501760895736879,NA,NA,NA
"experimental",15,28,"hd","lower","explosion","nw","w","g","g",1,1.11179917726349,NA,NA,NA
"experimental",15,29,"hd","lower","probable","w","w","g","g",1,0.889844127846118,NA,NA,NA
"experimental",15,30,"hd","lower","target","w","w","g","g",1,0.612536302729495,NA,NA,NA
"experimental",16,1,"hd","lower","saturate","w","w","g","g",1,0.546573091794926,NA,NA,NA
"experimental",16,2,"hd","lower","nauling","nw","nw","h","h",1,0.547392156875503,NA,NA,NA
"experimental",16,3,"hd","lower","charcoal","w","w","g","g",1,0.66009140670667,NA,NA,NA
"experimental",16,4,"hd","lower","pripend","nw","nw","h","h",1,0.536140771764622,NA,NA,NA
"experimental",16,5,"hd","lower","summon","w","w","g","g",1,0.624877567485782,NA,NA,NA
"experimental",16,6,"hd","lower","mitro","nw","nw","h","h",1,0.622335287471287,NA,NA,NA
"experimental",16,7,"hd","lower","elpousal","nw","nw","h","h",1,0.642785760023799,NA,NA,NA
"experimental",16,8,"hd","lower","aicline","nw","nw","h","h",1,0.671414964891483,NA,NA,NA
"experimental",16,9,"hd","lower","overcoat","w","w","g","g",1,0.498779618028493,NA,NA,NA
"experimental",16,10,"hd","lower","digest","w","w","g","g",1,0.613496072198359,NA,NA,NA
"experimental",16,11,"hd","lower","sunhess","nw","nw","h","h",1,0.531547849427625,NA,NA,NA
"experimental",16,12,"hd","lower","forfeit","w","w","g","g",1,0.916927570845473,NA,NA,NA
"experimental",16,13,"hd","lower","chemical","w","w","g","g",1,0.551100131370731,NA,NA,NA
"experimental",16,14,"hd","lower","befin","nw","nw","h","h",1,0.503109671460152,NA,NA,NA
"experimental",16,15,"hd","lower","ezulated","nw","nw","h","h",1,0.489199469994674,NA,NA,NA
"experimental",16,16,"hd","lower","veranpah","nw","nw","h","h",1,0.491475901480044,NA,NA,NA
"experimental",16,17,"hd","lower","monkey","target","target","q","q",1,0.837450448221716,1,NA,NA
"experimental",16,18,"hd","lower","coupling","aftertar1","w","g","g",1,0.650475503203779,NA,NA,NA
"experimental",16,19,"hd","lower","hinsome","aftertar2","nw","h","h",1,0.5911585054846,NA,NA,NA
"experimental",16,20,"hd","lower","catacomb","aftertar3","w","g","g",1,0.621876094558502,NA,NA,NA
"experimental",16,21,"hd","lower","mestowal","w","nw","h","h",1,0.563393722170986,NA,NA,NA
"experimental",16,22,"hd","lower","greakable","nw","nw","h","h",1,0.531391253719448,NA,NA,NA
"experimental",16,23,"hd","lower","professor","nw","w","g","g",1,0.53278273736305,NA,NA,NA
"experimental",16,24,"hd","lower","rawhide","w","w","g","g",1,0.822156708772127,NA,NA,NA
"experimental",16,25,"hd","lower","bureaug","w","nw","h","h",1,0.483561362346336,NA,NA,NA
"experimental",16,26,"hd","lower","wrestle","nw","w","g","g",1,0.615001443629808,NA,NA,NA
"experimental",16,27,"hd","lower","serving","w","w","g","g",1,0.612049962145647,NA,NA,NA
"experimental",16,28,"hd","lower","daining","w","nw","h","h",1,0.810050503112507,NA,NA,NA
"experimental",16,29,"hd","lower","bookend","nw","w","g","g",1,0.744146222486961,NA,NA,NA
"experimental",16,30,"hd","lower","thaken","w","nw","h","h",1,0.656858847511103,NA,NA,NA
"experimental",17,1,"hd","lower","legalosm","nw","nw","h","h",1,0.47793285570242,NA,NA,NA
"experimental",17,2,"hd","lower","yash","nw","nw","h","h",1,0.512401127194607,NA,NA,NA
"experimental",17,3,"hd","lower","addition","w","w","g","g",1,0.498397233159267,NA,NA,NA
"experimental",17,4,"hd","lower","thamp","nw","nw","h","h",1,0.581100293595227,NA,NA,NA
"experimental",17,5,"hd","lower","frigs","nw","nw","h","h",1,0.540481419408934,NA,NA,NA
"experimental",17,6,"hd","lower","movie","w","w","g","g",1,0.549403070901462,NA,NA,NA
"experimental",17,7,"hd","lower","tusied","nw","nw","h","h",1,0.509946911574843,NA,NA,NA
"experimental",17,8,"hd","lower","remade","w","w","g","g",1,0.520017373022711,NA,NA,NA
"experimental",17,9,"hd","lower","rejoiced","w","w","g","g",1,0.425380593954287,NA,NA,NA
"experimental",17,10,"hd","lower","lignpost","nw","nw","h","h",1,0.478806547193926,NA,NA,NA
"experimental",17,11,"hd","lower","axis","w","w","g","g",1,0.5460211995196,NA,NA,NA
"experimental",17,12,"hd","lower","fomes","nw","nw","h","h",1,0.961961583236189,NA,NA,NA
"experimental",17,13,"hd","lower","arcients","nw","nw","h","h",1,0.794105219573794,NA,NA,NA
"experimental",17,14,"hd","lower","apticle","nw","nw","h","h",1,0.52080962150194,NA,NA,NA
"experimental",17,15,"hd","lower","trooper","w","w","g","g",1,0.562267093848277,NA,NA,NA
"experimental",17,16,"hd","lower","undue","w","w","g","h",0,0.466417608478878,NA,NA,NA
"experimental",17,17,"hd","lower","tycoon","w","w","g","g",1,0.814427568362589,NA,NA,NA
"experimental",17,18,"hd","lower","jiggling","w","w","g","g",1,0.612439299467042,NA,NA,NA
"experimental",17,19,"hd","lower","otiates","nw","nw","h","h",1,0.554538946646971,NA,NA,NA
"experimental",17,20,"hd","lower","inversion","w","w","g","g",1,0.690591483348726,NA,NA,NA
"experimental",17,21,"hd","lower","computer","w","w","g","g",1,0.62044422047984,NA,NA,NA
"experimental",17,22,"hd","lower","plapping","nw","nw","h","h",1,0.569681718563515,NA,NA,NA
"experimental",17,23,"hd","lower","endgume","nw","nw","h","h",1,0.67317062460188,NA,NA,NA
"experimental",17,24,"hd","lower","retona","nw","nw","h","h",1,0.532688713723473,NA,NA,NA
"experimental",17,25,"hd","lower","student","w","w","g","g",1,0.638001479716877,NA,NA,NA
"experimental",17,26,"hd","lower","runabouk","nw","nw","h","h",1,0.570710019347644,NA,NA,NA
"experimental",17,27,"hd","lower","disperse","w","w","g","g",1,0.882105055362445,NA,NA,NA
"experimental",17,28,"hd","lower","strenuous","w","w","g","g",1,0.797525163906357,NA,NA,NA
"experimental",17,29,"hd","lower","rangel","nw","nw","h","h",1,0.524337494379324,NA,NA,NA
"experimental",17,30,"hd","lower","kangaroo","target","target","q","g",0,0.556737907951174,1,1,NA
"experimental",18,1,"ld","upper","clooped","nw","nw","h","h",1,0.53384844896118,NA,NA,NA
"experimental",18,2,"ld","upper","exclusion","w","w","g","g",1,0.518390830281533,NA,NA,NA
"experimental",18,3,"ld","upper","artifact","w","w","g","g",1,0.519700208776158,NA,NA,NA
"experimental",18,4,"ld","upper","theles","nw","nw","h","h",1,0.561213962877446,NA,NA,NA
"experimental",18,5,"ld","upper","chesume","nw","nw","h","h",1,0.552879959129314,NA,NA,NA
"experimental",18,6,"ld","upper","unspoken","w","w","g","g",1,0.559798973325087,NA,NA,NA
"experimental",18,7,"ld","upper","shests","nw","nw","h","h",1,0.616409480730908,NA,NA,NA
"experimental",18,8,"ld","upper","defeat","w","w","g","g",1,0.550562144000651,NA,NA,NA
"experimental",18,9,"ld","upper","truthful","w","w","g","g",1,0.615242130903425,NA,NA,NA
"experimental",18,10,"ld","upper","miracle","w","w","g","g",1,0.46936213751178,NA,NA,NA
"experimental",18,11,"ld","upper","coyote","target","target","q","g",0,0.51272226427136,1,1,NA
"experimental",18,12,"ld","upper","manage","aftertar1","w","g","g",1,0.786838582768723,NA,NA,NA
"experimental",18,13,"ld","upper","despise","aftertar2","w","g","g",1,0.753570768020836,NA,NA,NA
"experimental",18,14,"ld","upper","distrust","aftertar3","w","g","g",1,0.68161454330766,NA,NA,NA
"experimental",18,15,"ld","upper","profats","w","nw","h","h",1,0.604046365409886,NA,NA,NA
"experimental",18,16,"ld","upper","hutting","nw","nw","h","h",1,0.898114897386222,NA,NA,NA
"experimental",18,17,"ld","upper","heuls","nw","nw","h","h",1,0.532909867916715,NA,NA,NA
"experimental",18,18,"ld","upper","olerates","nw","nw","h","h",1,0.558256191078726,NA,NA,NA
"experimental",18,19,"ld","upper","antwers","nw","nw","h","h",1,0.694408379595188,NA,NA,NA
"experimental",18,20,"ld","upper","overwork","nw","w","g","g",1,0.577065222777492,NA,NA,NA
"experimental",18,21,"ld","upper","cogantly","w","nw","h","h",1,1.01652906290838,NA,NA,NA
"experimental",18,22,"ld","upper","soluced","nw","nw","h","h",1,0.718576096578545,NA,NA,NA
"experimental",18,23,"ld","upper","clattest","nw","nw","h","h",1,0.615151749024335,NA,NA,NA
"experimental",18,24,"ld","upper","attended","nw","w","g","g",1,0.749188736732322,NA,NA,NA
"experimental",18,25,"ld","upper","regional","w","w","g","g",1,0.629762492814734,NA,NA,NA
"experimental",18,26,"ld","upper","rearrange","w","w","g","g",1,0.667245148930306,NA,NA,NA
"experimental",18,27,"ld","upper","parlayid","w","nw","h","h",1,0.614602836371887,NA,NA,NA
"experimental",18,28,"ld","upper","golemic","nw","nw","h","h",1,0.604578062467226,NA,NA,NA
"experimental",18,29,"ld","upper","anemic","nw","w","g","g",1,0.762721519365186,NA,NA,NA
"experimental",18,30,"ld","upper","ameld","w","nw","h","h",1,0.634703368829832,NA,NA,NA
"experimental",19,1,"ld","upper","figure","w","w","g","g",1,0.511396994458664,NA,NA,NA
"experimental",19,2,"ld","upper","lightels","nw","nw","h","h",1,0.561505634800596,NA,NA,NA
"experimental",19,3,"ld","upper","desert","w","w","g","g",1,0.577626716058148,NA,NA,NA
"experimental",19,4,"ld","upper","sength","nw","nw","h","h",1,0.529081384250276,NA,NA,NA
"experimental",19,5,"ld","upper","gradielts","nw","nw","h","h",1,0.594411259897242,NA,NA,NA
"experimental",19,6,"ld","upper","stifle","w","w","g","g",1,0.857244410645762,NA,NA,NA
"experimental",19,7,"ld","upper","obviously","w","w","g","g",1,0.501255353143279,NA,NA,NA
"experimental",19,8,"ld","upper","module","w","w","g","g",1,0.495375233945197,NA,NA,NA
"experimental",19,9,"ld","upper","buttress","w","w","g","g",1,0.625041446714931,NA,NA,NA
"experimental",19,10,"ld","upper","inducing","w","w","g","g",1,0.534396368406306,NA,NA,NA
"experimental",19,11,"ld","upper","bingu","nw","nw","h","h",1,0.61517194424323,NA,NA,NA
"experimental",19,12,"ld","upper","unwose","nw","nw","h","h",1,0.821337974760354,NA,NA,NA
"experimental",19,13,"ld","upper","greft","nw","nw","h","h",1,0.70667316737854,NA,NA,NA
"experimental",19,14,"ld","upper","dorth","nw","nw","h","h",1,0.580779156518474,NA,NA,NA
"experimental",19,15,"ld","upper","teliever","nw","nw","h","h",1,0.620159501008857,NA,NA,NA
"experimental",19,16,"ld","upper","analysis","w","w","g","g",1,0.61754107509114,NA,NA,NA
"experimental",19,17,"ld","upper","region","w","w","g","g",1,0.695012911865888,NA,NA,NA
"experimental",19,18,"ld","upper","swatches","w","w","g","g",1,0.720713810089364,NA,NA,NA
"experimental",19,19,"ld","upper","funtair","nw","nw","h","h",1,0.594133823948141,NA,NA,NA
"experimental",19,20,"ld","upper","castaway","w","w","g","g",1,0.65687209027783,NA,NA,NA
"experimental",19,21,"ld","upper","atble","nw","nw","h","h",1,0.588933389717567,NA,NA,NA
"experimental",19,22,"ld","upper","dounger","nw","nw","h","h",1,0.539672286403402,NA,NA,NA
"experimental",19,23,"ld","upper","expensive","w","w","g","g",1,0.524307698155098,NA,NA,NA
"experimental",19,24,"ld","upper","dabble","w","w","g","g",1,0.781700389538855,NA,NA,NA
"experimental",19,25,"ld","upper","deakers","nw","nw","h","h",1,0.621031868223326,NA,NA,NA
"experimental",19,26,"ld","upper","withep","nw","nw","h","h",1,0.466437141559254,NA,NA,NA
"experimental",19,27,"ld","upper","whirlpool","w","w","g","g",1,0.533533933266881,NA,NA,NA
"experimental",19,28,"ld","upper","subpoena","w","w","g","h",0,0.550252925412678,NA,NA,NA
"experimental",19,29,"ld","upper","carony","nw","nw","h","h",1,0.847630824626322,NA,NA,NA
"experimental",19,30,"ld","upper","horks","nw","nw","h","h",1,0.700486478145649,NA,NA,NA
"experimental",20,1,"hd","lower","leather","w","w","g","g",1,0.503329170307552,NA,NA,NA
"experimental",20,2,"hd","lower","prawls","nw","nw","h","g",0,0.60157460312621,NA,NA,NA
"experimental",20,3,"hd","lower","hegacy","nw","nw","h","h",1,0.542636348515771,NA,NA,NA
"experimental",20,4,"hd","lower","marvel","w","w","g","g",1,0.799440398947809,NA,NA,NA
"experimental",20,5,"hd","lower","naxis","nw","nw","h","h",1,0.798171079821259,NA,NA,NA
"experimental",20,6,"hd","lower","hardest","w","w","g","g",1,0.548921696355137,NA,NA,NA
"experimental",20,7,"hd","lower","halms","nw","nw","h","h",1,0.661616973356104,NA,NA,NA
"experimental",20,8,"hd","lower","plashed","nw","nw","h","h",1,0.521720392737734,NA,NA,NA
"experimental",20,9,"hd","lower","phambled","nw","nw","h","h",1,0.995083065418839,NA,NA,NA
"experimental",20,10,"hd","lower","beartiset","nw","nw","h","h",1,0.793828776832015,NA,NA,NA
"experimental",20,11,"hd","lower","marinate","w","w","g","g",1,0.559675153462194,NA,NA,NA
"experimental",20,12,"hd","lower","lavilion","nw","nw","h","h",1,0.503624152920565,NA,NA,NA
"experimental",20,13,"hd","lower","ronvince","nw","nw","h","h",1,0.473709406538546,NA,NA,NA
"experimental",20,14,"hd","lower","oldest","w","w","g","g",1,0.917258308928467,NA,NA,NA
"experimental",20,15,"hd","lower","sequence","w","w","g","g",1,0.58255203182398,NA,NA,NA
"experimental",20,16,"hd","lower","dileting","nw","nw","h","h",1,0.765879919069448,NA,NA,NA
"experimental",20,17,"hd","lower","moisture","w","w","g","g",1,0.685891956744854,NA,NA,NA
"experimental",20,18,"hd","lower","curtail","w","w","g","g",1,0.648612246019184,NA,NA,NA
"experimental",20,19,"hd","lower","calming","w","w","g","g",1,0.557227890295508,NA,NA,NA
"experimental",20,20,"hd","lower","warden","w","w","g","g",1,0.500555141888071,NA,NA,NA
"experimental",20,21,"hd","lower","rowel","nw","nw","h","h",1,0.622364421556995,NA,NA,NA
"experimental",20,22,"hd","lower","arrow","w","w","g","h",0,0.499811229505212,NA,NA,NA
"experimental",20,23,"hd","lower","gettle","nw","nw","h","h",1,1.39858253256261,NA,NA,NA
"experimental",20,24,"hd","lower","hemoter","nw","nw","h","h",1,0.589293261885359,NA,NA,NA
"experimental",20,25,"hd","lower","telecast","w","w","g","g",1,0.700085884472173,NA,NA,NA
"experimental",20,26,"hd","lower","etcess","nw","nw","h","h",1,0.654859851975743,NA,NA,NA
"experimental",20,27,"hd","lower","sliding","w","w","g","g",1,0.61891898489921,NA,NA,NA
"experimental",20,28,"hd","lower","envelop","w","w","g","g",1,0.504374024549179,NA,NA,NA
"experimental",20,29,"hd","lower","coverall","w","w","g","g",1,0.882457975078069,NA,NA,NA
"experimental",20,30,"hd","lower","chicken","target","target","q","q",1,0.796830249758386,1,NA,NA
"experimental",21,1,"ld","upper","arrive","w","w","g","g",1,0.500569708930016,NA,NA,NA
"experimental",21,2,"ld","upper","scatter","w","w","g","g",1,0.558633940980144,NA,NA,NA
"experimental",21,3,"ld","upper","partner","w","w","g","g",1,0.438649845543296,NA,NA,NA
"experimental",21,4,"ld","upper","geborn","nw","nw","h","h",1,0.443388107237297,NA,NA,NA
"experimental",21,5,"ld","upper","pexts","nw","nw","h","h",1,0.511187096615686,NA,NA,NA
"experimental",21,6,"ld","upper","trembla","nw","nw","h","h",1,0.553172624258877,NA,NA,NA
"experimental",21,7,"ld","upper","command","w","w","g","g",1,0.633326452229994,NA,NA,NA
"experimental",21,8,"ld","upper","ebciting","nw","nw","h","h",1,0.558685587768196,NA,NA,NA
"experimental",21,9,"ld","upper","footstep","w","w","g","g",1,1.03079681905729,NA,NA,NA
"experimental",21,10,"ld","upper","chight","nw","nw","h","h",1,0.508135301178299,NA,NA,NA
"experimental",21,11,"ld","upper","pakened","nw","nw","h","h",1,0.614201580559893,NA,NA,NA
"experimental",21,12,"ld","upper","grummer","nw","nw","h","h",1,1.04427729276449,NA,NA,NA
"experimental",21,13,"ld","upper","forecast","w","w","g","g",1,0.481031000822441,NA,NA,NA
"experimental",21,14,"ld","upper","number","w","w","g","g",1,0.531432637362741,NA,NA,NA
"experimental",21,15,"ld","upper","blipover","nw","nw","h","h",1,0.604606534414415,NA,NA,NA
"experimental",21,16,"ld","upper","fission","w","w","g","g",1,0.658517172891152,NA,NA,NA
"experimental",21,17,"ld","upper","permeable","w","w","g","g",1,0.718606886009184,NA,NA,NA
"experimental",21,18,"ld","upper","educate","w","w","g","g",1,0.584562614780225,NA,NA,NA
"experimental",21,19,"ld","upper","mandlers","nw","nw","h","h",1,0.527204884299863,NA,NA,NA
"experimental",21,20,"ld","upper","sonnet","w","w","g","g",1,0.688545475992214,NA,NA,NA
"experimental",21,21,"ld","upper","cemoir","nw","nw","h","h",1,0.619451013025355,NA,NA,NA
"experimental",21,22,"ld","upper","govern","w","w","g","g",1,0.656823423111746,NA,NA,NA
"experimental",21,23,"ld","upper","glattery","nw","nw","h","h",1,0.979940955640814,NA,NA,NA
"experimental",21,24,"ld","upper","contund","nw","nw","h","h",1,0.75530788785818,NA,NA,NA
"experimental",21,25,"ld","upper","nimp","nw","nw","h","h",1,0.707322725053018,NA,NA,NA
"experimental",21,26,"ld","upper","sequence","w","w","g","g",1,0.637451573856197,NA,NA,NA
"experimental",21,27,"ld","upper","offonents","nw","nw","h","h",1,0.570121378396834,NA,NA,NA
"experimental",21,28,"ld","upper","release","w","w","g","g",1,0.593535913059895,NA,NA,NA
"experimental",21,29,"ld","upper","trallion","nw","nw","h","h",1,0.592297714433698,NA,NA,NA
"experimental",21,30,"ld","upper","rapport","w","w","g","h",0,0.447072906892572,NA,NA,NA
"experimental",22,1,"ld","upper","schides","nw","nw","h","h",1,0.547726205649269,NA,NA,NA
"experimental",22,2,"ld","upper","stelled","nw","nw","h","h",1,0.940523862474038,NA,NA,NA
"experimental",22,3,"ld","upper","browting","nw","nw","h","h",1,0.581255233958473,NA,NA,NA
"experimental",22,4,"ld","upper","fuhrek","nw","nw","h","h",1,0.540623117006362,NA,NA,NA
"experimental",22,5,"ld","upper","bloodless","w","w","g","g",1,0.701315475301271,NA,NA,NA
"experimental",22,6,"ld","upper","egcused","nw","nw","h","h",1,0.535296214359732,NA,NA,NA
"experimental",22,7,"ld","upper","scrooner","nw","nw","h","h",1,0.815071497862846,NA,NA,NA
"experimental",22,8,"ld","upper","levels","w","w","g","g",1,0.94911941085229,NA,NA,NA
"experimental",22,9,"ld","upper","illness","w","w","g","g",1,0.661822236229455,NA,NA,NA
"experimental",22,10,"ld","upper","fallacy","w","w","g","g",1,0.641923987022892,NA,NA,NA
"experimental",22,11,"ld","upper","suburb","w","w","g","g",1,0.846731309742609,NA,NA,NA
"experimental",22,12,"ld","upper","tracing","w","w","g","g",1,0.97942879166294,NA,NA,NA
"experimental",22,13,"ld","upper","actual","w","w","g","g",1,0.490871700278149,NA,NA,NA
"experimental",22,14,"ld","upper","hangar","w","w","g","g",1,0.485641800893063,NA,NA,NA
"experimental",22,15,"ld","upper","resume","w","w","g","g",1,0.496369434607004,NA,NA,NA
"experimental",22,16,"ld","upper","prominent","w","w","g","g",1,0.547134916145296,NA,NA,NA
"experimental",22,17,"ld","upper","latter","w","w","g","g",1,0.418843633559845,NA,NA,NA
"experimental",22,18,"ld","upper","butled","nw","nw","h","h",1,0.648340107177319,NA,NA,NA
"experimental",22,19,"ld","upper","fuestion","nw","nw","h","h",1,0.684967280603814,NA,NA,NA
"experimental",22,20,"ld","upper","official","w","w","g","g",1,0.575760479251585,NA,NA,NA
"experimental",22,21,"ld","upper","snays","nw","nw","h","h",1,0.927223159315872,NA,NA,NA
"experimental",22,22,"ld","upper","vinegar","w","w","g","g",1,0.568591507847486,NA,NA,NA
"experimental",22,23,"ld","upper","chining","nw","nw","h","h",1,0.807992908336928,NA,NA,NA
"experimental",22,24,"ld","upper","cayward","nw","nw","h","h",1,0.622088640954644,NA,NA,NA
"experimental",22,25,"ld","upper","passet","nw","nw","h","h",1,0.731476868201753,NA,NA,NA
"experimental",22,26,"ld","upper","couple","w","w","g","g",1,0.899992059475153,NA,NA,NA
"experimental",22,27,"ld","upper","undertake","w","w","g","g",1,0.942666210952666,NA,NA,NA
"experimental",22,28,"ld","upper","lovud","nw","nw","h","h",1,0.607397116291395,NA,NA,NA
"experimental",22,29,"ld","upper","huzzles","nw","nw","h","h",1,0.621476494093258,NA,NA,NA
"experimental",22,30,"ld","upper","houted","nw","nw","h","h",1,0.54689191138732,NA,NA,NA
"experimental",23,1,"ld","upper","dreaded","w","w","g","g",1,0.603435542825537,NA,NA,NA
"experimental",23,2,"ld","upper","misest","nw","nw","h","h",1,0.705588253768838,NA,NA,NA
"experimental",23,3,"ld","upper","dumult","nw","nw","h","h",1,0.515484374201151,NA,NA,NA
"experimental",23,4,"ld","upper","pleamed","nw","nw","h","h",1,0.573796577045869,NA,NA,NA
"experimental",23,5,"ld","upper","poars","nw","nw","h","h",1,0.5252515763068,NA,NA,NA
"experimental",23,6,"ld","upper","exploit","w","w","g","g",1,0.51814186627962,NA,NA,NA
"experimental",23,7,"ld","upper","itfidels","nw","nw","h","h",1,0.495961557412556,NA,NA,NA
"experimental",23,8,"ld","upper","hindsight","w","w","g","g",1,0.842589634658907,NA,NA,NA
"experimental",23,9,"ld","upper","colicky","w","w","g","g",1,0.943515403326273,NA,NA,NA
"experimental",23,10,"ld","upper","wimpid","nw","nw","h","h",1,0.599480921811846,NA,NA,NA
"experimental",23,11,"ld","upper","slooch","nw","nw","h","h",1,0.670076783381774,NA,NA,NA
"experimental",23,12,"ld","upper","lentils","w","w","g","g",1,0.76140253986614,NA,NA,NA
"experimental",23,13,"ld","upper","anterior","w","w","g","g",1,0.545462354792107,NA,NA,NA
"experimental",23,14,"ld","upper","neuran","nw","nw","h","h",1,0.642278231014643,NA,NA,NA
"experimental",23,15,"ld","upper","infancy","w","w","g","g",1,0.583051615173645,NA,NA,NA
"experimental",23,16,"ld","upper","glating","nw","nw","h","h",1,0.766432473483292,NA,NA,NA
"experimental",23,17,"ld","upper","poughest","nw","nw","h","h",1,0.742462735852314,NA,NA,NA
"experimental",23,18,"ld","upper","neally","nw","nw","h","h",1,0.631242371921871,NA,NA,NA
"experimental",23,19,"ld","upper","affluent","w","w","g","g",1,0.563649307555352,NA,NA,NA
"experimental",23,20,"ld","upper","shivering","w","w","g","g",1,0.587663408452499,NA,NA,NA
"experimental",23,21,"ld","upper","caution","w","w","g","h",0,0.442394237645203,NA,NA,NA
"experimental",23,22,"ld","upper","esdings","nw","nw","h","h",1,1.00717735258877,NA,NA,NA
"experimental",23,23,"ld","upper","reses","nw","nw","h","h",1,0.709317416690283,NA,NA,NA
"experimental",23,24,"ld","upper","fragment","w","w","g","g",1,0.655347847905432,NA,NA,NA
"experimental",23,25,"ld","upper","happen","w","w","g","g",1,0.603358734781978,NA,NA,NA
"experimental",23,26,"ld","upper","entertain","w","w","g","g",1,0.56134738374567,NA,NA,NA
"experimental",23,27,"ld","upper","dominion","w","w","g","g",1,0.601340537235956,NA,NA,NA
"experimental",23,28,"ld","upper","abstain","w","w","g","g",1,0.582569909558515,NA,NA,NA
"experimental",23,29,"ld","upper","ubefully","nw","nw","h","h",1,0.893670294029107,NA,NA,NA
"experimental",23,30,"ld","upper","lutton","nw","nw","h","h",1,0.576540478172319,NA,NA,NA
"experimental",24,1,"hd","lower","filter","w","w","g","g",1,0.552207226613973,NA,NA,NA
"experimental",24,2,"hd","lower","hatred","w","w","g","g",1,0.728376736667087,NA,NA,NA
"experimental",24,3,"hd","lower","balign","nw","nw","h","h",1,0.640798351907506,NA,NA,NA
"experimental",24,4,"hd","lower","forgery","w","w","g","g",1,0.533465401952526,NA,NA,NA
"experimental",24,5,"hd","lower","deceit","w","w","g","g",1,0.614945161873948,NA,NA,NA
"experimental",24,6,"hd","lower","pegend","nw","nw","h","h",1,0.78096309853845,NA,NA,NA
"experimental",24,7,"hd","lower","boulder","w","w","g","g",1,0.556404190246212,NA,NA,NA
"experimental",24,8,"hd","lower","urique","nw","nw","h","h",1,0.636426252694037,NA,NA,NA
"experimental",24,9,"hd","lower","pregs","nw","nw","h","h",1,0.753296973832221,NA,NA,NA
"experimental",24,10,"hd","lower","monopoly","w","w","g","g",1,0.56934369695955,NA,NA,NA
"experimental",24,11,"hd","lower","riosk","nw","nw","h","h",1,0.824676145013655,NA,NA,NA
"experimental",24,12,"hd","lower","kiner","nw","nw","h","h",1,0.741157992327317,NA,NA,NA
"experimental",24,13,"hd","lower","slightly","w","w","g","g",1,0.789801982743484,NA,NA,NA
"experimental",24,14,"hd","lower","visible","w","w","g","g",1,0.508544502649784,NA,NA,NA
"experimental",24,15,"hd","lower","perishing","w","w","g","g",1,0.614647861776575,NA,NA,NA
"experimental",24,16,"hd","lower","neliefs","nw","nw","h","h",1,0.740736210227624,NA,NA,NA
"experimental",24,17,"hd","lower","arbitrary","w","w","g","g",1,0.557463611529784,NA,NA,NA
"experimental",24,18,"hd","lower","valif","nw","nw","h","h",1,0.5975613828723,NA,NA,NA
"experimental",24,19,"hd","lower","unlined","w","w","g","g",1,0.932281233811409,NA,NA,NA
"experimental",24,20,"hd","lower","amplifier","w","w","g","g",1,0.501614232103748,NA,NA,NA
"experimental",24,21,"hd","lower","downtrund","nw","nw","h","h",1,0.719617971198204,NA,NA,NA
"experimental",24,22,"hd","lower","presently","w","w","g","g",1,0.520015055538352,NA,NA,NA
"experimental",24,23,"hd","lower","doads","nw","nw","h","h",1,0.593347534713757,NA,NA,NA
"experimental",24,24,"hd","lower","elormity","nw","nw","h","h",1,0.784078128183864,NA,NA,NA
"experimental",24,25,"hd","lower","demise","w","w","g","g",1,0.671213674847422,NA,NA,NA
"experimental",24,26,"hd","lower","optional","w","w","g","g",1,0.706927097417974,NA,NA,NA
"experimental",24,27,"hd","lower","hostade","nw","nw","h","h",1,0.748963278640986,NA,NA,NA
"experimental",24,28,"hd","lower","prame","nw","nw","h","h",1,0.653647807812376,NA,NA,NA
"experimental",24,29,"hd","lower","slimped","nw","nw","h","h",1,0.753791260075559,NA,NA,NA
"experimental",24,30,"hd","lower","mennel","nw","nw","h","h",1,0.585929930376551,NA,NA,NA
"experimental",25,1,"hd","lower","nomma","nw","nw","h","h",1,0.51264380088287,NA,NA,NA
"experimental",25,2,"hd","lower","crimb","nw","nw","h","h",1,0.626706393478344,NA,NA,NA
"experimental",25,3,"hd","lower","legalize","w","w","g","g",1,0.57614749908953,NA,NA,NA
"experimental",25,4,"hd","lower","mining","w","w","g","g",1,0.799589048996495,NA,NA,NA
"experimental",25,5,"hd","lower","surface","w","w","g","g",1,0.590338447195791,NA,NA,NA
"experimental",25,6,"hd","lower","trewl","nw","nw","h","h",1,0.531992144228752,NA,NA,NA
"experimental",25,7,"hd","lower","erlighten","nw","nw","h","h",1,0.557387465625652,NA,NA,NA
"experimental",25,8,"hd","lower","moyeur","nw","nw","h","h",1,0.52546941980745,NA,NA,NA
"experimental",25,9,"hd","lower","draze","nw","nw","h","h",1,0.990928809706929,NA,NA,NA
"experimental",25,10,"hd","lower","sweeping","w","w","g","g",1,0.645582632215337,NA,NA,NA
"experimental",25,11,"hd","lower","audience","w","w","g","g",1,0.63458749462734,NA,NA,NA
"experimental",25,12,"hd","lower","cills","nw","nw","h","h",1,0.775164091282932,NA,NA,NA
"experimental",25,13,"hd","lower","elderly","w","w","g","g",1,0.765681277579461,NA,NA,NA
"experimental",25,14,"hd","lower","nimono","nw","nw","h","h",1,0.758587458872171,NA,NA,NA
"experimental",25,15,"hd","lower","farochial","nw","nw","h","h",1,0.573711823342819,NA,NA,NA
"experimental",25,16,"hd","lower","mopping","w","w","g","g",1,0.653017121078847,NA,NA,NA
"experimental",25,17,"hd","lower","efcorted","nw","nw","h","h",1,0.8410653922856,NA,NA,NA
"experimental",25,18,"hd","lower","glapula","nw","nw","h","h",1,0.675512276709924,NA,NA,NA
"experimental",25,19,"hd","lower","decency","w","w","g","g",1,0.62516659085486,NA,NA,NA
"experimental",25,20,"hd","lower","pressures","w","w","g","g",1,0.638682157891708,NA,NA,NA
"experimental",25,21,"hd","lower","reconcile","w","w","g","g",1,0.69955319420842,NA,NA,NA
"experimental",25,22,"hd","lower","appain","nw","nw","h","h",1,0.638222964978922,NA,NA,NA
"experimental",25,23,"hd","lower","giving","w","w","g","h",0,0.522981766203884,NA,NA,NA
"experimental",25,24,"hd","lower","cripet","nw","nw","h","h",1,0.739417561798291,NA,NA,NA
"experimental",25,25,"hd","lower","inverted","w","w","g","g",1,0.716128502343054,NA,NA,NA
"experimental",25,26,"hd","lower","spider","target","target","q","q",1,1.20619891081878,1,NA,NA
"experimental",25,27,"hd","lower","pillage","aftertar1","w","g","h",0,0.620279348041549,NA,NA,NA
"experimental",25,28,"hd","lower","define","aftertar2","w","g","g",1,1.24170905692972,NA,NA,NA
"experimental",25,29,"hd","lower","exit","aftertar3","w","g","g",1,0.518434862478898,NA,NA,NA
"experimental",25,30,"hd","lower","havel","w","nw","h","h",1,0.559898625138885,NA,NA,NA
"experimental",26,1,"hd","lower","rational","w","w","g","g",1,0.599954019629877,NA,NA,NA
"experimental",26,2,"hd","lower","committed","w","w","g","g",1,0.46262090745131,NA,NA,NA
"experimental",26,3,"hd","lower","podes","nw","nw","h","h",1,0.506721635901158,NA,NA,NA
"experimental",26,4,"hd","lower","season","w","w","g","g",1,0.564777922292706,NA,NA,NA
"experimental",26,5,"hd","lower","expected","w","w","g","g",1,0.644864543225594,NA,NA,NA
"experimental",26,6,"hd","lower","nores","nw","nw","h","h",1,0.641588613972999,NA,NA,NA
"experimental",26,7,"hd","lower","oppose","w","w","g","g",1,0.526337152054111,NA,NA,NA
"experimental",26,8,"hd","lower","widely","w","w","g","g",1,0.446657415107438,NA,NA,NA
"experimental",26,9,"hd","lower","itself","w","w","g","g",1,0.851301719377261,NA,NA,NA
"experimental",26,10,"hd","lower","flacked","nw","nw","h","h",1,0.551365317762247,NA,NA,NA
"experimental",26,11,"hd","lower","loached","nw","nw","h","h",1,0.631408237566575,NA,NA,NA
"experimental",26,12,"hd","lower","fashing","nw","nw","h","h",1,0.612247610429222,NA,NA,NA
"experimental",26,13,"hd","lower","grenavier","nw","nw","h","h",1,0.554812078697069,NA,NA,NA
"experimental",26,14,"hd","lower","ghists","nw","nw","h","h",1,0.555021976539138,NA,NA,NA
"experimental",26,15,"hd","lower","crocodile","target","target","q","g",0,0.619207015060056,1,1,NA
"experimental",26,16,"hd","lower","earnest","aftertar1","w","g","g",1,0.792628982227143,NA,NA,NA
"experimental",26,17,"hd","lower","stuggard","aftertar2","nw","h","h",1,0.61534707982355,NA,NA,NA
"experimental",26,18,"hd","lower","noblest","aftertar3","w","g","g",1,0.996417936237776,NA,NA,NA
"experimental",26,19,"hd","lower","joadbed","w","nw","h","h",1,0.611143163739143,NA,NA,NA
"experimental",26,20,"hd","lower","roughly","nw","w","g","g",1,0.625182482173841,NA,NA,NA
"experimental",26,21,"hd","lower","bulmed","w","nw","h","h",1,0.934629176234012,NA,NA,NA
"experimental",26,22,"hd","lower","peems","nw","nw","h","h",1,0.727399089463688,NA,NA,NA
"experimental",26,23,"hd","lower","servant","nw","w","g","g",1,0.584762580548158,NA,NA,NA
"experimental",26,24,"hd","lower","arrigns","w","nw","h","h",1,0.85551689181284,NA,NA,NA
"experimental",26,25,"hd","lower","deserve","nw","w","g","g",1,0.986859969835678,NA,NA,NA
"experimental",26,26,"hd","lower","refebs","w","nw","h","h",1,0.785432201014373,NA,NA,NA
"experimental",26,27,"hd","lower","dentures","nw","w","g","g",1,0.6881015122608,NA,NA,NA
"experimental",26,28,"hd","lower","finstrel","w","nw","h","h",1,0.578807639722072,NA,NA,NA
"experimental",26,29,"hd","lower","massacre","nw","w","g","g",1,0.674299239338325,NA,NA,NA
"experimental",26,30,"hd","lower","standard","w","w","g","g",1,0.589659755435605,NA,NA,NA
"experimental",27,1,"hd","lower","showdown","w","w","g","g",1,0.556381677543868,NA,NA,NA
"experimental",27,2,"hd","lower","curricula","w","w","g","g",1,0.636232908309466,NA,NA,NA
"experimental",27,3,"hd","lower","turntable","w","w","g","g",1,0.633069873637396,NA,NA,NA
"experimental",27,4,"hd","lower","tibs","nw","nw","h","h",1,0.62237203614859,NA,NA,NA
"experimental",27,5,"hd","lower","collision","w","w","g","g",1,0.539808024755075,NA,NA,NA
"experimental",27,6,"hd","lower","natch","nw","nw","h","h",1,0.53261952027151,NA,NA,NA
"experimental",27,7,"hd","lower","railway","w","w","g","g",1,0.605995700572748,NA,NA,NA
"experimental",27,8,"hd","lower","sludding","nw","nw","h","h",1,0.612167160625177,NA,NA,NA
"experimental",27,9,"hd","lower","seighing","nw","nw","h","h",1,0.938123942195489,NA,NA,NA
"experimental",27,10,"hd","lower","owner","w","w","g","g",1,0.641913723879043,NA,NA,NA
"experimental",27,11,"hd","lower","superstar","w","w","g","g",1,0.694642776554247,NA,NA,NA
"experimental",27,12,"hd","lower","otoist","nw","nw","h","h",1,0.745390380358003,NA,NA,NA
"experimental",27,13,"hd","lower","elalt","nw","nw","h","h",1,0.706125247932505,NA,NA,NA
"experimental",27,14,"hd","lower","unstatle","nw","nw","h","h",1,0.748212413805049,NA,NA,NA
"experimental",27,15,"hd","lower","shillac","nw","nw","h","h",1,0.588994306441236,NA,NA,NA
"experimental",27,16,"hd","lower","adok","nw","nw","h","h",1,0.563735054465724,NA,NA,NA
"experimental",27,17,"hd","lower","anonymous","w","w","g","g",1,0.60381296165906,NA,NA,NA
"experimental",27,18,"hd","lower","removable","w","w","g","g",1,0.634070364612853,NA,NA,NA
"experimental",27,19,"hd","lower","irregular","w","w","g","g",1,0.582617252446653,NA,NA,NA
"experimental",27,20,"hd","lower","lofty","w","w","g","g",1,0.692947040360195,NA,NA,NA
"experimental",27,21,"hd","lower","snife","nw","nw","h","h",1,0.61575197739603,NA,NA,NA
"experimental",27,22,"hd","lower","frowsed","nw","nw","h","h",1,0.613785757705955,NA,NA,NA
"experimental",27,23,"hd","lower","baseline","w","w","g","g",1,0.787855627202589,NA,NA,NA
"experimental",27,24,"hd","lower","squirrel","target","target","q","q",1,1.13870086329916,1,NA,NA
"experimental",27,25,"hd","lower","fravity","aftertar1","nw","h","h",1,0.667370955206934,NA,NA,NA
"experimental",27,26,"hd","lower","stable","aftertar2","w","g","g",1,0.742723287275112,NA,NA,NA
"experimental",27,27,"hd","lower","sarlock","aftertar3","nw","h","h",1,0.591359133390142,NA,NA,NA
"experimental",27,28,"hd","lower","welayed","nw","nw","h","h",1,0.637036413139867,NA,NA,NA
"experimental",27,29,"hd","lower","potter","nw","w","g","g",1,0.817720382143307,NA,NA,NA
"experimental",27,30,"hd","lower","tragedy","w","w","g","g",1,0.679046770969762,NA,NA,NA
"experimental",28,1,"ld","upper","frose","nw","nw","h","h",1,0.571423473368668,NA,NA,NA
"experimental",28,2,"ld","upper","integral","w","w","g","g",1,0.594838339102353,NA,NA,NA
"experimental",28,3,"ld","upper","outset","w","w","g","g",1,0.601577582748178,NA,NA,NA
"experimental",28,4,"ld","upper","alomalous","nw","nw","h","h",1,0.630718951592826,NA,NA,NA
"experimental",28,5,"ld","upper","slears","nw","nw","h","h",1,0.644125927948153,NA,NA,NA
"experimental",28,6,"ld","upper","unrealon","nw","nw","h","h",1,0.552914390321348,NA,NA,NA
"experimental",28,7,"ld","upper","ugifies","nw","nw","h","h",1,0.560921628817596,NA,NA,NA
"experimental",28,8,"ld","upper","snocks","nw","nw","h","h",1,0.521074807892546,NA,NA,NA
"experimental",28,9,"ld","upper","nollow","nw","nw","h","h",1,0.466444094010512,NA,NA,NA
"experimental",28,10,"ld","upper","consonant","w","w","g","g",1,0.678536593407443,NA,NA,NA
"experimental",28,11,"ld","upper","renown","w","w","g","h",0,1.12994044248353,NA,NA,NA
"experimental",28,12,"ld","upper","treason","w","w","g","g",1,1.20245253230132,NA,NA,NA
"experimental",28,13,"ld","upper","afford","w","w","g","g",1,1.20842535086194,NA,NA,NA
"experimental",28,14,"ld","upper","theery","nw","nw","h","h",1,0.510493837812646,NA,NA,NA
"experimental",28,15,"ld","upper","crazy","w","w","g","g",1,0.544568468083526,NA,NA,NA
"experimental",28,16,"ld","upper","slogan","w","w","g","g",1,0.657372335766013,NA,NA,NA
"experimental",28,17,"ld","upper","gures","nw","nw","h","h",1,0.597398827918369,NA,NA,NA
"experimental",28,18,"ld","upper","gablus","nw","nw","h","h",1,0.548127792530067,NA,NA,NA
"experimental",28,19,"ld","upper","bickering","w","w","g","g",1,0.988868897446082,NA,NA,NA
"experimental",28,20,"ld","upper","miability","nw","nw","h","h",1,0.84271345452089,NA,NA,NA
"experimental",28,21,"ld","upper","moozy","nw","nw","h","h",1,0.599674928334935,NA,NA,NA
"experimental",28,22,"ld","upper","abhorrent","w","w","g","g",1,0.933943532021658,NA,NA,NA
"experimental",28,23,"ld","upper","aligning","w","w","g","g",1,0.670673701061787,NA,NA,NA
"experimental",28,24,"ld","upper","erony","nw","nw","h","h",1,0.530050092585952,NA,NA,NA
"experimental",28,25,"ld","upper","entropy","w","w","g","h",0,0.555491432595772,NA,NA,NA
"experimental",28,26,"ld","upper","mubby","nw","nw","h","h",1,0.659647774043151,NA,NA,NA
"experimental",28,27,"ld","upper","porghum","nw","nw","h","h",1,0.559723489558564,NA,NA,NA
"experimental",28,28,"ld","upper","orange","w","w","g","g",1,0.663692114796504,NA,NA,NA
"experimental",28,29,"ld","upper","caterpillar","target","target","q","q",1,0.586894996951742,1,NA,NA
"experimental",28,30,"ld","upper","exemplify","aftertar1","w","g","g",1,2.2735850569652,NA,NA,NA
"experimental",29,1,"ld","upper","fraft","nw","nw","h","h",1,0.582051786335796,NA,NA,NA
"experimental",29,2,"ld","upper","padicals","nw","nw","h","h",1,0.853487768984451,NA,NA,NA
"experimental",29,3,"ld","upper","realize","w","w","g","g",1,0.561548342720016,NA,NA,NA
"experimental",29,4,"ld","upper","dialogues","w","w","g","g",1,0.553619898682882,NA,NA,NA
"experimental",29,5,"ld","upper","filny","nw","nw","h","h",1,0.576658007721562,NA,NA,NA
"experimental",29,6,"ld","upper","phonology","w","w","g","g",1,0.840106284954345,NA,NA,NA
"experimental",29,7,"ld","upper","party","w","w","g","g",1,0.708793003154824,NA,NA,NA
"experimental",29,8,"ld","upper","bailmenz","nw","nw","h","h",1,0.60688329696859,NA,NA,NA
"experimental",29,9,"ld","upper","system","w","w","g","g",1,0.764959877898036,NA,NA,NA
"experimental",29,10,"ld","upper","pammed","nw","nw","h","h",1,0.605086584683704,NA,NA,NA
"experimental",29,11,"ld","upper","twarfs","nw","nw","h","h",1,0.563095428865381,NA,NA,NA
"experimental",29,12,"ld","upper","worps","nw","nw","h","h",1,0.475151212693163,NA,NA,NA
"experimental",29,13,"ld","upper","outrank","w","w","g","g",1,0.550601872298103,NA,NA,NA
"experimental",29,14,"ld","upper","tunneg","nw","nw","h","h",1,0.525660115639766,NA,NA,NA
"experimental",29,15,"ld","upper","hotplate","w","w","g","g",1,0.60700844110761,NA,NA,NA
"experimental",29,16,"ld","upper","markot","nw","nw","h","h",1,0.661019062467858,NA,NA,NA
"experimental",29,17,"ld","upper","typical","w","w","g","g",1,0.777024699913454,NA,NA,NA
"experimental",29,18,"ld","upper","birn","nw","nw","h","h",1,0.888411591628028,NA,NA,NA
"experimental",29,19,"ld","upper","collute","nw","nw","h","h",1,0.714846933658009,NA,NA,NA
"experimental",29,20,"ld","upper","expired","w","w","g","g",1,0.875565777484553,NA,NA,NA
"experimental",29,21,"ld","upper","favoting","nw","nw","h","h",1,0.608667097555553,NA,NA,NA
"experimental",29,22,"ld","upper","mamps","nw","nw","h","h",1,0.614838557607982,NA,NA,NA
"experimental",29,23,"ld","upper","iolize","nw","nw","h","h",1,0.555844683380201,NA,NA,NA
"experimental",29,24,"ld","upper","cessation","w","w","g","g",1,0.747976692569864,NA,NA,NA
"experimental",29,25,"ld","upper","resonant","w","w","g","g",1,0.79672828045932,NA,NA,NA
"experimental",29,26,"ld","upper","patio","w","w","g","g",1,0.635445294798046,NA,NA,NA
"experimental",29,27,"ld","upper","engineer","w","w","g","g",1,0.536225525467671,NA,NA,NA
"experimental",29,28,"ld","upper","ganter","nw","nw","h","h",1,0.624996090242348,NA,NA,NA
"experimental",29,29,"ld","upper","garment","w","w","g","g",1,0.678422043481078,NA,NA,NA
"experimental",29,30,"ld","upper","pocket","w","w","g","g",1,1.2257846307466,NA,NA,NA
"experimental",30,1,"hd","lower","tapling","nw","nw","h","h",1,1.09519043114415,NA,NA,NA
"experimental",30,2,"hd","lower","robbery","w","w","g","g",1,0.665958614207739,NA,NA,NA
"experimental",30,3,"hd","lower","apop","nw","nw","h","h",1,0.654076873432132,NA,NA,NA
"experimental",30,4,"hd","lower","kraums","nw","nw","h","h",1,0.562091296128528,NA,NA,NA
"experimental",30,5,"hd","lower","managed","w","w","g","g",1,0.6662098956931,NA,NA,NA
"experimental",30,6,"hd","lower","disease","w","w","g","g",1,0.542288725906474,NA,NA,NA
"experimental",30,7,"hd","lower","extend","w","w","g","g",1,0.637902158970974,NA,NA,NA
"experimental",30,8,"hd","lower","ignoble","w","w","g","h",0,0.482649266834415,NA,NA,NA
"experimental",30,9,"hd","lower","veclors","nw","nw","h","h",1,0.509995909809732,NA,NA,NA
"experimental",30,10,"hd","lower","elephant","target","target","q","q",1,0.744012470550842,1,NA,NA
"experimental",30,11,"hd","lower","other","aftertar1","w","g","g",1,0.936728485722597,NA,NA,NA
"experimental",30,12,"hd","lower","graciap","aftertar2","nw","h","h",1,0.503321224647152,NA,NA,NA
"experimental",30,13,"hd","lower","numbled","aftertar3","nw","h","h",1,0.72358252428603,NA,NA,NA
"experimental",30,14,"hd","lower","misobeyed","nw","nw","h","g",0,0.853001097331799,NA,NA,NA
"experimental",30,15,"hd","lower","nearsipe","nw","nw","h","h",1,0.753159911203511,NA,NA,NA
"experimental",30,16,"hd","lower","frogmy","nw","nw","h","h",1,0.536167919435684,NA,NA,NA
"experimental",30,17,"hd","lower","observer","nw","w","g","g",1,1.19299123809287,NA,NA,NA
"experimental",30,18,"hd","lower","persona","w","w","g","g",1,0.599766303421347,NA,NA,NA
"experimental",30,19,"hd","lower","handle","w","w","g","g",1,0.55837769345726,NA,NA,NA
"experimental",30,20,"hd","lower","purport","w","w","g","h",0,0.542394999104545,NA,NA,NA
"experimental",30,21,"hd","lower","lancos","w","nw","h","h",1,0.639164194576551,NA,NA,NA
"experimental",30,22,"hd","lower","reprint","nw","w","g","g",1,0.971873131490611,NA,NA,NA
"experimental",30,23,"hd","lower","egpended","w","nw","h","h",1,0.563368891984283,NA,NA,NA
"experimental",30,24,"hd","lower","fallint","nw","nw","h","h",1,0.666642934143056,NA,NA,NA
"experimental",30,25,"hd","lower","chone","nw","nw","h","h",1,0.598455600650595,NA,NA,NA
"experimental",30,26,"hd","lower","lanthers","nw","nw","h","h",1,0.709199887141949,NA,NA,NA
"experimental",30,27,"hd","lower","sazer","nw","nw","h","h",1,0.767369399182826,NA,NA,NA
"experimental",30,28,"hd","lower","companion","nw","w","g","g",1,0.670719388604084,NA,NA,NA
"experimental",30,29,"hd","lower","parody","w","w","g","g",1,0.770173554894427,NA,NA,NA
"experimental",30,30,"hd","lower","flicking","w","w","g","g",1,0.90553349493166,NA,NA,NA
"experimental",31,1,"ld","upper","slooping","nw","nw","h","h",1,0.643431344868986,NA,NA,NA
"experimental",31,2,"ld","upper","senalize","nw","nw","h","h",1,1.07222118448863,NA,NA,NA
"experimental",31,3,"ld","upper","larger","w","w","g","g",1,0.523688598842455,NA,NA,NA
"experimental",31,4,"ld","upper","deadly","w","w","g","g",1,0.460828830134233,NA,NA,NA
"experimental",31,5,"ld","upper","joses","nw","nw","h","g",0,0.502915996006777,NA,NA,NA
"experimental",31,6,"ld","upper","standard","w","w","g","g",1,0.578914243988947,NA,NA,NA
"experimental",31,7,"ld","upper","setwixt","nw","nw","h","h",1,0.722044377009297,NA,NA,NA
"experimental",31,8,"ld","upper","purpose","w","w","g","g",1,0.515982302204975,NA,NA,NA
"experimental",31,9,"ld","upper","ifling","nw","nw","h","h",1,0.573117554215969,NA,NA,NA
"experimental",31,10,"ld","upper","eightiech","nw","nw","h","h",1,0.556483646842025,NA,NA,NA
"experimental",31,11,"ld","upper","oleandur","nw","nw","h","h",1,0.516621596736513,NA,NA,NA
"experimental",31,12,"ld","upper","seasoning","w","w","g","g",1,0.59068938049586,NA,NA,NA
"experimental",31,13,"ld","upper","plunging","w","w","g","g",1,0.813433367701691,NA,NA,NA
"experimental",31,14,"ld","upper","seartfelt","nw","nw","h","h",1,0.611457679433443,NA,NA,NA
"experimental",31,15,"ld","upper","slending","nw","nw","h","g",0,0.713467368503188,NA,NA,NA
"experimental",31,16,"ld","upper","design","w","w","g","g",1,0.659629234170097,NA,NA,NA
"experimental",31,17,"ld","upper","derived","w","w","g","g",1,0.671746696181799,NA,NA,NA
"experimental",31,18,"ld","upper","temelity","nw","nw","h","h",1,0.554144974356859,NA,NA,NA
"experimental",31,19,"ld","upper","roaned","nw","nw","h","h",1,0.658177495942255,NA,NA,NA
"experimental",31,20,"ld","upper","causality","w","w","g","g",1,0.526297754824554,NA,NA,NA
"experimental",31,21,"ld","upper","newstrint","nw","nw","h","h",1,0.599807355995836,NA,NA,NA
"experimental",31,22,"ld","upper","cabinet","w","w","g","g",1,0.974413756158356,NA,NA,NA
"experimental",31,23,"ld","upper","traze","nw","nw","h","h",1,0.541779872621191,NA,NA,NA
"experimental",31,24,"ld","upper","cutout","w","w","g","g",1,0.6145492031701,NA,NA,NA
"experimental",31,25,"ld","upper","fidelity","w","w","g","g",1,0.556680964056795,NA,NA,NA
"experimental",31,26,"ld","upper","scabry","nw","nw","h","h",1,0.572699082808867,NA,NA,NA
"experimental",31,27,"ld","upper","contact","w","w","g","g",1,0.523148956125624,NA,NA,NA
"experimental",31,28,"ld","upper","unmarked","w","w","g","g",1,0.588404672283104,NA,NA,NA
"experimental",31,29,"ld","upper","contain","w","w","g","g",1,0.547195501799251,NA,NA,NA
"experimental",31,30,"ld","upper","bettled","nw","nw","h","h",1,0.723946700352826,NA,NA,NA
"experimental",32,1,"ld","upper","chraps","nw","nw","h","h",1,0.590140798913126,NA,NA,NA
"experimental",32,2,"ld","upper","parent","w","w","g","g",1,0.443974099634943,NA,NA,NA
"experimental",32,3,"ld","upper","reborn","w","w","g","g",1,0.584652003451083,NA,NA,NA
"experimental",32,4,"ld","upper","imotope","nw","nw","h","h",1,0.52669437566783,NA,NA,NA
"experimental",32,5,"ld","upper","extruded","w","w","g","g",1,0.856071101573434,NA,NA,NA
"experimental",32,6,"ld","upper","earmaff","nw","nw","h","h",1,0.612280055205702,NA,NA,NA
"experimental",32,7,"ld","upper","female","w","w","g","g",1,0.594387753986666,NA,NA,NA
"experimental",32,8,"ld","upper","racile","nw","nw","h","h",1,0.633109270866044,NA,NA,NA
"experimental",32,9,"ld","upper","ucility","nw","nw","h","h",1,0.646484795652214,NA,NA,NA
"experimental",32,10,"ld","upper","fassed","nw","nw","h","h",1,0.659278631938832,NA,NA,NA
"experimental",32,11,"ld","upper","restock","w","w","g","g",1,1.35837650160829,NA,NA,NA
"experimental",32,12,"ld","upper","knowledge","w","w","g","g",1,0.670363158197688,NA,NA,NA
"experimental",32,13,"ld","upper","culinary","w","w","g","g",1,0.929790600585875,NA,NA,NA
"experimental",32,14,"ld","upper","erithets","nw","nw","h","h",1,0.643254885011629,NA,NA,NA
"experimental",32,15,"ld","upper","handbook","w","w","g","g",1,1.32802474394612,NA,NA,NA
"experimental",32,16,"ld","upper","publish","w","w","g","g",1,0.529436290379635,NA,NA,NA
"experimental",32,17,"ld","upper","miurnal","nw","nw","h","h",1,0.642880114732179,NA,NA,NA
"experimental",32,18,"ld","upper","drine","nw","nw","h","h",1,0.847549050547059,NA,NA,NA
"experimental",32,19,"ld","upper","uncounted","w","w","g","g",1,1.1403552158481,NA,NA,NA
"experimental",32,20,"ld","upper","impirt","nw","nw","h","h",1,0.972032044683146,NA,NA,NA
"experimental",32,21,"ld","upper","scrib","nw","nw","h","h",1,1.05942238216539,NA,NA,NA
"experimental",32,22,"ld","upper","bropic","nw","nw","h","h",1,0.711529289690588,NA,NA,NA
"experimental",32,23,"ld","upper","intended","w","w","g","g",1,0.593585904502106,NA,NA,NA
"experimental",32,24,"ld","upper","walnut","w","w","g","g",1,0.544313875905573,NA,NA,NA
"experimental",32,25,"ld","upper","troven","nw","nw","h","h",1,0.513022212922806,NA,NA,NA
"experimental",32,26,"ld","upper","alticles","nw","nw","h","h",1,0.824825126132964,NA,NA,NA
"experimental",32,27,"ld","upper","coster","nw","nw","h","h",1,1.16061664791505,NA,NA,NA
"experimental",32,28,"ld","upper","recollect","w","w","g","g",1,2.02372882374402,NA,NA,NA
"experimental",32,29,"ld","upper","painter","w","w","g","g",1,0.541109788659014,NA,NA,NA
"experimental",32,30,"ld","upper","colored","w","w","g","g",1,0.645829940870499,NA,NA,NA
"experimental",33,1,"ld","upper","mosary","nw","nw","h","h",1,0.99563065379516,NA,NA,NA
"experimental",33,2,"ld","upper","sopes","nw","nw","h","h",1,0.601439195843341,NA,NA,NA
"experimental",33,3,"ld","upper","redefloy","nw","nw","h","h",1,0.630779206178886,NA,NA,NA
"experimental",33,4,"ld","upper","urgent","w","w","g","g",1,0.756176944380968,NA,NA,NA
"experimental",33,5,"ld","upper","chappef","nw","nw","h","h",1,0.556296592771105,NA,NA,NA
"experimental",33,6,"ld","upper","seldom","w","w","g","g",1,0.62836207030432,NA,NA,NA
"experimental",33,7,"ld","upper","incorrect","w","w","g","g",1,0.49773509485567,NA,NA,NA
"experimental",33,8,"ld","upper","company","w","w","g","g",1,0.516520951714483,NA,NA,NA
"experimental",33,9,"ld","upper","drauns","nw","nw","h","h",1,0.61453894002625,NA,NA,NA
"experimental",33,10,"ld","upper","penalize","w","w","g","g",1,0.668600546035123,NA,NA,NA
"experimental",33,11,"ld","upper","preserve","w","w","g","g",1,0.823437946387457,NA,NA,NA
"experimental",33,12,"ld","upper","ounwit","nw","nw","h","h",1,0.595809364922388,NA,NA,NA
"experimental",33,13,"ld","upper","enacted","w","w","g","h",0,1.08257669647537,NA,NA,NA
"experimental",33,14,"ld","upper","airline","w","w","g","h",0,0.557921811236156,NA,NA,NA
"experimental",33,15,"ld","upper","latpin","nw","nw","h","h",1,0.734110523301752,NA,NA,NA
"experimental",33,16,"ld","upper","agony","w","w","g","g",1,0.542725406117825,NA,NA,NA
"experimental",33,17,"ld","upper","gazes","w","w","g","g",1,0.663378261241633,NA,NA,NA
"experimental",33,18,"ld","upper","eggays","nw","nw","h","h",1,0.619472201450662,NA,NA,NA
"experimental",33,19,"ld","upper","living","w","w","g","g",1,1.00131941502332,NA,NA,NA
"experimental",33,20,"ld","upper","guitar","w","w","g","g",1,0.496301234361454,NA,NA,NA
"experimental",33,21,"ld","upper","brudent","nw","nw","h","h",1,0.593970937925405,NA,NA,NA
"experimental",33,22,"ld","upper","prillway","nw","nw","h","h",1,0.656760188904627,NA,NA,NA
"experimental",33,23,"ld","upper","booster","w","w","g","g",1,0.708894972453891,NA,NA,NA
"experimental",33,24,"ld","upper","tiery","nw","nw","h","h",1,0.53502738620864,NA,NA,NA
"experimental",33,25,"ld","upper","thrapping","nw","nw","h","h",1,0.615802299907955,NA,NA,NA
"experimental",33,26,"ld","upper","uncorked","w","w","g","h",0,0.765890513283011,NA,NA,NA
"experimental",33,27,"ld","upper","describe","w","w","g","g",1,0.637925995950354,NA,NA,NA
"experimental",33,28,"ld","upper","wrecber","nw","nw","h","h",1,0.594646981132428,NA,NA,NA
"experimental",33,29,"ld","upper","alber","nw","nw","h","h",1,0.49736661488987,NA,NA,NA
"experimental",33,30,"ld","upper","fards","nw","nw","h","h",1,0.499253046915328,NA,NA,NA
"experimental",34,1,"hd","lower","unbridled","w","w","g","g",1,0.726815745618296,NA,NA,NA
"experimental",34,2,"hd","lower","railroad","w","w","g","g",1,0.624249198236612,NA,NA,NA
"experimental",34,3,"hd","lower","congraks","nw","nw","h","h",1,0.541615331252615,NA,NA,NA
"experimental",34,4,"hd","lower","selongs","nw","nw","h","h",1,0.606361531985385,NA,NA,NA
"experimental",34,5,"hd","lower","fracture","w","w","g","g",1,0.611498069870322,NA,NA,NA
"experimental",34,6,"hd","lower","pressing","w","w","g","g",1,0.897539168132425,NA,NA,NA
"experimental",34,7,"hd","lower","aqueduct","w","w","g","g",1,0.60432082173611,NA,NA,NA
"experimental",34,8,"hd","lower","amkles","nw","nw","h","h",1,0.634409379423232,NA,NA,NA
"experimental",34,9,"hd","lower","sording","nw","nw","h","h",1,0.534963158793289,NA,NA,NA
"experimental",34,10,"hd","lower","hecture","nw","nw","h","h",1,0.511712503359377,NA,NA,NA
"experimental",34,11,"hd","lower","scarlet","w","w","g","g",1,0.649804757102174,NA,NA,NA
"experimental",34,12,"hd","lower","elvisages","nw","nw","h","h",1,1.07047115295518,NA,NA,NA
"experimental",34,13,"hd","lower","dingly","nw","nw","h","h",1,0.889598805604692,NA,NA,NA
"experimental",34,14,"hd","lower","gackpedal","nw","nw","h","h",1,0.675317939117122,NA,NA,NA
"experimental",34,15,"hd","lower","fictional","w","w","g","g",1,0.599041924117955,NA,NA,NA
"experimental",34,16,"hd","lower","antique","w","w","g","g",1,0.661850708176644,NA,NA,NA
"experimental",34,17,"hd","lower","cegalia","nw","nw","h","h",1,0.569792626729395,NA,NA,NA
"experimental",34,18,"hd","lower","jinds","nw","nw","h","h",1,0.513408570622232,NA,NA,NA
"experimental",34,19,"hd","lower","series","w","w","g","g",1,0.659413046015288,NA,NA,NA
"experimental",34,20,"hd","lower","combat","w","w","g","g",1,1.04747211007634,NA,NA,NA
"experimental",34,21,"hd","lower","index","w","w","g","g",1,0.612354545764902,NA,NA,NA
"experimental",34,22,"hd","lower","sponto","nw","nw","h","h",1,0.482483401188802,NA,NA,NA
"experimental",34,23,"hd","lower","buaint","nw","nw","h","h",1,0.54873100052373,NA,NA,NA
"experimental",34,24,"hd","lower","hanling","nw","nw","h","h",1,0.533466064091044,NA,NA,NA
"experimental",34,25,"hd","lower","corduroy","w","w","g","h",0,0.510735849362391,NA,NA,NA
"experimental",34,26,"hd","lower","sooled","nw","nw","h","h",1,0.688837478985079,NA,NA,NA
"experimental",34,27,"hd","lower","stagger","w","w","g","g",1,0.635494955171453,NA,NA,NA
"experimental",34,28,"hd","lower","deeper","w","w","g","g",1,0.600586692778052,NA,NA,NA
"experimental",34,29,"hd","lower","mortgage","w","w","g","g",1,0.598405609208385,NA,NA,NA
"experimental",34,30,"hd","lower","allained","nw","nw","h","h",1,0.709120761614031,NA,NA,NA
"experimental",35,1,"hd","lower","ausht","nw","nw","h","h",1,0.69519533096809,NA,NA,NA
"experimental",35,2,"hd","lower","ulcer","w","w","g","g",1,0.609911586497219,NA,NA,NA
"experimental",35,3,"hd","lower","noils","nw","nw","h","h",1,0.655902057663297,NA,NA,NA
"experimental",35,4,"hd","lower","abraid","nw","nw","h","h",1,0.652004049475181,NA,NA,NA
"experimental",35,5,"hd","lower","spigat","nw","nw","h","h",1,0.495404036960281,NA,NA,NA
"experimental",35,6,"hd","lower","function","w","w","g","g",1,0.554110874234539,NA,NA,NA
"experimental",35,7,"hd","lower","quickel","nw","nw","h","h",1,0.658175840596414,NA,NA,NA
"experimental",35,8,"hd","lower","require","w","w","g","g",1,0.549236874187955,NA,NA,NA
"experimental",35,9,"hd","lower","butcher","w","w","g","g",1,0.541975203420407,NA,NA,NA
"experimental",35,10,"hd","lower","octopus","target","target","q","g",0,0.654713850479311,NA,NA,NA
"experimental",35,11,"hd","lower","sonkers","aftertar1","nw","h","h",1,0.626788829696125,NA,NA,NA
"experimental",35,12,"hd","lower","befriend","aftertar2","w","g","g",1,0.624198213587078,NA,NA,NA
"experimental",35,13,"hd","lower","insole","aftertar3","w","g","g",1,1.02169572808543,NA,NA,NA
"experimental",35,14,"hd","lower","miteous","w","nw","h","h",1,0.62709904149142,NA,NA,NA
"experimental",35,15,"hd","lower","trake","nw","nw","h","h",1,0.624515046765737,NA,NA,NA
"experimental",35,16,"hd","lower","delegate","nw","w","g","g",1,0.781916246625769,NA,NA,NA
"experimental",35,17,"hd","lower","grolific","w","nw","h","h",1,0.580404717307829,NA,NA,NA
"experimental",35,18,"hd","lower","pepperoni","nw","w","g","g",1,0.651675628876546,NA,NA,NA
"experimental",35,19,"hd","lower","surdens","w","nw","h","g",0,0.823129389938913,NA,NA,NA
"experimental",35,20,"hd","lower","measure","nw","w","g","g",1,0.564640528595191,NA,NA,NA
"experimental",35,21,"hd","lower","mandate","w","w","g","g",1,0.948644657689329,NA,NA,NA
"experimental",35,22,"hd","lower","nopping","w","nw","h","h",1,0.605382229435236,NA,NA,NA
"experimental",35,23,"hd","lower","galashes","nw","nw","h","h",1,0.683516866652099,NA,NA,NA
"experimental",35,24,"hd","lower","hackal","nw","nw","h","h",1,0.60687303382474,NA,NA,NA
"experimental",35,25,"hd","lower","vergas","nw","nw","h","h",1,0.556921320259789,NA,NA,NA
"experimental",35,26,"hd","lower","shockwave","nw","w","g","g",1,0.780058948686928,NA,NA,NA
"experimental",35,27,"hd","lower","butler","w","w","g","g",1,0.499494727395358,NA,NA,NA
"experimental",35,28,"hd","lower","laser","w","w","g","g",1,1.03017871295197,NA,NA,NA
"experimental",35,29,"hd","lower","implode","w","w","g","h",0,0.659521967765613,NA,NA,NA
"experimental",35,30,"hd","lower","shamrock","w","w","g","g",1,0.695579040114353,NA,NA,NA
"experimental",36,1,"hd","lower","catgup","nw","nw","h","h",1,0.770121577038481,NA,NA,NA
"experimental",36,2,"hd","lower","potatoes","w","w","g","g",1,0.544824053467892,NA,NA,NA
"experimental",36,3,"hd","lower","ifkling","nw","nw","h","h",1,0.553603676294188,NA,NA,NA
"experimental",36,4,"hd","lower","chonemic","nw","nw","h","h",1,0.665787120386995,NA,NA,NA
"experimental",36,5,"hd","lower","landing","w","w","g","g",1,1.109774689402,NA,NA,NA
"experimental",36,6,"hd","lower","medium","w","w","g","g",1,0.567938639481326,NA,NA,NA
"experimental",36,7,"hd","lower","fabstand","nw","nw","h","h",1,0.534675790770962,NA,NA,NA
"experimental",36,8,"hd","lower","ignore","w","w","g","g",1,0.58338400860157,NA,NA,NA
"experimental",36,9,"hd","lower","smolvers","nw","nw","h","h",1,0.454798736610428,NA,NA,NA
"experimental",36,10,"hd","lower","addma","nw","nw","h","h",1,0.513892593721721,NA,NA,NA
"experimental",36,11,"hd","lower","bother","w","w","g","g",1,0.716012959208456,NA,NA,NA
"experimental",36,12,"hd","lower","brials","nw","nw","h","h",1,0.638030613801675,NA,NA,NA
"experimental",36,13,"hd","lower","splatter","w","w","g","g",1,0.682769974646362,NA,NA,NA
"experimental",36,14,"hd","lower","sodent","nw","nw","h","h",1,0.670127105891879,NA,NA,NA
"experimental",36,15,"hd","lower","prama","nw","nw","h","h",1,0.569523136439784,NA,NA,NA
"experimental",36,16,"hd","lower","diatonic","w","w","g","g",1,1.17695954550527,NA,NA,NA
"experimental",36,17,"hd","lower","brighten","w","w","g","g",1,0.99241365485068,NA,NA,NA
"experimental",36,18,"hd","lower","clume","nw","nw","h","h",1,0.575110921577107,NA,NA,NA
"experimental",36,19,"hd","lower","airbis","nw","nw","h","h",1,0.661515335126751,NA,NA,NA
"experimental",36,20,"hd","lower","entitle","w","w","g","g",1,1.00963322355346,NA,NA,NA
"experimental",36,21,"hd","lower","rewrite","w","w","g","g",1,0.583746860392239,NA,NA,NA
"experimental",36,22,"hd","lower","cervical","w","w","g","g",1,0.727153767222262,NA,NA,NA
"experimental",36,23,"hd","lower","regiment","w","w","g","g",1,0.792494237082792,NA,NA,NA
"experimental",36,24,"hd","lower","susher","nw","nw","h","h",1,0.439183860084086,NA,NA,NA
"experimental",36,25,"hd","lower","outlaved","nw","nw","h","h",1,0.884048431282281,NA,NA,NA
"experimental",36,26,"hd","lower","corg","nw","nw","h","h",1,0.7100136551162,NA,NA,NA
"experimental",36,27,"hd","lower","rarren","nw","nw","h","h",1,0.712138125860292,NA,NA,NA
"experimental",36,28,"hd","lower","perform","w","w","g","g",1,0.592346050530978,NA,NA,NA
"experimental",36,29,"hd","lower","giraffe","target","target","q","g",0,0.639329729151541,NA,NA,NA
"experimental",36,30,"hd","lower","admire","aftertar1","w","g","g",1,1.62866301216309,NA,NA,NA
"experimental",37,1,"hd","lower","rantho","nw","nw","h","h",1,0.570446488302878,NA,NA,NA
"experimental",37,2,"hd","lower","suspect","w","w","g","g",1,0.593867644349302,NA,NA,NA
"experimental",37,3,"hd","lower","kilotin","nw","nw","h","h",1,0.543631542384901,NA,NA,NA
"experimental",37,4,"hd","lower","maintain","w","w","g","g",1,0.664379083285894,NA,NA,NA
"experimental",37,5,"hd","lower","harmful","w","w","g","g",1,1.14047704929635,NA,NA,NA
"experimental",37,6,"hd","lower","brimitar","nw","nw","h","h",1,0.549238529532886,NA,NA,NA
"experimental",37,7,"hd","lower","pived","nw","nw","h","h",1,0.581886582830521,NA,NA,NA
