"procedure","block","trial","PMdemand","context","stim","role","word_type","correct_key","response","correct","reaction_time","pressedQ","pressedQ_blank","pressedQ_fix"
"LDTpractice",1,1,NA,"lower","turative","","nw","h","g",0,1.60618588840589,NA,NA,NA
"LDTpractice",2,1,NA,"lower","alolition","","nw","h","h",1,1.23251608293504,NA,NA,NA
"LDTpractice",3,1,NA,"lower","latador","","nw","h","h",1,1.06369730120059,NA,NA,NA
"LDTpractice",4,1,NA,"lower","hiring","","w","g","g",1,0.652047573705204,NA,NA,NA
"LDTpractice",5,1,NA,"lower","lumbigo","","nw","h","h",1,0.876666736556217,NA,NA,NA
"LDTpractice",6,1,NA,"lower","slumber","","w","g","g",1,0.530224389047362,NA,NA,NA
"LDTpractice",7,1,NA,"lower","grutch","","nw","h","h",1,1.03590503928717,NA,NA,NA
"LDTpractice",8,1,NA,"lower","picture","","w","g","g",1,0.46463164454326,NA,NA,NA
"LDTpractice",9,1,NA,"lower","revival","","w","g","g",1,0.668846353539266,NA,NA,NA
"LDTpractice",10,1,NA,"lower","grimace","","w","g","g",1,0.599485048907809,NA,NA,NA
"LDTpractice",11,1,NA,"lower","umpire","","w","g","g",1,0.470098258345388,NA,NA,NA
"LDTpractice",12,1,NA,"lower","raestro","","nw","h","h",1,0.729372084722854,NA,NA,NA
"LDTpractice",13,1,NA,"lower","curlecs","","nw","h","h",1,0.850946305203252,NA,NA,NA
"LDTpractice",14,1,NA,"lower","busted","","w","g","h",0,0.462401231750846,NA,NA,NA
"LDTpractice",1,2,NA,"upper","grocus","","nw","h","h",1,0.7382758584572,NA,NA,NA
"LDTpractice",2,2,NA,"upper","julled","","nw","h","h",1,0.704764376860112,NA,NA,NA
"LDTpractice",3,2,NA,"upper","treeps","","nw","h","h",1,0.725936911185272,NA,NA,NA
"LDTpractice",4,2,NA,"upper","tricycle","","w","g","g",1,0.479013619595207,NA,NA,NA
"LDTpractice",5,2,NA,"upper","hasking","","nw","h","h",1,0.625950716785155,NA,NA,NA
"LDTpractice",6,2,NA,"upper","reputable","","w","g","g",1,0.663421785458922,NA,NA,NA
"LDTpractice",7,2,NA,"upper","lurshing","","nw","h","h",1,0.619437593384646,NA,NA,NA
"LDTpractice",8,2,NA,"upper","overshoot","","w","g","g",1,0.504906869027764,NA,NA,NA
"LDTpractice",9,2,NA,"upper","summary","","w","g","g",1,0.523006419534795,NA,NA,NA
"LDTpractice",10,2,NA,"upper","infinity","","w","g","g",1,0.44385904178489,NA,NA,NA
"LDTpractice",11,2,NA,"upper","unscrew","","w","g","g",1,0.536339236423373,NA,NA,NA
"LDTpractice",12,2,NA,"upper","crinklo","","nw","h","h",1,0.609016198548488,NA,NA,NA
"LDTpractice",13,2,NA,"upper","trotch","","nw","h","h",1,0.679119429318234,NA,NA,NA
"LDTpractice",14,2,NA,"upper","sponsor","","w","g","g",1,0.634562818682753,NA,NA,NA
"experimental",1,1,"hd","lower","observer","w","w","g","g",1,0.703251390834339,NA,NA,NA
"experimental",1,2,"hd","lower","crazy","w","w","g","g",1,0.569295515073463,NA,NA,NA
"experimental",1,3,"hd","lower","vaporize","w","w","g","g",1,0.666144167073071,NA,NA,NA
"experimental",1,4,"hd","lower","urique","nw","nw","h","h",1,0.73384946398437,NA,NA,NA
"experimental",1,5,"hd","lower","budget","w","w","g","g",1,0.592230661539361,NA,NA,NA
"experimental",1,6,"hd","lower","kraums","nw","nw","h","h",1,0.647639056900516,NA,NA,NA
"experimental",1,7,"hd","lower","oldest","w","w","g","g",1,0.540115742129274,NA,NA,NA
"experimental",1,8,"hd","lower","slightly","w","w","g","g",1,0.581537790130824,NA,NA,NA
"experimental",1,9,"hd","lower","dumult","nw","nw","h","h",1,0.637539792456664,NA,NA,NA
"experimental",1,10,"hd","lower","mubby","nw","nw","h","h",1,0.826919292798266,NA,NA,NA
"experimental",1,11,"hd","lower","gorilla","target","target","q","q",1,0.545002322876826,1,NA,NA
"experimental",1,12,"hd","lower","leather","aftertar1","w","g","g",1,0.570394664653577,NA,NA,NA
"experimental",1,13,"hd","lower","shazer","aftertar2","nw","h","h",1,0.890473975567147,NA,NA,NA
"experimental",1,14,"hd","lower","miability","aftertar3","nw","h","h",1,0.741922916262411,NA,NA,NA
"experimental",1,15,"hd","lower","colored","nw","w","g","g",1,0.535356623120606,NA,NA,NA
"experimental",1,16,"hd","lower","hindsight","w","w","g","g",1,0.656632550409995,NA,NA,NA
"experimental",1,17,"hd","lower","hegacy","w","nw","h","h",1,0.620488406973891,NA,NA,NA
"experimental",1,18,"hd","lower","splinging","nw","nw","h","h",1,0.738508269074373,NA,NA,NA
"experimental",1,19,"hd","lower","naxis","nw","nw","h","h",1,0.569194869953208,NA,NA,NA
"experimental",1,20,"hd","lower","plashed","nw","nw","h","h",1,0.707792004221119,NA,NA,NA
"experimental",1,21,"hd","lower","amkles","nw","nw","h","h",1,0.68508397124242,NA,NA,NA
"experimental",1,22,"hd","lower","threaded","nw","w","g","g",1,0.602182931266725,NA,NA,NA
"experimental",1,23,"hd","lower","decantel","w","nw","h","h",1,0.729533646488562,NA,NA,NA
"experimental",1,24,"hd","lower","duplex","nw","w","g","g",1,0.923541493481025,NA,NA,NA
"experimental",1,25,"hd","lower","volder","w","nw","h","h",1,0.652769635547884,NA,NA,NA
"experimental",1,26,"hd","lower","envelop","nw","w","g","g",1,0.705482796882279,NA,NA,NA
"experimental",1,27,"hd","lower","sequence","w","w","g","g",1,0.684250670135953,NA,NA,NA
"experimental",1,28,"hd","lower","coster","w","nw","h","h",1,0.695624550804496,NA,NA,NA
"experimental",1,29,"hd","lower","gestalion","nw","nw","h","h",1,0.962991362437606,NA,NA,NA
"experimental",1,30,"hd","lower","bickering","nw","w","g","h",0,1.03577857080381,NA,NA,NA
"experimental",2,1,"hd","lower","noils","nw","nw","h","h",1,0.704545540036634,NA,NA,NA
"experimental",2,2,"hd","lower","measure","w","w","g","g",1,0.6032198399771,NA,NA,NA
"experimental",2,3,"hd","lower","acroad","nw","nw","h","h",1,0.921985468477942,NA,NA,NA
"experimental",2,4,"hd","lower","release","w","w","g","g",1,0.484107780619524,NA,NA,NA
"experimental",2,5,"hd","lower","permeable","w","w","g","g",1,0.863474955200218,NA,NA,NA
"experimental",2,6,"hd","lower","catgup","nw","nw","h","h",1,0.676206020754762,NA,NA,NA
"experimental",2,7,"hd","lower","cervical","w","w","g","g",1,0.696242987993173,NA,NA,NA
"experimental",2,8,"hd","lower","heuls","nw","nw","h","h",1,0.587286474881694,NA,NA,NA
"experimental",2,9,"hd","lower","carbled","nw","nw","h","h",1,0.659066901891492,NA,NA,NA
"experimental",2,10,"hd","lower","meteoroid","w","w","g","h",0,0.582999791484326,NA,NA,NA
"experimental",2,11,"hd","lower","artifact","w","w","g","g",1,0.598902698140591,NA,NA,NA
"experimental",2,12,"hd","lower","chonemic","nw","nw","h","h",1,0.766519036726095,NA,NA,NA
"experimental",2,13,"hd","lower","reconcile","w","w","g","g",1,0.830936154699884,NA,NA,NA
"experimental",2,14,"hd","lower","pakened","nw","nw","h","h",1,0.861052853288129,NA,NA,NA
"experimental",2,15,"hd","lower","statute","w","w","g","g",1,0.649626465048641,NA,NA,NA
"experimental",2,16,"hd","lower","golemic","nw","nw","h","h",1,0.887307961354963,NA,NA,NA
"experimental",2,17,"hd","lower","talent","w","w","g","g",1,0.57064925681334,NA,NA,NA
"experimental",2,18,"hd","lower","describe","w","w","g","g",1,0.6418453467777,NA,NA,NA
"experimental",2,19,"hd","lower","mosary","nw","nw","h","h",1,0.703238810179755,NA,NA,NA
"experimental",2,20,"hd","lower","pexts","nw","nw","h","h",1,0.617937519098632,NA,NA,NA
"experimental",2,21,"hd","lower","scarlet","w","w","g","g",1,0.744036130607128,NA,NA,NA
"experimental",2,22,"hd","lower","hecture","nw","nw","h","h",1,0.817518915166147,NA,NA,NA
"experimental",2,23,"hd","lower","cartles","nw","nw","h","h",1,0.647500338847749,NA,NA,NA
"experimental",2,24,"hd","lower","smolvers","nw","nw","h","h",1,0.692895878804848,NA,NA,NA
"experimental",2,25,"hd","lower","bentler","nw","nw","h","h",1,0.71232599625364,NA,NA,NA
"experimental",2,26,"hd","lower","diatonic","w","w","g","h",0,0.923087597591802,NA,NA,NA
"experimental",2,27,"hd","lower","calcify","w","w","g","h",0,0.685354454559274,NA,NA,NA
"experimental",2,28,"hd","lower","efcorted","nw","nw","h","h",1,0.783651534235105,NA,NA,NA
"experimental",2,29,"hd","lower","rewrite","w","w","g","g",1,0.639646716532297,NA,NA,NA
"experimental",2,30,"hd","lower","miracle","w","w","g","g",1,0.613056566566229,NA,NA,NA
"experimental",3,1,"ld","upper","ahead","w","w","g","g",1,0.492082243319601,NA,NA,NA
"experimental",3,2,"ld","upper","latpin","nw","nw","h","h",1,0.607482024235651,NA,NA,NA
"experimental",3,3,"ld","upper","pastnoss","nw","nw","h","h",1,0.949517841218039,NA,NA,NA
"experimental",3,4,"ld","upper","withep","nw","nw","h","h",1,0.630587671301328,NA,NA,NA
"experimental",3,5,"ld","upper","galashes","nw","nw","h","h",1,0.861024381243624,NA,NA,NA
"experimental",3,6,"ld","upper","gackpedal","nw","nw","h","h",1,0.537397664505988,NA,NA,NA
"experimental",3,7,"ld","upper","hackal","nw","nw","h","h",1,0.682797276531346,NA,NA,NA
"experimental",3,8,"ld","upper","massacre","w","w","g","g",1,0.67897706956137,NA,NA,NA
"experimental",3,9,"ld","upper","frunted","nw","nw","h","h",1,0.683014126843773,NA,NA,NA
"experimental",3,10,"ld","upper","servant","w","w","g","g",1,0.647058030590415,NA,NA,NA
"experimental",3,11,"ld","upper","border","w","w","g","g",1,0.523615255719051,NA,NA,NA
"experimental",3,12,"ld","upper","sludding","nw","nw","h","h",1,0.797684231307358,NA,NA,NA
"experimental",3,13,"ld","upper","railway","w","w","g","q",0,0.556976431864314,NA,NA,NA
"experimental",3,14,"ld","upper","roaned","nw","nw","h","h",1,0.885760543984361,NA,NA,NA
"experimental",3,15,"ld","upper","stranded","w","w","g","g",1,0.841185393510386,NA,NA,NA
"experimental",3,16,"ld","upper","lonnote","nw","nw","h","h",1,0.63059065095149,NA,NA,NA
"experimental",3,17,"ld","upper","require","w","w","g","h",0,0.500649981782772,NA,NA,NA
"experimental",3,18,"ld","upper","issue","w","w","g","g",1,0.527381498250179,NA,NA,NA
"experimental",3,19,"ld","upper","grenavier","nw","nw","h","h",1,0.633524916833267,NA,NA,NA
"experimental",3,20,"ld","upper","module","w","w","g","g",1,0.575508027686737,NA,NA,NA
"experimental",3,21,"ld","upper","butterfly","target","target","q","q",1,0.854745323769748,1,NA,NA
"experimental",3,22,"ld","upper","pepperoni","aftertar1","w","g","g",1,1.01139565883204,NA,NA,NA
"experimental",3,23,"ld","upper","congraks","aftertar2","nw","h","h",1,0.785859103314579,NA,NA,NA
"experimental",3,24,"ld","upper","dislokes","aftertar3","nw","h","h",1,0.729531660093926,NA,NA,NA
"experimental",3,25,"ld","upper","combat","nw","w","g","g",1,0.603599245194346,NA,NA,NA
"experimental",3,26,"ld","upper","purpose","w","w","g","g",1,0.530412105377764,NA,NA,NA
"experimental",3,27,"ld","upper","fictional","w","w","g","g",1,0.492415298824199,NA,NA,NA
"experimental",3,28,"ld","upper","company","w","w","g","g",1,0.519836101331748,NA,NA,NA
"experimental",3,29,"ld","upper","halents","w","nw","h","h",1,0.649958196328953,NA,NA,NA
"experimental",3,30,"ld","upper","prison","nw","w","g","g",1,0.494370262138546,NA,NA,NA
"experimental",4,1,"hd","lower","binder","w","w","g","g",1,0.60990412614774,NA,NA,NA
"experimental",4,2,"hd","lower","glaims","nw","nw","h","h",1,0.600395820103586,NA,NA,NA
"experimental",4,3,"hd","lower","edasion","nw","nw","h","h",1,0.623586220899597,NA,NA,NA
"experimental",4,4,"hd","lower","clarms","nw","nw","h","h",1,0.726288506761193,NA,NA,NA
"experimental",4,5,"hd","lower","courier","w","w","g","g",1,0.615317768766545,NA,NA,NA
"experimental",4,6,"hd","lower","angry","w","w","g","g",1,0.638030105852522,NA,NA,NA
"experimental",4,7,"hd","lower","deeper","w","w","g","g",1,0.467574849375524,NA,NA,NA
"experimental",4,8,"hd","lower","unsmilung","nw","nw","h","h",1,0.631524596945383,NA,NA,NA
"experimental",4,9,"hd","lower","arrive","w","w","g","g",1,0.501597170601599,NA,NA,NA
"experimental",4,10,"hd","lower","manage","w","w","g","g",1,0.472322380985133,NA,NA,NA
"experimental",4,11,"hd","lower","snocks","nw","nw","h","h",1,0.612349402857944,NA,NA,NA
"experimental",4,12,"hd","lower","lawsuit","w","w","g","g",1,0.731022464460693,NA,NA,NA
"experimental",4,13,"hd","lower","squadroim","nw","nw","h","h",1,0.661121185985394,NA,NA,NA
"experimental",4,14,"hd","lower","outfit","w","w","g","g",1,0.561775941518135,NA,NA,NA
"experimental",4,15,"hd","lower","culinary","w","w","g","g",1,0.737733898218721,NA,NA,NA
"experimental",4,16,"hd","lower","sullen","w","w","g","h",0,0.674968484323472,NA,NA,NA
"experimental",4,17,"hd","lower","bailmenz","nw","nw","h","h",1,0.7270642016083,NA,NA,NA
"experimental",4,18,"hd","lower","blassed","nw","nw","h","h",1,0.961146976216696,NA,NA,NA
"experimental",4,19,"hd","lower","saucer","w","w","g","g",1,0.769960500532761,NA,NA,NA
"experimental",4,20,"hd","lower","retreat","w","w","g","g",1,0.754007602459751,NA,NA,NA
"experimental",4,21,"hd","lower","outrank","w","w","g","g",1,0.770686204195954,NA,NA,NA
"experimental",4,22,"hd","lower","porcupine","target","target","q","q",1,1.03482442942914,1,NA,NA
"experimental",4,23,"hd","lower","pypecast","aftertar1","nw","h","h",1,0.799444857053459,NA,NA,NA
"experimental",4,24,"hd","lower","mandlers","aftertar2","nw","h","h",1,0.750645595253445,NA,NA,NA
"experimental",4,25,"hd","lower","selongs","aftertar3","nw","h","h",1,0.727368123130873,NA,NA,NA
"experimental",4,26,"hd","lower","ephically","nw","nw","h","h",1,0.633539483882487,NA,NA,NA
"experimental",4,27,"hd","lower","hutting","nw","nw","h","h",1,1.07142511743587,NA,NA,NA
"experimental",4,28,"hd","lower","chyme","nw","nw","h","h",1,0.619488246971741,NA,NA,NA
"experimental",4,29,"hd","lower","miurnal","nw","nw","h","h",1,0.617609760607593,NA,NA,NA
"experimental",4,30,"hd","lower","target","nw","w","g","g",1,0.477543341461569,NA,NA,NA
"experimental",5,1,"ld","upper","demise","w","w","g","g",1,0.9791137680877,NA,NA,NA
"experimental",5,2,"ld","upper","stalemate","w","w","g","g",1,0.643152076634578,NA,NA,NA
"experimental",5,3,"ld","upper","gaioty","nw","nw","h","h",1,0.592589540523477,NA,NA,NA
"experimental",5,4,"ld","upper","prillway","nw","nw","h","h",1,0.535987640963867,NA,NA,NA
"experimental",5,5,"ld","upper","ronic","nw","nw","h","h",1,0.64140171406325,NA,NA,NA
"experimental",5,6,"ld","upper","advantage","w","w","g","g",1,0.60680896055419,NA,NA,NA
"experimental",5,7,"ld","upper","lofty","w","w","g","g",1,0.644625996588729,NA,NA,NA
"experimental",5,8,"ld","upper","addition","w","w","g","g",1,0.466419749078341,NA,NA,NA
"experimental",5,9,"ld","upper","pegend","nw","nw","h","h",1,0.742505266796798,NA,NA,NA
"experimental",5,10,"ld","upper","otoist","nw","nw","h","h",1,0.58414992573671,NA,NA,NA
"experimental",5,11,"ld","upper","potent","w","w","g","g",1,1.01550323388074,NA,NA,NA
"experimental",5,12,"ld","upper","painter","w","w","g","g",1,0.510263236821629,NA,NA,NA
"experimental",5,13,"ld","upper","eightiech","nw","nw","h","h",1,1.08099864399992,NA,NA,NA
"experimental",5,14,"ld","upper","scrib","nw","nw","h","h",1,0.525074608507566,NA,NA,NA
"experimental",5,15,"ld","upper","ralliep","nw","nw","h","h",1,0.567136613070033,NA,NA,NA
"experimental",5,16,"ld","upper","uncorked","w","w","g","g",1,0.727203912800178,NA,NA,NA
"experimental",5,17,"ld","upper","mitro","nw","nw","h","h",1,0.776398802292533,NA,NA,NA
"experimental",5,18,"ld","upper","nearsipe","nw","nw","h","g",0,0.59240083117038,NA,NA,NA
"experimental",5,19,"ld","upper","tusied","nw","nw","h","h",1,0.607725691050291,NA,NA,NA
"experimental",5,20,"ld","upper","acorn","w","w","g","g",1,0.638454867643304,NA,NA,NA
"experimental",5,21,"ld","upper","aggepting","nw","nw","h","h",1,0.691907637403347,NA,NA,NA
"experimental",5,22,"ld","upper","deadly","w","w","g","g",1,0.623296204255894,NA,NA,NA
"experimental",5,23,"ld","upper","venturous","w","w","g","g",1,0.861330620362423,NA,NA,NA
"experimental",5,24,"ld","upper","ignoble","w","w","g","h",0,0.889627100666985,NA,NA,NA
"experimental",5,25,"ld","upper","saturate","w","w","g","g",1,0.628456248203292,NA,NA,NA
"experimental",5,26,"ld","upper","deceit","w","w","g","g",1,0.722671576193534,NA,NA,NA
"experimental",5,27,"ld","upper","crudios","nw","nw","h","h",1,0.668709290912375,NA,NA,NA
"experimental",5,28,"ld","upper","doads","nw","nw","h","h",1,0.70478324778378,NA,NA,NA
"experimental",5,29,"ld","upper","gettle","nw","nw","h","h",1,0.619563730782829,NA,NA,NA
"experimental",5,30,"ld","upper","telecast","w","w","g","h",0,0.753711626515724,NA,NA,NA
"experimental",6,1,"ld","upper","ements","nw","nw","h","h",1,0.769818471977487,NA,NA,NA
"experimental",6,2,"ld","upper","quickel","nw","nw","h","h",1,0.569817942217924,NA,NA,NA
"experimental",6,3,"ld","upper","amidst","w","w","g","h",0,0.449912310112268,NA,NA,NA
"experimental",6,4,"ld","upper","ciping","nw","nw","h","h",1,0.607247627223842,NA,NA,NA
"experimental",6,5,"ld","upper","pamine","nw","nw","h","h",1,0.637981769745238,NA,NA,NA
"experimental",6,6,"ld","upper","geissue","nw","nw","h","h",1,0.475411256193183,NA,NA,NA
"experimental",6,7,"ld","upper","hasks","nw","nw","h","h",1,0.7995405360125,NA,NA,NA
"experimental",6,8,"ld","upper","goblet","w","w","g","g",1,0.718894739286043,NA,NA,NA
"experimental",6,9,"ld","upper","bamboo","w","w","g","g",1,0.544947696500458,NA,NA,NA
"experimental",6,10,"ld","upper","mineluyer","nw","nw","h","h",1,0.689448455814272,NA,NA,NA
"experimental",6,11,"ld","upper","trake","nw","nw","h","h",1,0.684770117630251,NA,NA,NA
"experimental",6,12,"ld","upper","burning","w","w","g","g",1,0.776193870580755,NA,NA,NA
"experimental",6,13,"ld","upper","fomrade","nw","nw","h","h",1,0.768232981790788,NA,NA,NA
"experimental",6,14,"ld","upper","clooped","nw","nw","h","h",1,0.855930551420897,NA,NA,NA
"experimental",6,15,"ld","upper","throttle","w","w","g","h",0,0.565069086267613,NA,NA,NA
"experimental",6,16,"ld","upper","mandate","w","w","g","g",1,0.693736794404685,NA,NA,NA
"experimental",6,17,"ld","upper","despise","w","w","g","g",1,0.505124712595716,NA,NA,NA
"experimental",6,18,"ld","upper","terming","w","w","g","h",0,0.667579351807944,NA,NA,NA
"experimental",6,19,"ld","upper","priant","nw","nw","h","h",1,0.623766322620213,NA,NA,NA
"experimental",6,20,"ld","upper","filny","nw","nw","h","h",1,0.725759127060883,NA,NA,NA
"experimental",6,21,"ld","upper","ecistle","nw","nw","h","h",1,0.559797803172842,NA,NA,NA
"experimental",6,22,"ld","upper","slowning","nw","nw","h","h",1,0.840092203230597,NA,NA,NA
"experimental",6,23,"ld","upper","butler","w","w","g","g",1,0.782018701196648,NA,NA,NA
"experimental",6,24,"ld","upper","giving","w","w","g","g",1,0.646085018292069,NA,NA,NA
"experimental",6,25,"ld","upper","populace","w","w","g","h",0,1.12357181939296,NA,NA,NA
"experimental",6,26,"ld","upper","suspect","w","w","g","g",1,0.733580966829322,NA,NA,NA
"experimental",6,27,"ld","upper","system","w","w","g","g",1,0.799788837786764,NA,NA,NA
"experimental",6,28,"ld","upper","mebase","nw","nw","h","h",1,0.710280319908634,NA,NA,NA
"experimental",6,29,"ld","upper","intercede","w","w","g","h",0,0.936918011400849,NA,NA,NA
"experimental",6,30,"ld","upper","epic","w","w","g","g",1,0.762284993426874,NA,NA,NA
"experimental",7,1,"hd","lower","odacles","nw","nw","h","h",1,0.739323692396283,NA,NA,NA
"experimental",7,2,"hd","lower","ascending","w","w","g","g",1,0.739800762967207,NA,NA,NA
"experimental",7,3,"hd","lower","knowledge","w","w","g","g",1,0.525296755949967,NA,NA,NA
"experimental",7,4,"hd","lower","formation","w","w","g","g",1,0.671173438662663,NA,NA,NA
"experimental",7,5,"hd","lower","religious","w","w","g","g",1,0.683302488061599,NA,NA,NA
"experimental",7,6,"hd","lower","baladroit","nw","nw","h","h",1,0.743310758145526,NA,NA,NA
"experimental",7,7,"hd","lower","imotope","nw","nw","h","h",1,0.584697845275514,NA,NA,NA
"experimental",7,8,"hd","lower","booster","w","w","g","g",1,0.680118264979683,NA,NA,NA
"experimental",7,9,"hd","lower","standard","w","w","g","g",1,0.532305489759892,NA,NA,NA
"experimental",7,10,"hd","lower","peags","nw","nw","h","h",1,0.71810480824206,NA,NA,NA
"experimental",7,11,"hd","lower","graiking","nw","nw","h","h",1,0.49619279790204,NA,NA,NA
"experimental",7,12,"hd","lower","delegate","w","w","g","g",1,0.641532155335881,NA,NA,NA
"experimental",7,13,"hd","lower","ready","w","w","g","g",1,0.566865798551589,NA,NA,NA
"experimental",7,14,"hd","lower","joadbed","nw","nw","h","h",1,0.624779725214466,NA,NA,NA
"experimental",7,15,"hd","lower","plunging","w","w","g","g",1,1.02293772273697,NA,NA,NA
"experimental",7,16,"hd","lower","elephant","target","target","q","q",1,0.676954568130895,1,NA,NA
"experimental",7,17,"hd","lower","oppose","aftertar1","w","g","g",1,0.657148687168956,NA,NA,NA
"experimental",7,18,"hd","lower","seartfelt","aftertar2","nw","h","h",1,0.685803384403698,NA,NA,NA
"experimental",7,19,"hd","lower","bypassed","aftertar3","w","g","g",1,0.745252478634939,NA,NA,NA
"experimental",7,20,"hd","lower","pregs","w","nw","h","h",1,0.602634509676136,NA,NA,NA
"experimental",7,21,"hd","lower","melodic","nw","w","g","g",1,0.912529140361585,NA,NA,NA
"experimental",7,22,"hd","lower","paterways","w","nw","h","h",1,0.69951395120006,NA,NA,NA
"experimental",7,23,"hd","lower","mystery","nw","w","g","g",1,0.590563066187315,NA,NA,NA
"experimental",7,24,"hd","lower","eggays","w","nw","h","h",1,0.597976697841659,NA,NA,NA
"experimental",7,25,"hd","lower","ebuating","nw","nw","h","h",1,0.549437325214967,NA,NA,NA
"experimental",7,26,"hd","lower","abraid","nw","nw","h","h",1,0.694743244675919,NA,NA,NA
"experimental",7,27,"hd","lower","optional","nw","w","g","g",1,0.68216592760291,NA,NA,NA
"experimental",7,28,"hd","lower","gigoho","w","nw","h","h",1,0.598248505615629,NA,NA,NA
"experimental",7,29,"hd","lower","smabled","nw","nw","h","h",1,0.893713818280958,NA,NA,NA
"experimental",7,30,"hd","lower","maroon","nw","w","g","g",1,0.856178191141225,NA,NA,NA
"experimental",8,1,"ld","upper","atsless","nw","nw","h","h",1,0.725055936141871,NA,NA,NA
"experimental",8,2,"ld","upper","trophy","w","w","g","g",1,0.639181233360432,NA,NA,NA
"experimental",8,3,"ld","upper","athcan","nw","nw","h","h",1,0.540515342610888,NA,NA,NA
"experimental",8,4,"ld","upper","primal","w","w","g","g",1,0.581959241069853,NA,NA,NA
"experimental",8,5,"ld","upper","frader","nw","nw","h","h",1,0.530745160998777,NA,NA,NA
"experimental",8,6,"ld","upper","bingu","nw","nw","h","h",1,0.471137484535575,NA,NA,NA
"experimental",8,7,"ld","upper","airmen","w","w","g","g",1,0.747134275734425,NA,NA,NA
"experimental",8,8,"ld","upper","desert","w","w","g","g",1,0.596634543384425,NA,NA,NA
"experimental",8,9,"ld","upper","incidonts","nw","nw","h","h",1,0.715009973850101,NA,NA,NA
"experimental",8,10,"ld","upper","scack","nw","nw","h","h",1,0.606099810451269,NA,NA,NA
"experimental",8,11,"ld","upper","shests","nw","nw","h","h",1,0.596823583939113,NA,NA,NA
"experimental",8,12,"ld","upper","gairs","nw","nw","h","h",1,0.388232802972198,NA,NA,NA
"experimental",8,13,"ld","upper","brother","w","w","g","q",0,0.635668920585886,NA,NA,NA
"experimental",8,14,"ld","upper","funtair","nw","nw","h","h",1,1.34413505415432,NA,NA,NA
"experimental",8,15,"ld","upper","curtail","w","w","g","h",0,0.640868692775257,NA,NA,NA
"experimental",8,16,"ld","upper","column","w","w","g","g",1,0.630231771967374,NA,NA,NA
"experimental",8,17,"ld","upper","ronvince","nw","nw","h","h",1,0.700380359077826,NA,NA,NA
"experimental",8,18,"ld","upper","ofsters","nw","nw","h","h",1,0.767107015475631,NA,NA,NA
"experimental",8,19,"ld","upper","addma","nw","nw","h","h",1,0.535092761041597,NA,NA,NA
"experimental",8,20,"ld","upper","gures","nw","nw","h","h",1,0.504490384017117,NA,NA,NA
"experimental",8,21,"ld","upper","omission","w","w","g","g",1,0.7072566653369,NA,NA,NA
"experimental",8,22,"ld","upper","region","w","w","g","g",1,0.766066796262749,NA,NA,NA
"experimental",8,23,"ld","upper","handed","w","w","g","g",1,0.92517200903967,NA,NA,NA
"experimental",8,24,"ld","upper","guitar","w","w","g","g",1,0.83927346917335,NA,NA,NA
"experimental",8,25,"ld","upper","splatter","w","w","g","g",1,0.98059497133363,NA,NA,NA
"experimental",8,26,"ld","upper","comment","w","w","g","g",1,0.50794012460392,NA,NA,NA
"experimental",8,27,"ld","upper","slogan","w","w","g","g",1,0.598760007414967,NA,NA,NA
"experimental",8,28,"ld","upper","defeat","w","w","g","g",1,0.613070140476339,NA,NA,NA
"experimental",8,29,"ld","upper","walsams","nw","nw","h","h",1,0.619572338531725,NA,NA,NA
"experimental",8,30,"ld","upper","wrecber","nw","nw","h","h",1,0.85694229870569,NA,NA,NA
"experimental",9,1,"ld","upper","churnad","nw","nw","h","h",1,0.596774585777894,NA,NA,NA
"experimental",9,2,"ld","upper","ilterfere","nw","nw","h","h",1,0.507476296741515,NA,NA,NA
"experimental",9,3,"ld","upper","roughly","w","w","g","g",1,1.02959055732936,NA,NA,NA
"experimental",9,4,"ld","upper","unlined","w","w","g","g",1,0.563051881967112,NA,NA,NA
"experimental",9,5,"ld","upper","dests","nw","nw","h","h",1,0.707133507705294,NA,NA,NA
"experimental",9,6,"ld","upper","iflaid","nw","nw","h","h",1,0.597229805774987,NA,NA,NA
"experimental",9,7,"ld","upper","failure","w","w","g","g",1,0.835060283076018,NA,NA,NA
"experimental",9,8,"ld","upper","elormity","nw","nw","h","h",1,0.592504786909558,NA,NA,NA
"experimental",9,9,"ld","upper","labitable","nw","nw","h","h",1,0.815193816553801,NA,NA,NA
"experimental",9,10,"ld","upper","mamps","nw","nw","h","h",1,0.509230632218532,NA,NA,NA
"experimental",9,11,"ld","upper","protest","w","w","g","g",1,0.663247974123806,NA,NA,NA
"experimental",9,12,"ld","upper","germeated","nw","nw","h","h",1,0.491331378463656,NA,NA,NA
"experimental",9,13,"ld","upper","arrested","w","w","g","g",1,0.734298724797554,NA,NA,NA
"experimental",9,14,"ld","upper","ucility","nw","nw","h","h",1,0.567619643057697,NA,NA,NA
"experimental",9,15,"ld","upper","volume","w","w","g","g",1,0.599640651373193,NA,NA,NA
"experimental",9,16,"ld","upper","encounter","w","w","g","g",1,0.589421539916657,NA,NA,NA
"experimental",9,17,"ld","upper","omners","nw","nw","h","h",1,0.59609688713681,NA,NA,NA
"experimental",9,18,"ld","upper","armada","w","w","g","h",0,0.594690174330026,NA,NA,NA
"experimental",9,19,"ld","upper","volition","w","w","g","h",0,0.793502165819518,NA,NA,NA
"experimental",9,20,"ld","upper","reborn","w","w","g","g",1,0.648995116120204,NA,NA,NA
"experimental",9,21,"ld","upper","ghists","nw","nw","h","h",1,0.517721562646329,NA,NA,NA
"experimental",9,22,"ld","upper","hotplate","w","w","g","g",1,0.911663394421339,NA,NA,NA
"experimental",9,23,"ld","upper","detrabe","nw","nw","h","h",1,0.602034943411127,NA,NA,NA
"experimental",9,24,"ld","upper","oppose","w","w","g","g",1,0.504555604537018,NA,NA,NA
"experimental",9,25,"ld","upper","chiffol","nw","nw","h","h",1,0.498514254810289,NA,NA,NA
"experimental",9,26,"ld","upper","solidity","w","w","g","g",1,0.573064737371169,NA,NA,NA
"experimental",9,27,"ld","upper","martial","w","w","g","h",0,0.836265705991536,NA,NA,NA
"experimental",9,28,"ld","upper","dentures","w","w","g","g",1,0.559783898410387,NA,NA,NA
"experimental",9,29,"ld","upper","shurk","nw","nw","h","h",1,0.873146478319541,NA,NA,NA
"experimental",9,30,"ld","upper","finstrel","nw","nw","h","h",1,0.620528797269799,NA,NA,NA
"experimental",10,1,"hd","lower","mabit","nw","nw","h","h",1,0.913415412418544,NA,NA,NA
"experimental",10,2,"hd","lower","reddar","nw","nw","h","h",1,0.755418288172223,NA,NA,NA
"experimental",10,3,"hd","lower","trooper","w","w","g","g",1,0.715518827200867,NA,NA,NA
"experimental",10,4,"hd","lower","potter","w","w","g","g",1,0.613507813774049,NA,NA,NA
"experimental",10,5,"hd","lower","mining","w","w","g","g",1,0.547577709774487,NA,NA,NA
"experimental",10,6,"hd","lower","atabaster","nw","nw","h","h",1,0.652395196375437,NA,NA,NA
"experimental",10,7,"hd","lower","flicking","w","w","g","g",1,0.641079252702184,NA,NA,NA
"experimental",10,8,"hd","lower","oleandur","nw","nw","h","h",1,0.58182615134865,NA,NA,NA
"experimental",10,9,"hd","lower","compose","w","w","g","g",1,0.677201214595698,NA,NA,NA
"experimental",10,10,"hd","lower","planar","w","w","g","g",1,1.6237712885486,NA,NA,NA
"experimental",10,11,"hd","lower","peahem","nw","nw","h","h",1,0.581094157532789,NA,NA,NA
"experimental",10,12,"hd","lower","caloric","w","w","g","g",1,0.675821980577894,NA,NA,NA
"experimental",10,13,"hd","lower","casino","w","w","g","g",1,0.583907914231531,NA,NA,NA
"experimental",10,14,"hd","lower","welayed","nw","nw","h","h",1,0.96733002376277,NA,NA,NA
"experimental",10,15,"hd","lower","drine","nw","nw","h","h",1,0.807144863298163,NA,NA,NA
"experimental",10,16,"hd","lower","overflow","w","w","g","g",1,0.661195345339365,NA,NA,NA
"experimental",10,17,"hd","lower","glapula","nw","nw","h","g",0,0.673230702290311,NA,NA,NA
"experimental",10,18,"hd","lower","intrude","w","w","g","g",1,0.611683291732334,NA,NA,NA
"experimental",10,19,"hd","lower","larger","w","w","g","g",1,0.55376671650447,NA,NA,NA
"experimental",10,20,"hd","lower","nelvet","nw","nw","h","h",1,0.554422895540483,NA,NA,NA
"experimental",10,21,"hd","lower","numbled","nw","nw","h","g",0,0.906193800969049,NA,NA,NA
"experimental",10,22,"hd","lower","gunrunker","nw","nw","h","h",1,0.684735355316661,NA,NA,NA
"experimental",10,23,"hd","lower","crocodile","target","target","q","g",0,0.640008906135336,NA,NA,NA
"experimental",10,24,"hd","lower","frigs","aftertar1","nw","h","h",1,0.660848053870723,NA,NA,NA
"experimental",10,25,"hd","lower","presently","aftertar2","w","g","g",1,1.22492234979291,NA,NA,NA
"experimental",10,26,"hd","lower","donastic","aftertar3","nw","h","h",1,0.678349693538621,NA,NA,NA
"experimental",10,27,"hd","lower","tablet","nw","w","g","g",1,0.552891038591042,NA,NA,NA
"experimental",10,28,"hd","lower","riosk","w","nw","h","h",1,0.560852258466184,NA,NA,NA
"experimental",10,29,"hd","lower","destroy","nw","w","g","g",1,0.576911429874599,NA,NA,NA
"experimental",10,30,"hd","lower","female","w","w","g","g",1,0.704293927527033,NA,NA,NA
"experimental",11,1,"hd","lower","burrowing","w","w","g","g",1,0.819333836319856,NA,NA,NA
"experimental",11,2,"hd","lower","official","w","w","g","g",1,0.455890425830148,NA,NA,NA
"experimental",11,3,"hd","lower","gazes","w","w","g","g",1,0.811879152199253,NA,NA,NA
"experimental",11,4,"hd","lower","rejoiced","w","w","g","g",1,0.657903193845414,NA,NA,NA
"experimental",11,5,"hd","lower","comply","w","w","g","g",1,0.541978999390267,NA,NA,NA
"experimental",11,6,"hd","lower","rangel","nw","nw","h","h",1,0.622708225506358,NA,NA,NA
"experimental",11,7,"hd","lower","schides","nw","nw","h","h",1,0.59615449316334,NA,NA,NA
"experimental",11,8,"hd","lower","rantho","nw","nw","h","h",1,0.538668969995342,NA,NA,NA
"experimental",11,9,"hd","lower","ufionize","nw","nw","h","h",1,0.531398360384628,NA,NA,NA
"experimental",11,10,"hd","lower","ragtam","nw","nw","h","h",1,0.524617401999421,NA,NA,NA
"experimental",11,11,"hd","lower","borrent","nw","nw","h","h",1,0.733933224459179,NA,NA,NA
"experimental",11,12,"hd","lower","cabinet","w","w","g","g",1,0.718485206714831,NA,NA,NA
"experimental",11,13,"hd","lower","uncle","w","w","g","g",1,0.568652247777209,NA,NA,NA
"experimental",11,14,"hd","lower","explosion","w","w","g","g",1,0.598518989048898,NA,NA,NA
"experimental",11,15,"hd","lower","pircus","nw","nw","h","h",1,0.671271766186692,NA,NA,NA
"experimental",11,16,"hd","lower","alarm","w","w","g","g",1,0.674689061939716,NA,NA,NA
"experimental",11,17,"hd","lower","childhood","w","w","g","g",1,0.638081421493553,NA,NA,NA
"experimental",11,18,"hd","lower","crundle","nw","nw","h","h",1,0.682863821391948,NA,NA,NA
"experimental",11,19,"hd","lower","joses","nw","nw","h","h",1,0.558061676681973,NA,NA,NA
"experimental",11,20,"hd","lower","handbook","w","w","g","g",1,0.6459575566696,NA,NA,NA
"experimental",11,21,"hd","lower","rebool","nw","nw","h","h",1,0.561624311725609,NA,NA,NA
"experimental",11,22,"hd","lower","impirt","nw","nw","h","h",1,0.625574291101657,NA,NA,NA
"experimental",11,23,"hd","lower","paranoid","w","w","g","g",1,0.678946611238644,NA,NA,NA
"experimental",11,24,"hd","lower","gund","nw","nw","h","h",1,0.530373370274901,NA,NA,NA
"experimental",11,25,"hd","lower","chappef","nw","nw","h","h",1,0.59541753330268,NA,NA,NA
"experimental",11,26,"hd","lower","kettle","w","w","g","g",1,0.682179832481779,NA,NA,NA
"experimental",11,27,"hd","lower","guffy","nw","nw","h","h",1,0.557589903008193,NA,NA,NA
"experimental",11,28,"hd","lower","enabled","w","w","g","g",1,0.565692820469849,NA,NA,NA
"experimental",11,29,"hd","lower","squirrel","target","target","q","g",0,0.645697336411104,NA,NA,NA
"experimental",11,30,"hd","lower","unburnid","aftertar1","nw","h","h",1,0.762469729990698,NA,NA,NA
"experimental",12,1,"hd","lower","fillings","w","w","g","g",1,0.63450157083571,NA,NA,NA
"experimental",12,2,"hd","lower","capobly","nw","nw","h","h",1,0.647855907212943,NA,NA,NA
"experimental",12,3,"hd","lower","finish","w","w","g","g",1,0.484595445450395,NA,NA,NA
"experimental",12,4,"hd","lower","oalis","nw","nw","h","h",1,0.591986001469195,NA,NA,NA
"experimental",12,5,"hd","lower","accessory","w","w","g","g",1,0.622702266322449,NA,NA,NA
"experimental",12,6,"hd","lower","obtuse","w","w","g","g",1,0.755774518474936,NA,NA,NA
"experimental",12,7,"hd","lower","roodies","nw","nw","h","h",1,0.675890842918307,NA,NA,NA
"experimental",12,8,"hd","lower","horks","nw","nw","h","h",1,0.615302870748565,NA,NA,NA
"experimental",12,9,"hd","lower","noblest","w","w","g","h",0,0.621334619587287,NA,NA,NA
"experimental",12,10,"hd","lower","irfirm","nw","nw","h","h",1,0.634723387192935,NA,NA,NA
"experimental",12,11,"hd","lower","single","w","w","g","g",1,0.664280909928493,NA,NA,NA
"experimental",12,12,"hd","lower","collision","w","w","g","g",1,0.548182904254645,NA,NA,NA
"experimental",12,13,"hd","lower","shillac","nw","nw","h","h",1,0.653026545187458,NA,NA,NA
"experimental",12,14,"hd","lower","dusmy","nw","nw","h","h",1,0.633197489427403,NA,NA,NA
"experimental",12,15,"hd","lower","matter","w","w","g","h",0,0.469562257523648,NA,NA,NA
"experimental",12,16,"hd","lower","hanling","nw","nw","h","h",1,0.657003016793169,NA,NA,NA
"experimental",12,17,"hd","lower","rootsie","nw","nw","h","h",1,0.644976929877885,NA,NA,NA
"experimental",12,18,"hd","lower","pallir","nw","nw","h","h",1,0.521681149723008,NA,NA,NA
"experimental",12,19,"hd","lower","puyer","nw","nw","h","h",1,0.499184338725172,NA,NA,NA
"experimental",12,20,"hd","lower","skiing","w","w","g","g",1,0.509853704250418,NA,NA,NA
"experimental",12,21,"hd","lower","thrapping","nw","nw","h","h",1,0.67996398662217,NA,NA,NA
"experimental",12,22,"hd","lower","agony","w","w","g","g",1,0.715320516726933,NA,NA,NA
"experimental",12,23,"hd","lower","huffle","nw","nw","h","h",1,0.677379991975613,NA,NA,NA
"experimental",12,24,"hd","lower","flacked","nw","nw","h","h",1,0.839899520971812,NA,NA,NA
"experimental",12,25,"hd","lower","inforl","nw","nw","h","h",1,0.580625032423995,NA,NA,NA
"experimental",12,26,"hd","lower","cookbook","w","w","g","h",0,0.763986688805744,NA,NA,NA
"experimental",12,27,"hd","lower","listless","w","w","g","g",1,0.892035959870555,NA,NA,NA
"experimental",12,28,"hd","lower","whirlpool","w","w","g","g",1,0.598773912293836,NA,NA,NA
"experimental",12,29,"hd","lower","index","w","w","g","g",1,0.573449108633213,NA,NA,NA
"experimental",12,30,"hd","lower","spaceship","w","w","g","g",1,0.596915289992467,NA,NA,NA
"experimental",13,1,"ld","upper","preclude","w","w","g","g",1,0.882951753446832,NA,NA,NA
"experimental",13,2,"ld","upper","orange","w","w","g","g",1,0.566941944416612,NA,NA,NA
"experimental",13,3,"ld","upper","maximized","w","w","g","g",1,0.470849785371684,NA,NA,NA
"experimental",13,4,"ld","upper","standard","w","w","g","g",1,0.45829531212803,NA,NA,NA
"experimental",13,5,"ld","upper","noblin","nw","nw","h","h",1,0.630435710656457,NA,NA,NA
"experimental",13,6,"ld","upper","latirizes","nw","nw","h","h",1,0.6759093827568,NA,NA,NA
"experimental",13,7,"ld","upper","tragedy","w","w","g","g",1,0.615291283349507,NA,NA,NA
"experimental",13,8,"ld","upper","asthmatic","w","w","g","g",1,1.14049044623971,NA,NA,NA
"experimental",13,9,"ld","upper","kickoff","w","w","g","g",1,0.525214650784619,NA,NA,NA
"experimental",13,10,"ld","upper","lecked","nw","nw","h","h",1,0.582672032993287,NA,NA,NA
"experimental",13,11,"ld","upper","sording","nw","nw","h","h",1,0.621943786856718,NA,NA,NA
"experimental",13,12,"ld","upper","forgive","w","w","g","g",1,0.595329137751833,NA,NA,NA
"experimental",13,13,"ld","upper","hivinity","nw","nw","h","h",1,0.570074189803563,NA,NA,NA
"experimental",13,14,"ld","upper","dolphin","target","target","q","g",0,0.569387221126817,NA,NA,NA
"experimental",13,15,"ld","upper","grefab","aftertar1","nw","h","h",1,0.912916491273791,NA,NA,NA
"experimental",13,16,"ld","upper","senalize","aftertar2","nw","h","h",1,1.0030000761617,NA,NA,NA
"experimental",13,17,"ld","upper","enunciate","aftertar3","w","g","h",0,0.697025304310955,NA,NA,NA
"experimental",13,18,"ld","upper","govern","w","w","g","g",1,0.690956475795247,NA,NA,NA
"experimental",13,19,"ld","upper","slears","w","nw","h","h",1,0.565552447224036,NA,NA,NA
"experimental",13,20,"ld","upper","baults","nw","nw","h","h",1,0.541638660361059,NA,NA,NA
"experimental",13,21,"ld","upper","chight","nw","nw","h","h",1,0.662378586595878,NA,NA,NA
"experimental",13,22,"ld","upper","adok","nw","nw","h","h",1,0.602430240018293,NA,NA,NA
"experimental",13,23,"ld","upper","railroad","nw","w","g","g",1,0.592802417930216,NA,NA,NA
"experimental",13,24,"ld","upper","sweeping","w","w","g","g",1,0.783579030074179,NA,NA,NA
"experimental",13,25,"ld","upper","rualify","w","nw","h","h",1,0.590879237279296,NA,NA,NA
"experimental",13,26,"ld","upper","daylight","nw","w","g","g",1,0.653613530797884,NA,NA,NA
"experimental",13,27,"ld","upper","trewl","w","nw","h","h",1,0.60879603761714,NA,NA,NA
"experimental",13,28,"ld","upper","frequency","nw","w","g","g",1,0.614060699241236,NA,NA,NA
"experimental",13,29,"ld","upper","blueberry","w","w","g","g",1,0.804817778291181,NA,NA,NA
"experimental",13,30,"ld","upper","tuckel","w","nw","h","h",1,0.683019754942507,NA,NA,NA
"experimental",14,1,"hd","lower","gaining","w","w","g","g",1,0.814760447130539,NA,NA,NA
"experimental",14,2,"hd","lower","penalize","w","w","g","g",1,0.771558902459219,NA,NA,NA
"experimental",14,3,"hd","lower","gonesty","nw","nw","h","h",1,0.659271833719686,NA,NA,NA
"experimental",14,4,"hd","lower","pressing","w","w","g","g",1,0.535343380412087,NA,NA,NA
"experimental",14,5,"hd","lower","etuip","nw","nw","h","h",1,0.552747685578652,NA,NA,NA
"experimental",14,6,"hd","lower","fuhrek","nw","nw","h","h",1,0.536802071030252,NA,NA,NA
"experimental",14,7,"hd","lower","drauns","nw","nw","h","h",1,0.77775221306365,NA,NA,NA
"experimental",14,8,"hd","lower","gounts","nw","nw","h","h",1,0.448985647642985,NA,NA,NA
"experimental",14,9,"hd","lower","tinker","w","w","g","g",1,0.677677292027511,NA,NA,NA
"experimental",14,10,"hd","lower","snorls","nw","nw","h","h",1,0.952258762787096,NA,NA,NA
"experimental",14,11,"hd","lower","dingly","nw","nw","h","h",1,0.600225319503807,NA,NA,NA
"experimental",14,12,"hd","lower","loached","nw","nw","h","h",1,0.726952631375752,NA,NA,NA
"experimental",14,13,"hd","lower","bloodless","w","w","g","g",1,0.800437733414583,NA,NA,NA
"experimental",14,14,"hd","lower","terrify","w","w","g","g",1,0.686384079628624,NA,NA,NA
"experimental",14,15,"hd","lower","gontracts","nw","nw","h","h",1,0.601114902296104,NA,NA,NA
"experimental",14,16,"hd","lower","helpful","w","w","g","g",1,0.767160317744128,NA,NA,NA
"experimental",14,17,"hd","lower","collute","nw","nw","h","h",1,0.782253760262392,NA,NA,NA
"experimental",14,18,"hd","lower","scrooner","nw","nw","h","h",1,0.758028437267058,NA,NA,NA
"experimental",14,19,"hd","lower","oginous","nw","nw","h","h",1,0.637954953126609,NA,NA,NA
"experimental",14,20,"hd","lower","undertake","w","w","g","g",1,0.857888163300231,NA,NA,NA
"experimental",14,21,"hd","lower","encrusted","w","w","g","h",0,1.13235442189034,NA,NA,NA
"experimental",14,22,"hd","lower","plogging","nw","nw","h","h",1,0.735240947571583,NA,NA,NA
"experimental",14,23,"hd","lower","itself","w","w","g","g",1,0.584053584607318,NA,NA,NA
"experimental",14,24,"hd","lower","rainfall","w","w","g","g",1,0.57544711092487,NA,NA,NA
"experimental",14,25,"hd","lower","absent","w","w","g","g",1,0.566854873322882,NA,NA,NA
"experimental",14,26,"hd","lower","sustain","w","w","g","g",1,0.614956903504208,NA,NA,NA
"experimental",14,27,"hd","lower","ebince","nw","nw","h","h",1,0.709021595073864,NA,NA,NA
"experimental",14,28,"hd","lower","ladybug","target","target","q","q",1,0.775112929753959,1,NA,NA
"experimental",14,29,"hd","lower","patio","aftertar1","w","g","g",1,0.997599345166236,NA,NA,NA
"experimental",14,30,"hd","lower","eugenifs","aftertar2","nw","h","h",1,0.676272565731779,NA,NA,NA
"experimental",15,1,"ld","upper","seasoning","w","w","g","g",1,0.640849821851589,NA,NA,NA
"experimental",15,2,"ld","upper","slimped","nw","nw","h","h",1,0.717423468013294,NA,NA,NA
"experimental",15,3,"ld","upper","kiner","nw","nw","h","h",1,0.550011399085633,NA,NA,NA
"experimental",15,4,"ld","upper","cavern","w","w","g","h",0,0.49463379313238,NA,NA,NA
"experimental",15,5,"ld","upper","usually","w","w","g","g",1,0.673217790550552,NA,NA,NA
"experimental",15,6,"ld","upper","bengths","nw","nw","h","h",1,0.532720981631428,NA,NA,NA
"experimental",15,7,"ld","upper","sopes","nw","nw","h","h",1,0.782132257940248,NA,NA,NA
"experimental",15,8,"ld","upper","seeming","w","w","g","g",1,0.526197926141322,NA,NA,NA
"experimental",15,9,"ld","upper","scrobby","nw","nw","h","h",1,0.63155637960881,NA,NA,NA
"experimental",15,10,"ld","upper","batire","nw","nw","h","h",1,0.676800620974973,NA,NA,NA
"experimental",15,11,"ld","upper","scabry","nw","nw","h","h",1,0.552299086935818,NA,NA,NA
"experimental",15,12,"ld","upper","appain","nw","nw","h","h",1,0.584973956807517,NA,NA,NA
"experimental",15,13,"ld","upper","enacted","w","w","g","g",1,0.830742479301989,NA,NA,NA
"experimental",15,14,"ld","upper","visible","w","w","g","g",1,0.713805875391699,NA,NA,NA
"experimental",15,15,"ld","upper","stable","w","w","g","g",1,0.694219493307173,NA,NA,NA
"experimental",15,16,"ld","upper","shamrock","w","w","g","g",1,1.48907216254156,NA,NA,NA
"experimental",15,17,"ld","upper","clypaper","nw","nw","h","h",1,0.579742402187549,NA,NA,NA
"experimental",15,18,"ld","upper","define","w","w","g","g",1,0.611125440220349,NA,NA,NA
"experimental",15,19,"ld","upper","correct","w","w","g","g",1,1.10525939147919,NA,NA,NA
"experimental",15,20,"ld","upper","brimitar","nw","nw","h","h",1,0.691323962528259,NA,NA,NA
"experimental",15,21,"ld","upper","etcess","nw","nw","h","h",1,0.653218234307133,NA,NA,NA
"experimental",15,22,"ld","upper","disease","w","w","g","g",1,0.673231364460662,NA,NA,NA
"experimental",15,23,"ld","upper","sequence","w","w","g","g",1,0.604558683582582,NA,NA,NA
"experimental",15,24,"ld","upper","surdens","nw","nw","h","h",1,0.65063357737381,NA,NA,NA
"experimental",15,25,"ld","upper","arbitrary","w","w","g","g",1,0.687030657776631,NA,NA,NA
"experimental",15,26,"ld","upper","cemoir","nw","nw","h","h",1,0.633568286895752,NA,NA,NA
"experimental",15,27,"ld","upper","calming","w","w","g","g",1,0.710877568693832,NA,NA,NA
"experimental",15,28,"ld","upper","sazer","nw","nw","h","h",1,0.52103357843589,NA,NA,NA
"experimental",15,29,"ld","upper","apology","w","w","g","g",1,0.626091752317734,NA,NA,NA
"experimental",15,30,"ld","upper","seighing","nw","nw","h","g",0,0.814842221094295,NA,NA,NA
"experimental",16,1,"ld","upper","harmful","w","w","g","g",1,0.58979101292789,NA,NA,NA
"experimental",16,2,"ld","upper","downtrund","nw","nw","h","h",1,0.780515647144057,NA,NA,NA
"experimental",16,3,"ld","upper","truthful","w","w","g","g",1,0.51594206597656,NA,NA,NA
"experimental",16,4,"ld","upper","twenties","w","w","g","g",1,0.734034200431779,NA,NA,NA
"experimental",16,5,"ld","upper","demon","w","w","g","g",1,0.445855057681911,NA,NA,NA
"experimental",16,6,"ld","upper","quittint","nw","nw","h","h",1,0.666590117267333,NA,NA,NA
"experimental",16,7,"ld","upper","sliding","w","w","g","g",1,0.566626104526222,NA,NA,NA
"experimental",16,8,"ld","upper","divider","w","w","g","g",1,0.583280538092367,NA,NA,NA
"experimental",16,9,"ld","upper","apop","nw","nw","h","h",1,0.598633207962848,NA,NA,NA
"experimental",16,10,"ld","upper","runabouk","nw","nw","h","h",1,0.965426045004278,NA,NA,NA
"experimental",16,11,"ld","upper","marinate","w","w","g","g",1,0.901592933107168,NA,NA,NA
"experimental",16,12,"ld","upper","fudden","nw","nw","h","h",1,0.791563093662262,NA,NA,NA
"experimental",16,13,"ld","upper","beartiset","nw","nw","h","h",1,0.646378345554695,NA,NA,NA
"experimental",16,14,"ld","upper","arrival","w","w","g","g",1,0.619121422292665,NA,NA,NA
"experimental",16,15,"ld","upper","soluced","nw","nw","h","h",1,0.551703162491322,NA,NA,NA
"experimental",16,16,"ld","upper","frose","nw","nw","h","h",1,0.67146246205084,NA,NA,NA
"experimental",16,17,"ld","upper","dileting","nw","nw","h","h",1,1.04304024158046,NA,NA,NA
"experimental",16,18,"ld","upper","pracking","nw","nw","h","h",1,0.815859927679412,NA,NA,NA
"experimental",16,19,"ld","upper","student","w","w","g","g",1,0.541913447668776,NA,NA,NA
"experimental",16,20,"ld","upper","beggarlan","nw","nw","h","h",1,0.582648858195171,NA,NA,NA
"experimental",16,21,"ld","upper","outset","w","w","g","g",1,0.638026464032009,NA,NA,NA
"experimental",16,22,"ld","upper","chesume","nw","nw","h","h",1,0.834744443069212,NA,NA,NA
"experimental",16,23,"ld","upper","other","w","w","g","h",0,0.479498635861091,NA,NA,NA
"experimental",16,24,"ld","upper","tasher","nw","nw","h","h",1,0.77801773045212,NA,NA,NA
"experimental",16,25,"ld","upper","regional","w","w","g","g",1,0.705320573062636,NA,NA,NA
"experimental",16,26,"ld","upper","chrik","nw","nw","h","h",1,0.650965639739297,NA,NA,NA
"experimental",16,27,"ld","upper","laser","w","w","g","g",1,0.59948604204692,NA,NA,NA
"experimental",16,28,"ld","upper","forgery","w","w","g","h",0,0.870193672482856,NA,NA,NA
"experimental",16,29,"ld","upper","sonkers","nw","nw","h","h",1,0.673602493014187,NA,NA,NA
"experimental",16,30,"ld","upper","grieving","w","w","g","g",1,1.09303598722909,NA,NA,NA
"experimental",17,1,"hd","lower","country","w","w","g","g",1,0.663385367952287,NA,NA,NA
"experimental",17,2,"hd","lower","tucker","w","w","g","g",1,1.08376671315636,NA,NA,NA
"experimental",17,3,"hd","lower","grummer","nw","nw","h","h",1,0.823203372536227,NA,NA,NA
"experimental",17,4,"hd","lower","pocket","w","w","g","g",1,0.596662684343755,NA,NA,NA
"experimental",17,5,"hd","lower","neliefs","nw","nw","h","h",1,0.635386518668383,NA,NA,NA
"experimental",17,6,"hd","lower","unbridled","w","w","g","h",0,0.7128421330126,NA,NA,NA
"experimental",17,7,"hd","lower","supplier","w","w","g","g",1,0.77802435180638,NA,NA,NA
"experimental",17,8,"hd","lower","pretzel","w","w","g","g",1,0.697345117107034,NA,NA,NA
"experimental",17,9,"hd","lower","praiged","nw","nw","h","h",1,0.740057672606781,NA,NA,NA
"experimental",17,10,"hd","lower","snays","nw","nw","h","h",1,0.644795504049398,NA,NA,NA
"experimental",17,11,"hd","lower","rabbit","target","target","q","g",0,0.585517241386697,NA,NA,NA
"experimental",17,12,"hd","lower","tenpince","aftertar1","nw","h","h",1,0.624283452518284,NA,NA,NA
"experimental",17,13,"hd","lower","preserve","aftertar2","w","g","g",1,0.549715092289262,NA,NA,NA
"experimental",17,14,"hd","lower","tiery","aftertar3","nw","h","h",1,0.678131850087084,NA,NA,NA
"experimental",17,15,"hd","lower","extruded","nw","w","g","g",1,0.889550292631611,NA,NA,NA
"experimental",17,16,"hd","lower","elvisages","w","nw","h","h",1,0.731372735695913,NA,NA,NA
"experimental",17,17,"hd","lower","pammed","nw","nw","h","h",1,0.6527150090551,NA,NA,NA
"experimental",17,18,"hd","lower","cogantly","nw","nw","h","h",1,0.680806557647884,NA,NA,NA
"experimental",17,19,"hd","lower","fatho","nw","nw","h","h",1,0.556167629896663,NA,NA,NA
"experimental",17,20,"hd","lower","retona","nw","nw","h","h",1,0.636272790725343,NA,NA,NA
"experimental",17,21,"hd","lower","perishing","nw","w","g","g",1,0.552975130151026,NA,NA,NA
"experimental",17,22,"hd","lower","earmaff","w","nw","h","h",1,0.872948167845607,NA,NA,NA
"experimental",17,23,"hd","lower","actual","nw","w","g","g",1,0.764370066812262,NA,NA,NA
"experimental",17,24,"hd","lower","cayward","w","nw","h","h",1,0.868442647741176,NA,NA,NA
"experimental",17,25,"hd","lower","axis","nw","w","g","g",1,0.671865042066202,NA,NA,NA
"experimental",17,26,"hd","lower","lightels","w","nw","h","h",1,1.00226775126066,NA,NA,NA
"experimental",17,27,"hd","lower","rapport","nw","w","g","h",0,0.741998399957083,NA,NA,NA
"experimental",17,28,"hd","lower","coupling","w","w","g","g",1,0.744627420208417,NA,NA,NA
"experimental",17,29,"hd","lower","expensive","w","w","g","g",1,0.665012903744355,NA,NA,NA
"experimental",17,30,"hd","lower","greakable","w","nw","h","h",1,0.621940476237796,NA,NA,NA
"experimental",18,1,"ld","upper","even","w","w","g","g",1,0.586664395988919,NA,NA,NA
"experimental",18,2,"ld","upper","befin","nw","nw","h","h",1,0.649508273345418,NA,NA,NA
"experimental",18,3,"ld","upper","turning","w","w","g","g",1,0.510159612167627,NA,NA,NA
"experimental",18,4,"ld","upper","amms","nw","nw","h","h",1,0.576224461314268,NA,NA,NA
"experimental",18,5,"ld","upper","rationale","w","w","g","g",1,0.727629667846486,NA,NA,NA
"experimental",18,6,"ld","upper","veirs","nw","nw","h","h",1,0.569052841397934,NA,NA,NA
"experimental",18,7,"ld","upper","arrigns","nw","nw","h","h",1,0.728431517258286,NA,NA,NA
"experimental",18,8,"ld","upper","antique","w","w","g","q",0,0.825855236500502,NA,NA,NA
"experimental",18,9,"ld","upper","stagger","w","w","g","g",1,0.926394316367805,NA,NA,NA
"experimental",18,10,"ld","upper","thesis","w","w","g","g",1,0.671666731708683,NA,NA,NA
"experimental",18,11,"ld","upper","veclors","nw","nw","h","h",1,0.619094605790451,NA,NA,NA
"experimental",18,12,"ld","upper","persona","w","w","g","h",0,1.31252722011413,NA,NA,NA
"experimental",18,13,"ld","upper","wrestle","w","w","g","g",1,0.642629980691709,NA,NA,NA
"experimental",18,14,"ld","upper","emotion","w","w","g","g",1,0.463322266121395,NA,NA,NA
"experimental",18,15,"ld","upper","alchemist","w","w","g","g",1,0.691428249236196,NA,NA,NA
"experimental",18,16,"ld","upper","bumbo","nw","nw","h","h",1,0.702124100411311,NA,NA,NA
"experimental",18,17,"ld","upper","sponto","nw","nw","h","h",1,0.61542569741141,NA,NA,NA
"experimental",18,18,"ld","upper","lentils","w","w","g","g",1,0.77335462148767,NA,NA,NA
"experimental",18,19,"ld","upper","opert","nw","nw","h","h",1,0.700667727156542,NA,NA,NA
"experimental",18,20,"ld","upper","buaint","nw","nw","h","h",1,0.542740789474919,NA,NA,NA
"experimental",18,21,"ld","upper","rational","w","w","g","g",1,0.624060973990709,NA,NA,NA
"experimental",18,22,"ld","upper","aqueduct","w","w","g","h",0,0.668692406383343,NA,NA,NA
"experimental",18,23,"ld","upper","cegalia","nw","nw","h","h",1,0.689004492131062,NA,NA,NA
"experimental",18,24,"ld","upper","subber","nw","nw","h","h",1,0.707718837889843,NA,NA,NA
"experimental",18,25,"ld","upper","ilcurring","nw","nw","h","h",1,0.61378789821174,NA,NA,NA
"experimental",18,26,"ld","upper","emergence","w","w","g","g",1,1.02789283462334,NA,NA,NA
"experimental",18,27,"ld","upper","neally","nw","nw","h","h",1,1.08845498342998,NA,NA,NA
"experimental",18,28,"ld","upper","brongs","nw","nw","h","h",1,0.651098067406565,NA,NA,NA
"experimental",18,29,"ld","upper","icepick","w","w","g","g",1,0.83120200317353,NA,NA,NA
"experimental",18,30,"ld","upper","asclibed","nw","nw","h","h",1,0.732664567418396,NA,NA,NA
"experimental",19,1,"ld","upper","vopings","nw","nw","h","h",1,0.702992825768888,NA,NA,NA
"experimental",19,2,"ld","upper","peanimate","nw","nw","h","h",1,0.672092486638576,NA,NA,NA
"experimental",19,3,"ld","upper","thamp","nw","nw","h","h",1,0.563550472143106,NA,NA,NA
"experimental",19,4,"ld","upper","rearrange","w","w","g","g",1,0.955523435608484,NA,NA,NA
"experimental",19,5,"ld","upper","consonant","w","w","g","h",0,0.715652248007245,NA,NA,NA
"experimental",19,6,"ld","upper","ugifies","nw","nw","h","h",1,0.557649495545775,NA,NA,NA
"experimental",19,7,"ld","upper","sength","nw","nw","h","h",1,0.565752413007431,NA,NA,NA
"experimental",19,8,"ld","upper","educate","w","w","g","g",1,0.773875393322669,NA,NA,NA
"experimental",19,9,"ld","upper","dariner","nw","nw","h","h",1,0.525159031152725,NA,NA,NA
"experimental",19,10,"ld","upper","revising","w","w","g","g",1,0.733930906979367,NA,NA,NA
"experimental",19,11,"ld","upper","plartly","nw","nw","h","h",1,0.6783771723276,NA,NA,NA
"experimental",19,12,"ld","upper","pillage","w","w","g","h",0,0.713718142127618,NA,NA,NA
"experimental",19,13,"ld","upper","bookend","w","w","g","h",0,0.779770741704851,NA,NA,NA
"experimental",19,14,"ld","upper","theles","nw","nw","h","h",1,0.803996064700186,NA,NA,NA
"experimental",19,15,"ld","upper","gumdrep","nw","nw","h","h",1,0.60980414331425,NA,NA,NA
"experimental",19,16,"ld","upper","handcuff","w","w","g","g",1,0.455976834869944,NA,NA,NA
"experimental",19,17,"ld","upper","havel","nw","nw","h","h",1,0.596172702033073,NA,NA,NA
"experimental",19,18,"ld","upper","sunhess","nw","nw","h","h",1,0.72286591376178,NA,NA,NA
"experimental",19,19,"ld","upper","nomma","nw","nw","h","h",1,0.451457740971819,NA,NA,NA
"experimental",19,20,"ld","upper","vibrate","w","w","g","g",1,0.583468585391529,NA,NA,NA
"experimental",19,21,"ld","upper","halms","nw","nw","h","h",1,0.590799449710175,NA,NA,NA
"experimental",19,22,"ld","upper","elderly","w","w","g","g",1,0.637525225407444,NA,NA,NA
"experimental",19,23,"ld","upper","coverall","w","w","g","g",1,0.930289013893344,NA,NA,NA
"experimental",19,24,"ld","upper","ergonomic","w","w","g","h",0,0.771743970108218,NA,NA,NA
"experimental",19,25,"ld","upper","trallion","nw","nw","h","h",1,0.626790970214643,NA,NA,NA
"experimental",19,26,"ld","upper","attrove","nw","nw","h","h",1,0.744492343976162,NA,NA,NA
"experimental",19,27,"ld","upper","subpoena","w","w","g","h",0,0.537235109484755,NA,NA,NA
"experimental",19,28,"ld","upper","fetching","w","w","g","g",1,0.706005555111915,NA,NA,NA
"experimental",19,29,"ld","upper","recount","w","w","g","g",1,0.563131669652648,NA,NA,NA
"experimental",19,30,"ld","upper","personify","w","w","g","g",1,0.603084763744846,NA,NA,NA
"experimental",20,1,"hd","lower","ireology","nw","nw","h","h",1,0.826199879404157,NA,NA,NA
"experimental",20,2,"hd","lower","shivering","w","w","g","g",1,0.647653623949736,NA,NA,NA
"experimental",20,3,"hd","lower","fallacy","w","w","g","g",1,0.915423677884974,NA,NA,NA
"experimental",20,4,"hd","lower","natch","nw","nw","h","h",1,0.597466189181432,NA,NA,NA
"experimental",20,5,"hd","lower","realize","w","w","g","g",1,0.580065856687725,NA,NA,NA
"experimental",20,6,"hd","lower","army","w","w","g","g",1,0.611466772388667,NA,NA,NA
"experimental",20,7,"hd","lower","butled","nw","nw","h","h",1,0.769617181736976,NA,NA,NA
"experimental",20,8,"hd","lower","epthuse","nw","nw","h","h",1,0.776226977468468,NA,NA,NA
"experimental",20,9,"hd","lower","yellep","nw","nw","h","h",1,0.664393473416567,NA,NA,NA
"experimental",20,10,"hd","lower","padicals","nw","nw","h","h",1,0.684571145102382,NA,NA,NA
"experimental",20,11,"hd","lower","medium","w","w","g","g",1,1.31952867051587,NA,NA,NA
"experimental",20,12,"hd","lower","haurded","nw","nw","h","h",1,0.624446338508278,NA,NA,NA
"experimental",20,13,"hd","lower","dounger","nw","nw","h","h",1,0.749907642020844,NA,NA,NA
"experimental",20,14,"hd","lower","derisury","nw","nw","h","h",1,0.790528171579354,NA,NA,NA
"experimental",20,15,"hd","lower","ameld","nw","nw","h","h",1,0.605317825102247,NA,NA,NA
"experimental",20,16,"hd","lower","glassware","w","w","g","g",1,0.96333302592393,NA,NA,NA
"experimental",20,17,"hd","lower","antonym","w","w","g","g",1,0.763250390999019,NA,NA,NA
"experimental",20,18,"hd","lower","curricula","w","w","g","h",0,0.683485569315962,NA,NA,NA
"experimental",20,19,"hd","lower","phraining","nw","nw","h","h",1,0.686928026261739,NA,NA,NA
"experimental",20,20,"hd","lower","smallash","nw","nw","h","h",1,1.38570575206541,NA,NA,NA
"experimental",20,21,"hd","lower","forbid","w","w","g","h",0,0.591497012414038,NA,NA,NA
"experimental",20,22,"hd","lower","anemic","w","w","g","g",1,0.694159569800831,NA,NA,NA
"experimental",20,23,"hd","lower","ifkling","nw","nw","h","h",1,0.632972693420015,NA,NA,NA
"experimental",20,24,"hd","lower","slooch","nw","nw","h","h",1,0.93433103710413,NA,NA,NA
"experimental",20,25,"hd","lower","organize","w","w","g","g",1,0.535064951167442,NA,NA,NA
"experimental",20,26,"hd","lower","jaguar","target","target","q","g",0,0.591766502708197,NA,NA,NA
"experimental",20,27,"hd","lower","whirling","aftertar1","w","g","g",1,0.566586045199074,NA,NA,NA
"experimental",20,28,"hd","lower","yearnungs","aftertar2","nw","h","h",1,0.606620582286268,NA,NA,NA
"experimental",20,29,"hd","lower","bedding","aftertar3","w","g","g",1,0.916044763638638,NA,NA,NA
"experimental",20,30,"hd","lower","analysis","w","w","g","g",1,0.66982565599028,NA,NA,NA
"experimental",21,1,"hd","lower","managed","w","w","g","g",1,0.601831335923634,NA,NA,NA
"experimental",21,2,"hd","lower","balign","nw","nw","h","h",1,0.712916623684578,NA,NA,NA
"experimental",21,3,"hd","lower","record","w","w","g","g",1,0.627020070096478,NA,NA,NA
"experimental",21,4,"hd","lower","boulder","w","w","g","g",1,0.848320927005261,NA,NA,NA
"experimental",21,5,"hd","lower","prame","nw","nw","h","h",1,0.740171891520731,NA,NA,NA
"experimental",21,6,"hd","lower","amaze","w","w","g","g",1,1.14894628350157,NA,NA,NA
"experimental",21,7,"hd","lower","egpended","nw","nw","h","h",1,0.701677156961523,NA,NA,NA
"experimental",21,8,"hd","lower","doxing","nw","nw","h","g",0,0.85573488951195,NA,NA,NA
"experimental",21,9,"hd","lower","baseline","w","w","g","g",1,0.699841378605925,NA,NA,NA
"experimental",21,10,"hd","lower","chemical","w","w","g","g",1,0.574504888150841,NA,NA,NA
"experimental",21,11,"hd","lower","aicline","nw","nw","h","h",1,0.814006271422841,NA,NA,NA
"experimental",21,12,"hd","lower","vintnel","nw","nw","h","h",1,0.716070719412528,NA,NA,NA
"experimental",21,13,"hd","lower","dialect","w","w","g","g",1,0.877245776588097,NA,NA,NA
"experimental",21,14,"hd","lower","wienegs","nw","nw","h","h",1,0.616642045555636,NA,NA,NA
"experimental",21,15,"hd","lower","mantos","nw","nw","h","h",1,0.68658470758237,NA,NA,NA
"experimental",21,16,"hd","lower","fallint","nw","nw","h","h",1,1.06533807993401,NA,NA,NA
"experimental",21,17,"hd","lower","unstatle","nw","nw","h","h",1,0.965426707174629,NA,NA,NA
"experimental",21,18,"hd","lower","lancos","nw","nw","h","h",1,0.725534000084735,NA,NA,NA
"experimental",21,19,"hd","lower","elpousal","nw","nw","h","h",1,0.783006280427799,NA,NA,NA
"experimental",21,20,"hd","lower","bellicove","nw","nw","h","h",1,0.878401539055631,NA,NA,NA
"experimental",21,21,"hd","lower","giraffe","target","target","q","q",1,0.888911329209805,1,NA,NA
"experimental",21,22,"hd","lower","stretches","aftertar1","w","g","g",1,0.819504999089986,NA,NA,NA
"experimental",21,23,"hd","lower","uncounted","aftertar2","w","g","g",1,0.744917436735705,NA,NA,NA
"experimental",21,24,"hd","lower","latter","aftertar3","w","g","h",0,1.31369092816021,NA,NA,NA
"experimental",21,25,"hd","lower","bropic","w","nw","h","h",1,0.667640268686228,NA,NA,NA
"experimental",21,26,"hd","lower","parody","nw","w","g","g",1,0.591147072263993,NA,NA,NA
"experimental",21,27,"hd","lower","heaviest","w","w","g","g",1,0.788876467617229,NA,NA,NA
"experimental",21,28,"hd","lower","infusion","w","w","g","g",1,1.16344214614946,NA,NA,NA
"experimental",21,29,"hd","lower","houted","w","nw","h","h",1,1.25174987630453,NA,NA,NA
"experimental",21,30,"hd","lower","hatred","nw","w","g","g",1,0.663842574344017,NA,NA,NA
"experimental",22,1,"hd","lower","topefuls","nw","nw","h","h",1,1.29287694161758,NA,NA,NA
"experimental",22,2,"hd","lower","brighten","w","w","g","h",0,0.519601042149588,NA,NA,NA
"experimental",22,3,"hd","lower","rillains","nw","nw","h","h",1,0.481001358828507,NA,NA,NA
"experimental",22,4,"hd","lower","clume","nw","nw","h","h",1,0.611504845437594,NA,NA,NA
"experimental",22,5,"hd","lower","graciap","nw","nw","h","h",1,0.657529085641727,NA,NA,NA
"experimental",22,6,"hd","lower","innocent","w","w","g","g",1,0.629558377317153,NA,NA,NA
"experimental",22,7,"hd","lower","outflow","w","w","g","g",1,0.914997922838666,NA,NA,NA
"experimental",22,8,"hd","lower","except","w","w","g","g",1,0.63701107504312,NA,NA,NA
"experimental",22,9,"hd","lower","turntable","w","w","g","g",1,0.857728919014335,NA,NA,NA
"experimental",22,10,"hd","lower","aefated","nw","nw","h","h",1,0.685870922519825,NA,NA,NA
"experimental",22,11,"hd","lower","snife","nw","nw","h","h",1,0.800542682409286,NA,NA,NA
"experimental",22,12,"hd","lower","triplet","w","w","g","g",1,0.742702584131621,NA,NA,NA
"experimental",22,13,"hd","lower","yash","nw","nw","h","h",1,1.0065276180394,NA,NA,NA
"experimental",22,14,"hd","lower","robbery","w","w","g","g",1,0.596447158255614,NA,NA,NA
"experimental",22,15,"hd","lower","lenie","nw","nw","h","h",1,0.723197976127267,NA,NA,NA
"experimental",22,16,"hd","lower","glattery","nw","nw","h","h",1,0.836623922688887,NA,NA,NA
"experimental",22,17,"hd","lower","footstep","w","w","g","g",1,0.6573542811675,NA,NA,NA
"experimental",22,18,"hd","lower","digested","w","w","g","g",1,0.725384356803261,NA,NA,NA
"experimental",22,19,"hd","lower","scatter","w","w","g","g",1,1.0705868502846,NA,NA,NA
"experimental",22,20,"hd","lower","ipiocy","nw","nw","h","h",1,0.698208545451052,NA,NA,NA
"experimental",22,21,"hd","lower","jiggling","w","w","g","g",1,1.09217355225701,NA,NA,NA
"experimental",22,22,"hd","lower","glating","nw","nw","h","h",1,0.854846962029114,NA,NA,NA
"experimental",22,23,"hd","lower","nature","w","w","g","g",1,0.602842421154492,NA,NA,NA
"experimental",22,24,"hd","lower","acidic","w","w","g","g",1,0.648972272407264,NA,NA,NA
"experimental",22,25,"hd","lower","result","w","w","g","g",1,0.589713873923756,NA,NA,NA
"experimental",22,26,"hd","lower","nimp","nw","nw","h","h",1,0.860472158063203,NA,NA,NA
"experimental",22,27,"hd","lower","thorifies","nw","nw","h","h",1,1.10449991887435,NA,NA,NA
"experimental",22,28,"hd","lower","abstain","w","w","g","g",1,1.06666765362024,NA,NA,NA
"experimental",22,29,"hd","lower","sefraud","nw","nw","h","h",1,0.63870681123808,NA,NA,NA
"experimental",22,30,"hd","lower","fuintets","nw","nw","h","h",1,0.746600923361257,NA,NA,NA
"experimental",23,1,"ld","upper","walnut","w","w","g","g",1,2.95636666868813,NA,NA,NA
"experimental",23,2,"ld","upper","achieve","w","w","g","g",1,0.748338705394417,NA,NA,NA
"experimental",23,3,"ld","upper","cassette","w","w","g","g",1,0.844205406261608,NA,NA,NA
"experimental",23,4,"ld","upper","hubris","w","w","g","h",0,0.62492738198489,NA,NA,NA
"experimental",23,5,"ld","upper","fassed","nw","nw","h","h",1,0.750227785902098,NA,NA,NA
"experimental",23,6,"ld","upper","mennel","nw","nw","h","h",1,0.726953624631278,NA,NA,NA
"experimental",23,7,"ld","upper","vinegar","w","w","g","g",1,0.704383978387341,NA,NA,NA
"experimental",23,8,"ld","upper","cooray","nw","nw","h","h",1,0.706456802319735,NA,NA,NA
"experimental",23,9,"ld","upper","superstar","w","w","g","g",1,0.636514140176587,NA,NA,NA
"experimental",23,10,"ld","upper","treenery","nw","nw","h","h",1,0.705426184111275,NA,NA,NA
"experimental",23,11,"ld","upper","flamingo","target","target","q","g",0,0.699366625398397,NA,NA,NA
"experimental",23,12,"ld","upper","draze","aftertar1","nw","h","h",1,0.637823849800043,NA,NA,NA
"experimental",23,13,"ld","upper","godomy","aftertar2","nw","h","h",1,0.634471774566919,NA,NA,NA
"experimental",23,14,"ld","upper","sefine","aftertar3","nw","h","h",1,0.79114528442733,NA,NA,NA
"experimental",23,15,"ld","upper","cutout","nw","w","g","g",1,1.79004514170811,NA,NA,NA
"experimental",23,16,"ld","upper","igiom","w","nw","h","h",1,0.54071133560501,NA,NA,NA
"experimental",23,17,"ld","upper","frowsed","nw","nw","h","h",1,0.757433505961671,NA,NA,NA
"experimental",23,18,"ld","upper","rumblos","nw","nw","h","h",1,0.565492854802869,NA,NA,NA
"experimental",23,19,"ld","upper","abhorrent","nw","w","g","h",0,0.589760554605164,NA,NA,NA
"experimental",23,20,"ld","upper","amplifier","w","w","g","g",1,0.748346320004202,NA,NA,NA
"experimental",23,21,"ld","upper","newstrint","w","nw","h","h",1,1.86015830445103,NA,NA,NA
"experimental",23,22,"ld","upper","buttress","nw","w","g","g",1,1.51223673997447,NA,NA,NA
"experimental",23,23,"ld","upper","audience","w","w","g","g",1,1.35433562577236,NA,NA,NA
"experimental",23,24,"ld","upper","dorth","w","nw","h","h",1,0.962423578836024,NA,NA,NA
"experimental",23,25,"ld","upper","punctual","nw","w","g","g",1,0.778557042125612,NA,NA,NA
"experimental",23,26,"ld","upper","gradielts","w","nw","h","h",1,0.777920396183617,NA,NA,NA
"experimental",23,27,"ld","upper","alomalous","nw","nw","h","h",1,0.569315048051067,NA,NA,NA
"experimental",23,28,"ld","upper","mitten","nw","w","g","g",1,0.60878213273827,NA,NA,NA
"experimental",23,29,"ld","upper","figure","w","w","g","g",1,0.469872469315305,NA,NA,NA
"experimental",23,30,"ld","upper","fuestion","w","nw","h","h",1,0.697158725233749,NA,NA,NA
"experimental",24,1,"hd","lower","suddenly","w","w","g","g",1,0.580356535385363,NA,NA,NA
"experimental",24,2,"hd","lower","machinery","w","w","g","g",1,0.491599544533528,NA,NA,NA
"experimental",24,3,"hd","lower","bamps","nw","nw","h","g",0,0.478090267744847,NA,NA,NA
"experimental",24,4,"hd","lower","tharcely","nw","nw","h","h",1,0.577438822947443,NA,NA,NA
"experimental",24,5,"hd","lower","showdown","w","w","g","g",1,1.02480627689511,NA,NA,NA
"experimental",24,6,"hd","lower","fivalve","nw","nw","h","h",1,0.590170749346726,NA,NA,NA
"experimental",24,7,"hd","lower","trises","nw","nw","h","h",1,0.549018191755749,NA,NA,NA
"experimental",24,8,"hd","lower","planofoad","nw","nw","h","h",1,0.645304357283749,NA,NA,NA
"experimental",24,9,"hd","lower","fisco","nw","nw","h","h",1,0.70650646276772,NA,NA,NA
"experimental",24,10,"hd","lower","eaglot","nw","nw","h","h",1,0.596553762559779,NA,NA,NA
"experimental",24,11,"hd","lower","reloant","nw","nw","h","h",1,0.650551472208463,NA,NA,NA
"experimental",24,12,"hd","lower","gigglod","nw","nw","h","g",0,0.815309028606862,NA,NA,NA
"experimental",24,13,"hd","lower","rarely","w","w","g","h",0,0.516656513093039,NA,NA,NA
"experimental",24,14,"hd","lower","tining","nw","nw","h","h",1,0.758482002071105,NA,NA,NA
"experimental",24,15,"hd","lower","eyesight","w","w","g","g",1,0.550553690409288,NA,NA,NA
"experimental",24,16,"hd","lower","bloves","nw","nw","h","h",1,0.654665668494999,NA,NA,NA
"experimental",24,17,"hd","lower","ifling","nw","nw","h","h",1,0.56272610987071,NA,NA,NA
"experimental",24,18,"hd","lower","maiden","w","w","g","g",1,0.762820001109503,NA,NA,NA
"experimental",24,19,"hd","lower","sputter","w","w","g","g",1,0.77087358920835,NA,NA,NA
"experimental",24,20,"hd","lower","surfaced","w","w","g","g",1,0.626292049069889,NA,NA,NA
"experimental",24,21,"hd","lower","prohibit","w","w","g","g",1,0.670854619005695,NA,NA,NA
"experimental",24,22,"hd","lower","deserve","w","w","g","g",1,0.714255467290059,NA,NA,NA
"experimental",24,23,"hd","lower","submit","w","w","g","g",1,0.516352922772057,NA,NA,NA
"experimental",24,24,"hd","lower","moyeur","nw","nw","h","h",1,0.64621479739435,NA,NA,NA
"experimental",24,25,"hd","lower","defensa","nw","nw","h","h",1,0.779044707072899,NA,NA,NA
"experimental",24,26,"hd","lower","harder","w","w","g","g",1,1.37041068833787,NA,NA,NA
"experimental",24,27,"hd","lower","provide","w","w","g","g",1,2.2259625691222,NA,NA,NA
"experimental",24,28,"hd","lower","nores","nw","nw","h","h",1,0.655998221831396,NA,NA,NA
"experimental",24,29,"hd","lower","decency","w","w","g","g",1,0.650989807792939,NA,NA,NA
"experimental",24,30,"hd","lower","coyote","target","target","q","g",0,0.591828743577935,NA,NA,NA
"experimental",25,1,"ld","upper","checkout","w","w","g","g",1,0.686877372674644,NA,NA,NA
"experimental",25,2,"ld","upper","inverted","w","w","g","g",1,0.745635525789112,NA,NA,NA
"experimental",25,3,"ld","upper","spiud","nw","nw","h","h",1,0.666470932425,NA,NA,NA
"experimental",25,4,"ld","upper","louches","nw","nw","h","h",1,0.54973429418169,NA,NA,NA
"experimental",25,5,"ld","upper","cobalt","w","w","g","g",1,0.758276408072561,NA,NA,NA
"experimental",25,6,"ld","upper","brouhuha","nw","nw","h","h",1,0.734273232403211,NA,NA,NA
"experimental",25,7,"ld","upper","ringlat","nw","nw","h","h",1,0.64700174878817,NA,NA,NA
"experimental",25,8,"ld","upper","puggers","nw","nw","h","h",1,0.563717993092723,NA,NA,NA
"experimental",25,9,"ld","upper","tritical","nw","nw","h","h",1,0.603799210861325,NA,NA,NA
"experimental",25,10,"ld","upper","postal","w","w","g","g",1,0.697911245399155,NA,NA,NA
"experimental",25,11,"ld","upper","probable","w","w","g","g",1,0.86862705333624,NA,NA,NA
"experimental",25,12,"ld","upper","violate","w","w","g","g",1,0.480045231175609,NA,NA,NA
"experimental",25,13,"ld","upper","facienda","nw","nw","h","h",1,0.643449707888067,NA,NA,NA
"experimental",25,14,"ld","upper","serfume","nw","nw","h","h",1,0.639286844292656,NA,NA,NA
"experimental",25,15,"ld","upper","pimorous","nw","nw","h","h",1,0.684089770540595,NA,NA,NA
"experimental",25,16,"ld","upper","dehydrate","w","w","g","g",1,0.822645190055482,NA,NA,NA
"experimental",25,17,"ld","upper","assent","w","w","g","h",0,1.24412535387091,NA,NA,NA
"experimental",25,18,"ld","upper","recipus","nw","nw","h","h",1,0.728882433497347,NA,NA,NA
"experimental",25,19,"ld","upper","farochial","nw","nw","h","h",1,0.602207761607133,NA,NA,NA
"experimental",25,20,"ld","upper","emission","w","w","g","g",1,1.07222464936785,NA,NA,NA
"experimental",25,21,"ld","upper","digar","nw","nw","h","h",1,0.70536261878442,NA,NA,NA
"experimental",25,22,"ld","upper","previous","w","w","g","g",1,0.708750449470244,NA,NA,NA
"experimental",25,23,"ld","upper","gallon","w","w","g","g",1,1.34289950411767,NA,NA,NA
"experimental",25,24,"ld","upper","dreaded","w","w","g","g",1,0.959627368836664,NA,NA,NA
"experimental",25,25,"ld","upper","argue","w","w","g","g",1,0.511762317852117,NA,NA,NA
"experimental",25,26,"ld","upper","attract","w","w","g","g",1,0.609829966677353,NA,NA,NA
"experimental",25,27,"ld","upper","lutton","nw","nw","h","h",1,1.40797015256248,NA,NA,NA
"experimental",25,28,"ld","upper","grested","nw","nw","h","h",1,0.701996307703666,NA,NA,NA
"experimental",25,29,"ld","upper","cherry","w","w","g","g",1,0.848091496038251,NA,NA,NA
"experimental",25,30,"ld","upper","lasprey","nw","nw","h","h",1,0.563858697540127,NA,NA,NA
"experimental",26,1,"ld","upper","fuack","nw","nw","h","h",1,0.65289345534984,NA,NA,NA
"experimental",26,2,"ld","upper","prama","nw","nw","h","h",1,0.544954980025068,NA,NA,NA
"experimental",26,3,"ld","upper","favoting","nw","nw","h","h",1,0.793696834472939,NA,NA,NA
"experimental",26,4,"ld","upper","fracture","w","w","g","g",1,0.560458948253654,NA,NA,NA
"experimental",26,5,"ld","upper","expired","w","w","g","g",1,0.527602983638644,NA,NA,NA
"experimental",26,6,"ld","upper","dialogues","w","w","g","g",1,0.64904643187765,NA,NA,NA
"experimental",26,7,"ld","upper","brudent","nw","nw","h","h",1,0.693709977902472,NA,NA,NA
"experimental",26,8,"ld","upper","susher","nw","nw","h","h",1,0.744379118201323,NA,NA,NA
"experimental",26,9,"ld","upper","atble","nw","nw","h","h",1,0.61725617875345,NA,NA,NA
"experimental",26,10,"ld","upper","porghum","nw","nw","h","h",1,0.510130809154361,NA,NA,NA
"experimental",26,11,"ld","upper","elpired","nw","nw","h","h",1,0.584495561895892,NA,NA,NA
"experimental",26,12,"ld","upper","stooping","w","w","g","h",0,0.81523520022165,NA,NA,NA
"experimental",26,13,"ld","upper","profats","nw","nw","h","h",1,0.557236652239226,NA,NA,NA
"experimental",26,14,"ld","upper","imprives","nw","nw","h","h",1,0.805279950844124,NA,NA,NA
"experimental",26,15,"ld","upper","dishwater","w","w","g","g",1,0.673934886348434,NA,NA,NA
"experimental",26,16,"ld","upper","deficit","w","w","g","g",1,0.813865567091852,NA,NA,NA
"experimental",26,17,"ld","upper","entropy","w","w","g","h",0,0.81216718244832,NA,NA,NA
"experimental",26,18,"ld","upper","tinion","nw","nw","h","h",1,0.826007528230548,NA,NA,NA
"experimental",26,19,"ld","upper","urgent","w","w","g","g",1,0.75146002531983,NA,NA,NA
"experimental",26,20,"ld","upper","stifle","w","w","g","g",1,1.33566100813914,NA,NA,NA
"experimental",26,21,"ld","upper","typical","w","w","g","g",1,0.536332283867523,NA,NA,NA
"experimental",26,22,"ld","upper","bother","w","w","g","g",1,0.609131079632789,NA,NA,NA
"experimental",26,23,"ld","upper","exclusion","w","w","g","g",1,0.710234301397577,NA,NA,NA
"experimental",26,24,"ld","upper","allained","nw","nw","h","h",1,0.792265622410923,NA,NA,NA
"experimental",26,25,"ld","upper","sunshine","w","w","g","g",1,0.638846522429958,NA,NA,NA
"experimental",26,26,"ld","upper","earnest","w","w","g","g",1,0.875747026409954,NA,NA,NA
"experimental",26,27,"ld","upper","iolize","nw","nw","h","h",1,0.703173920628615,NA,NA,NA
"experimental",26,28,"ld","upper","landing","w","w","g","h",0,0.529182845610194,NA,NA,NA
"experimental",26,29,"ld","upper","twarfs","nw","nw","h","h",1,0.754598891828209,NA,NA,NA
"experimental",26,30,"ld","upper","stuggard","nw","nw","h","h",1,0.81066578370519,NA,NA,NA
"experimental",27,1,"hd","lower","misest","nw","nw","h","h",1,0.744801562512293,NA,NA,NA
"experimental",27,2,"hd","lower","intended","w","w","g","g",1,0.657274162513204,NA,NA,NA
"experimental",27,3,"hd","lower","anonymous","w","w","g","g",1,0.901124139083549,NA,NA,NA
"experimental",27,4,"hd","lower","ethical","w","w","g","g",1,0.831800245214254,NA,NA,NA
"experimental",27,5,"hd","lower","afternoon","w","w","g","g",1,0.770642834133469,NA,NA,NA
"experimental",27,6,"hd","lower","blanned","nw","nw","h","g",0,0.618297391221859,NA,NA,NA
"experimental",27,7,"hd","lower","tapling","nw","nw","h","h",1,0.719503906555474,NA,NA,NA
"experimental",27,8,"hd","lower","expounded","w","w","g","h",0,1.79343893157784,NA,NA,NA
"experimental",27,9,"hd","lower","sonnet","w","w","g","h",0,0.792995298863389,NA,NA,NA
"experimental",27,10,"hd","lower","migmarole","nw","nw","h","h",1,0.807642460335046,NA,NA,NA
"experimental",27,11,"hd","lower","fravity","nw","nw","h","h",1,0.733863699832,NA,NA,NA
"experimental",27,12,"hd","lower","restock","w","w","g","g",1,0.679048911551945,NA,NA,NA
"experimental",27,13,"hd","lower","racile","nw","nw","h","h",1,0.930327086825855,NA,NA,NA
"experimental",27,14,"hd","lower","prominent","w","w","g","h",0,0.90814744005911,NA,NA,NA
"experimental",27,15,"hd","lower","trembles","w","w","g","g",1,1.14940282783937,NA,NA,NA
"experimental",27,16,"hd","lower","forfeit","w","w","g","g",1,0.661889597424306,NA,NA,NA
"experimental",27,17,"hd","lower","lindo","nw","nw","h","h",1,0.777952178847045,NA,NA,NA
"experimental",27,18,"hd","lower","lovud","nw","nw","h","h",1,1.11336197785567,NA,NA,NA
"experimental",27,19,"hd","lower","retain","w","w","g","g",1,0.915160146774724,NA,NA,NA
"experimental",27,20,"hd","lower","remade","w","w","g","g",1,0.997167631052434,NA,NA,NA
"experimental",27,21,"hd","lower","ebciting","nw","nw","h","h",1,0.683593166759238,NA,NA,NA
"experimental",27,22,"hd","lower","purport","w","w","g","h",0,0.951413543196395,NA,NA,NA
"experimental",27,23,"hd","lower","chraps","nw","nw","h","h",1,0.615226393798366,NA,NA,NA
"experimental",27,24,"hd","lower","plapping","nw","nw","h","h",1,0.773122210986912,NA,NA,NA
"experimental",27,25,"hd","lower","dazid","nw","nw","h","h",1,0.924357247888111,NA,NA,NA
"experimental",27,26,"hd","lower","tycoon","w","w","g","g",1,0.989905298105441,NA,NA,NA
"experimental",27,27,"hd","lower","monkey","target","target","q","g",0,0.508723434177227,NA,NA,NA
"experimental",27,28,"hd","lower","pripend","aftertar1","nw","h","h",1,1.09465127368458,NA,NA,NA
"experimental",27,29,"hd","lower","entertain","aftertar2","w","g","g",1,1.03346605272964,NA,NA,NA
"experimental",27,30,"hd","lower","arcients","aftertar3","nw","h","h",1,1.90920024004299,NA,NA,NA
"experimental",28,1,"ld","upper","miteous","nw","nw","h","h",1,1.21647313400172,NA,NA,NA
"experimental",28,2,"ld","upper","butcher","w","w","g","g",1,0.742548636859283,NA,NA,NA
"experimental",28,3,"ld","upper","implode","w","w","g","g",1,1.04723488760646,NA,NA,NA
"experimental",28,4,"ld","upper","regiment","w","w","g","g",1,0.987803008989431,NA,NA,NA
"experimental",28,5,"ld","upper","misobeyed","nw","nw","h","h",1,0.97721144463867,NA,NA,NA
"experimental",28,6,"ld","upper","rarren","nw","nw","h","h",1,0.600439190166071,NA,NA,NA
"experimental",28,7,"ld","upper","rudder","w","w","g","h",0,0.591047089314088,NA,NA,NA
"experimental",28,8,"ld","upper","poyride","nw","nw","h","h",1,0.541879347525537,NA,NA,NA
"experimental",28,9,"ld","upper","alticles","nw","nw","h","h",1,0.614677481120452,NA,NA,NA
"experimental",28,10,"ld","upper","sengry","nw","nw","h","h",1,0.548787436448038,NA,NA,NA
"experimental",28,11,"ld","upper","satisfies","w","w","g","g",1,0.645268270745873,NA,NA,NA
"experimental",28,12,"ld","upper","carnival","w","w","g","g",1,0.546228271909058,NA,NA,NA
"experimental",28,13,"ld","upper","earterner","nw","nw","h","g",0,0.770939472015016,NA,NA,NA
"experimental",28,14,"ld","upper","become","w","w","g","h",0,0.425415841513313,NA,NA,NA
"experimental",28,15,"ld","upper","rawhide","w","w","g","h",0,0.750755510176532,NA,NA,NA
"experimental",28,16,"ld","upper","parlayid","nw","nw","h","h",1,0.742690665647388,NA,NA,NA
"experimental",28,17,"ld","upper","sampling","w","w","g","g",1,0.583571216906421,NA,NA,NA
"experimental",28,18,"ld","upper","irregular","w","w","g","g",1,0.582793535431847,NA,NA,NA
"experimental",28,19,"ld","upper","metrol","nw","nw","h","h",1,0.862257613916881,NA,NA,NA
"experimental",28,20,"ld","upper","recollect","w","w","g","g",1,0.647996942629106,NA,NA,NA
"experimental",28,21,"ld","upper","grolific","nw","nw","h","h",1,0.564980028662831,NA,NA,NA
"experimental",28,22,"ld","upper","caution","w","w","g","g",1,0.653622138663195,NA,NA,NA
"experimental",28,23,"ld","upper","nostril","w","w","g","g",1,0.617222409695387,NA,NA,NA
"experimental",28,24,"ld","upper","poughest","nw","nw","h","h",1,0.847303551388904,NA,NA,NA
"experimental",28,25,"ld","upper","overwork","w","w","g","g",1,0.604371960507706,NA,NA,NA
"experimental",28,26,"ld","upper","tibs","nw","nw","h","h",1,0.698442611377686,NA,NA,NA
"experimental",28,27,"ld","upper","airbis","nw","nw","h","h",1,0.67716777662281,NA,NA,NA
"experimental",28,28,"ld","upper","splum","nw","nw","h","h",1,0.616609269636683,NA,NA,NA
"experimental",28,29,"ld","upper","thaken","nw","nw","h","h",1,0.726502377307042,NA,NA,NA
"experimental",28,30,"ld","upper","companion","w","w","g","g",1,0.792034205165692,NA,NA,NA
"experimental",29,1,"ld","upper","loneliest","w","w","g","g",1,0.750713464454748,NA,NA,NA
"experimental",29,2,"ld","upper","command","w","w","g","g",1,0.62356933648698,NA,NA,NA
"experimental",29,3,"ld","upper","suburb","w","w","g","g",1,0.64467797440011,NA,NA,NA
"experimental",29,4,"ld","upper","contund","nw","nw","h","h",1,0.617520040948875,NA,NA,NA
"experimental",29,5,"ld","upper","vivid","w","w","g","g",1,0.710792814963497,NA,NA,NA
"experimental",29,6,"ld","upper","computer","w","w","g","g",1,0.568965439219028,NA,NA,NA
"experimental",29,7,"ld","upper","blipover","nw","nw","h","h",1,0.664341495605186,NA,NA,NA
"experimental",29,8,"ld","upper","arrow","w","w","g","g",1,0.731345256906934,NA,NA,NA
"experimental",29,9,"ld","upper","phambled","nw","nw","h","h",1,0.72474009625148,NA,NA,NA
"experimental",29,10,"ld","upper","minister","w","w","g","g",1,0.750243677175604,NA,NA,NA
"experimental",29,11,"ld","upper","portify","nw","nw","h","h",1,0.870944537338801,NA,NA,NA
"experimental",29,12,"ld","upper","lavilion","nw","nw","h","h",1,0.618410285795107,NA,NA,NA
"experimental",29,13,"ld","upper","incorrect","w","w","g","g",1,0.751749710761942,NA,NA,NA
"experimental",29,14,"ld","upper","partner","w","w","g","g",1,0.590221733902581,NA,NA,NA
"experimental",29,15,"ld","upper","classify","w","w","g","g",1,0.486703031696379,NA,NA,NA
"experimental",29,16,"ld","upper","glocked","nw","nw","h","h",1,1.0558489758987,NA,NA,NA
"experimental",29,17,"ld","upper","overcoat","w","w","g","g",1,0.69267737318296,NA,NA,NA
"experimental",29,18,"ld","upper","podes","nw","nw","h","h",1,0.695627199253067,NA,NA,NA
"experimental",29,19,"ld","upper","expected","w","w","g","g",1,0.71439252991695,NA,NA,NA
"experimental",29,20,"ld","upper","fards","nw","nw","h","h",1,0.684470831067301,NA,NA,NA
"experimental",29,21,"ld","upper","fomes","nw","nw","h","h",1,0.743676589569077,NA,NA,NA
"experimental",29,22,"ld","upper","marvel","w","w","g","g",1,0.792321904213168,NA,NA,NA
"experimental",29,23,"ld","upper","culer","nw","nw","h","h",1,0.799372352892533,NA,NA,NA
"experimental",29,24,"ld","upper","preight","nw","nw","h","h",1,0.789975286112167,NA,NA,NA
"experimental",29,25,"ld","upper","shimble","nw","nw","h","h",1,0.707801936310716,NA,NA,NA
"experimental",29,26,"ld","upper","browting","nw","nw","h","h",1,0.605828333762474,NA,NA,NA
"experimental",29,27,"ld","upper","nauling","nw","nw","h","h",1,0.603807156556286,NA,NA,NA
"experimental",29,28,"ld","upper","image","w","w","g","g",1,0.689829185372218,NA,NA,NA
"experimental",29,29,"ld","upper","fullity","nw","nw","h","h",1,1.01261697290465,NA,NA,NA
"experimental",29,30,"ld","upper","awful","w","w","g","g",1,0.578523074509576,NA,NA,NA
"experimental",30,1,"hd","lower","fission","w","w","g","g",1,0.881956890574656,NA,NA,NA
"experimental",30,2,"hd","lower","nopping","nw","nw","h","h",1,0.645181199535728,NA,NA,NA
"experimental",30,3,"hd","lower","gymnasium","w","w","g","g",1,0.635175296571106,NA,NA,NA
"experimental",30,4,"hd","lower","function","w","w","g","g",1,1.85447285394184,NA,NA,NA
"experimental",30,5,"hd","lower","etber","nw","nw","h","h",1,0.680627449299209,NA,NA,NA
"experimental",30,6,"hd","lower","remover","w","w","g","g",1,0.572384390165098,NA,NA,NA
"experimental",30,7,"hd","lower","acting","w","w","g","g",1,0.556289463420399,NA,NA,NA
"experimental",30,8,"hd","lower","slooping","nw","nw","h","h",1,0.717036779271439,NA,NA,NA
"experimental",30,9,"hd","lower","disperse","w","w","g","g",1,0.845687271794304,NA,NA,NA
"experimental",30,10,"hd","lower","alber","nw","nw","h","h",1,0.594915963476524,NA,NA,NA
"experimental",30,11,"hd","lower","nameplate","w","w","g","g",1,0.897532038739882,NA,NA,NA
"experimental",30,12,"hd","lower","plymie","nw","nw","h","h",1,0.612409657449462,NA,NA,NA
"experimental",30,13,"hd","lower","razelle","nw","nw","h","h",1,0.666532180155627,NA,NA,NA
"experimental",30,14,"hd","lower","located","w","w","g","g",1,0.742256633937359,NA,NA,NA
"experimental",30,15,"hd","lower","usage","w","w","g","g",1,0.759288486442529,NA,NA,NA
"experimental",30,16,"hd","lower","pived","nw","nw","h","h",1,0.79943989100866,NA,NA,NA
"experimental",30,17,"hd","lower","sodent","nw","nw","h","h",1,0.909049934591167,NA,NA,NA
"experimental",30,18,"hd","lower","caterpillar","target","target","q","q",1,0.863131305435672,1,NA,NA
"experimental",30,19,"hd","lower","senior","aftertar1","w","g","g",1,0.73903367575258,NA,NA,NA
"experimental",30,20,"hd","lower","aviation","aftertar2","w","g","g",1,0.883802601019852,NA,NA,NA
"experimental",30,21,"hd","lower","moozy","aftertar3","nw","h","h",1,0.870534011628479,NA,NA,NA
"experimental",30,22,"hd","lower","huntry","nw","nw","h","h",1,0.81793076521717,NA,NA,NA
"experimental",30,23,"hd","lower","airline","nw","w","g","g",1,0.694655180326663,NA,NA,NA
"experimental",30,24,"hd","lower","potatoes","w","w","g","h",0,1.18560292199254,NA,NA,NA
"experimental",30,25,"hd","lower","gelented","w","nw","h","h",1,0.655330124311149,NA,NA,NA
"experimental",30,26,"hd","lower","contain","nw","w","g","g",1,0.675235657021403,NA,NA,NA
"experimental",30,27,"hd","lower","legalosm","w","nw","h","h",1,0.726608981611207,NA,NA,NA
"experimental",30,28,"hd","lower","presence","nw","w","g","g",1,0.744025867432356,NA,NA,NA
"experimental",30,29,"hd","lower","trembla","w","nw","h","h",1,0.728813902125694,NA,NA,NA
"experimental",30,30,"hd","lower","atch","nw","nw","h","h",1,0.938104894361459,NA,NA,NA
"experimental",31,1,"hd","lower","geadpan","nw","nw","h","h",1,0.794843657989986,NA,NA,NA
"experimental",31,2,"hd","lower","dredigest","nw","nw","h","h",1,0.833766795927659,NA,NA,NA
"experimental",31,3,"hd","lower","catacomb","w","w","g","g",1,1.30245477228891,NA,NA,NA
"experimental",31,4,"hd","lower","goltish","nw","nw","h","h",1,0.592438573017716,NA,NA,NA
"experimental",31,5,"hd","lower","dorte","nw","nw","h","h",1,0.775305943097919,NA,NA,NA
"experimental",31,6,"hd","lower","sprea","nw","nw","h","h",1,1.38275327743031,NA,NA,NA
"experimental",31,7,"hd","lower","kilotin","nw","nw","h","h",1,0.693285547196865,NA,NA,NA
"experimental",31,8,"hd","lower","vented","w","w","g","g",1,1.29589000204578,NA,NA,NA
"experimental",31,9,"hd","lower","warden","w","w","g","g",1,0.946669322205707,NA,NA,NA
"experimental",31,10,"hd","lower","elalt","nw","nw","h","h",1,1.09130449558143,NA,NA,NA
"experimental",31,11,"hd","lower","strenuous","w","w","g","g",1,1.27815860044211,NA,NA,NA
"experimental",31,12,"hd","lower","drobate","nw","nw","h","h",1,0.713617828092538,NA,NA,NA
"experimental",31,13,"hd","lower","pester","w","w","g","g",1,1.0437096634414,NA,NA,NA
"experimental",31,14,"hd","lower","octopus","target","target","q","g",0,0.552414630074054,NA,NA,NA
"experimental",31,15,"hd","lower","hostade","aftertar1","nw","h","h",1,1.78359028638806,NA,NA,NA
"experimental",31,16,"hd","lower","apticle","aftertar2","nw","h","h",1,0.726987724774517,NA,NA,NA
"experimental",31,17,"hd","lower","owner","aftertar3","w","g","g",1,0.800552945584059,NA,NA,NA
"experimental",31,18,"hd","lower","embrace","w","w","g","g",1,0.614460630808026,NA,NA,NA
"experimental",31,19,"hd","lower","monopoly","w","w","g","g",1,0.636443622526713,NA,NA,NA
"experimental",31,20,"hd","lower","ezulated","w","nw","h","h",1,0.521159384748898,NA,NA,NA
"experimental",31,21,"hd","lower","prawls","nw","nw","h","h",1,1.15461518045049,NA,NA,NA
"experimental",31,22,"hd","lower","efficient","nw","w","g","g",1,0.609448906034231,NA,NA,NA
"experimental",31,23,"hd","lower","legalize","w","w","g","g",1,0.872764093335718,NA,NA,NA
"experimental",31,24,"hd","lower","cessation","w","w","g","h",0,0.851166466251016,NA,NA,NA
"experimental",31,25,"hd","lower","micron","w","w","g","h",0,0.687957320245914,NA,NA,NA
"experimental",31,26,"hd","lower","virulent","w","w","g","h",0,0.538663341780193,NA,NA,NA
"experimental",31,27,"hd","lower","egect","w","nw","h","h",1,0.915498168440536,NA,NA,NA
"experimental",31,28,"hd","lower","graveyard","nw","w","g","g",1,0.845563120907173,NA,NA,NA
"experimental",31,29,"hd","lower","birn","w","nw","h","h",1,0.690397961996496,NA,NA,NA
"experimental",31,30,"hd","lower","ensues","nw","w","g","g",1,0.901120166294277,NA,NA,NA
"experimental",32,1,"hd","lower","brimitive","nw","nw","h","h",1,0.702489931834862,NA,NA,NA
"experimental",32,2,"hd","lower","distrust","w","w","g","g",1,0.752530702971853,NA,NA,NA
"experimental",32,3,"hd","lower","fidelity","w","w","g","g",1,0.912618197849952,NA,NA,NA
"experimental",32,4,"hd","lower","static","w","w","g","g",1,0.714690161170438,NA,NA,NA
"experimental",32,5,"hd","lower","relaying","w","w","g","g",1,1.44482642575167,NA,NA,NA
"experimental",32,6,"hd","lower","renown","w","w","g","g",1,0.616795330424793,NA,NA,NA
"experimental",32,7,"hd","lower","mogus","nw","nw","h","h",1,0.766581608797424,NA,NA,NA
"experimental",32,8,"hd","lower","thacked","nw","nw","h","h",1,0.638639935175888,NA,NA,NA
"experimental",32,9,"hd","lower","theery","nw","nw","h","g",0,0.803349155583419,NA,NA,NA
"experimental",32,10,"hd","lower","euphoric","w","w","g","g",1,1.28145969088655,NA,NA,NA
"experimental",32,11,"hd","lower","pleamed","nw","nw","h","h",1,0.996925950516015,NA,NA,NA
"experimental",32,12,"hd","lower","exploit","w","w","g","g",1,0.939603313454427,NA,NA,NA
"experimental",32,13,"hd","lower","seldom","w","w","g","g",1,0.812306231469847,NA,NA,NA
"experimental",32,14,"hd","lower","pollute","w","w","g","g",1,0.993337823078036,NA,NA,NA
"experimental",32,15,"hd","lower","pender","nw","nw","h","h",1,0.880377359688282,NA,NA,NA
"experimental",32,16,"hd","lower","ignore","w","w","g","g",1,0.659690636093728,NA,NA,NA
"experimental",32,17,"hd","lower","category","w","w","g","h",0,1.06374331982806,NA,NA,NA
"experimental",32,18,"hd","lower","tyena","nw","nw","h","h",1,0.755908601451665,NA,NA,NA
"experimental",32,19,"hd","lower","entitle","w","w","g","g",1,0.755965214339085,NA,NA,NA
"experimental",32,20,"hd","lower","chone","nw","nw","h","h",1,1.35582742339466,NA,NA,NA
"experimental",32,21,"hd","lower","handle","w","w","g","g",1,0.860166912199929,NA,NA,NA
"experimental",32,22,"hd","lower","mullet","w","w","g","g",1,1.27929814043455,NA,NA,NA
"experimental",32,23,"hd","lower","brials","nw","nw","h","h",1,1.19469110132195,NA,NA,NA
"experimental",32,24,"hd","lower","corg","nw","nw","h","h",1,1.08151213219389,NA,NA,NA
"experimental",32,25,"hd","lower","ounwit","nw","nw","h","h",1,0.812875339295715,NA,NA,NA
"experimental",32,26,"hd","lower","pranny","nw","nw","h","h",1,1.01093944557942,NA,NA,NA
"experimental",32,27,"hd","lower","olerates","nw","nw","h","h",1,0.848989355494268,NA,NA,NA
"experimental",32,28,"hd","lower","setwixt","nw","nw","h","h",1,1.22175103833433,NA,NA,NA
"experimental",32,29,"hd","lower","hangar","w","w","g","g",1,1.33118859492242,NA,NA,NA
"experimental",32,30,"hd","lower","dontrite","nw","nw","h","h",1,0.915806724922732,NA,NA,NA
"experimental",33,1,"ld","upper","valif","nw","nw","h","h",1,0.702711085905321,NA,NA,NA
"experimental",33,2,"ld","upper","filter","w","w","g","g",1,0.864658858510666,NA,NA,NA
"experimental",33,3,"ld","upper","forecast","w","w","g","g",1,0.683926222263835,NA,NA,NA
"experimental",33,4,"ld","upper","gremieres","nw","nw","h","h",1,5.33357593463734,NA,NA,NA
"experimental",33,5,"ld","upper","geborn","nw","nw","h","h",1,0.638804807676934,NA,NA,NA
"experimental",33,6,"ld","upper","mixture","w","w","g","g",1,0.715562528348528,NA,NA,NA
"experimental",33,7,"ld","upper","endgume","nw","nw","h","h",1,0.813644412904978,NA,NA,NA
"experimental",33,8,"ld","upper","humanize","w","w","g","h",0,0.667724691214971,NA,NA,NA
"experimental",33,9,"ld","upper","inversion","w","w","g","g",1,0.782692426932044,NA,NA,NA
"experimental",33,10,"ld","upper","vorm","nw","nw","h","h",1,0.637862915871665,NA,NA,NA
"experimental",33,11,"ld","upper","exemplify","w","w","g","g",1,1.28174739005044,NA,NA,NA
"experimental",33,12,"ld","upper","gablus","nw","nw","h","h",1,0.741095574339852,NA,NA,NA
"experimental",33,13,"ld","upper","duries","nw","nw","h","h",1,0.797851421171799,NA,NA,NA
"experimental",33,14,"ld","upper","paying","w","w","g","g",1,0.884573992225341,NA,NA,NA
"experimental",33,15,"ld","upper","maunches","nw","nw","h","h",1,1.99162818200421,NA,NA,NA
"experimental",33,16,"ld","upper","reprint","w","w","g","g",1,0.72632724174764,NA,NA,NA
"experimental",33,17,"ld","upper","affluent","w","w","g","g",1,0.895522117963992,NA,NA,NA
"experimental",33,18,"ld","upper","design","w","w","g","g",1,0.649643349461257,NA,NA,NA
"experimental",33,19,"ld","upper","unamufed","nw","nw","h","h",1,1.9501266774023,NA,NA,NA
"experimental",33,20,"ld","upper","spider","target","target","q","g",0,0.710765336174518,NA,NA,NA
"experimental",33,21,"ld","upper","mustled","aftertar1","nw","h","h",1,1.33671976730693,NA,NA,NA
"experimental",33,22,"ld","upper","poars","aftertar2","nw","h","h",1,0.985600074869581,NA,NA,NA
"experimental",33,23,"ld","upper","buzzer","aftertar3","w","g","g",1,1.17668093950488,NA,NA,NA
"experimental",33,24,"ld","upper","temelity","w","nw","h","h",1,0.871725860517472,NA,NA,NA
"experimental",33,25,"ld","upper","unrealon","nw","nw","h","h",1,1.30630345107056,NA,NA,NA
"experimental",33,26,"ld","upper","flieves","nw","nw","h","h",1,1.13222199422307,NA,NA,NA
"experimental",33,27,"ld","upper","actively","nw","w","g","g",1,2.08570412977133,NA,NA,NA
"experimental",33,28,"ld","upper","upstairs","w","w","g","g",1,0.560387106263079,NA,NA,NA
"experimental",33,29,"ld","upper","afford","w","w","g","h",0,0.680596328806132,NA,NA,NA
"experimental",33,30,"ld","upper","ordinary","w","w","g","g",1,0.668019011733122,NA,NA,NA
"experimental",34,1,"hd","lower","schinter","nw","nw","h","h",1,0.830682886764407,NA,NA,NA
"experimental",34,2,"hd","lower","criminal","w","w","g","g",1,0.676030554110184,NA,NA,NA
"experimental",34,3,"hd","lower","infested","w","w","g","g",1,0.791744850692339,NA,NA,NA
"experimental",34,4,"hd","lower","boutique","w","w","g","g",1,0.670339144417085,NA,NA,NA
"experimental",34,5,"hd","lower","peadgear","nw","nw","h","h",1,1.13766245357692,NA,NA,NA
"experimental",34,6,"hd","lower","gelfry","nw","nw","h","h",1,4.22576525178738,NA,NA,NA
"experimental",34,7,"hd","lower","cripet","nw","nw","h","h",1,0.567155815195292,NA,NA,NA
"experimental",34,8,"hd","lower","maintain","w","w","g","g",1,1.02974880824331,NA,NA,NA
"experimental",34,9,"hd","lower","dricked","nw","nw","h","h",1,0.811164042912424,NA,NA,NA
"experimental",34,10,"hd","lower","equitable","w","w","g","g",1,1.22522329166532,NA,NA,NA
"experimental",34,11,"hd","lower","professor","w","w","g","g",1,0.894578570849262,NA,NA,NA
"experimental",34,12,"hd","lower","insole","w","w","g","h",0,4.82466404954903,NA,NA,NA
"experimental",34,13,"hd","lower","attended","w","w","g","g",1,0.853977243299596,NA,NA,NA
"experimental",34,14,"hd","lower","erlighten","nw","nw","h","h",1,0.665984260733239,NA,NA,NA
"experimental",34,15,"hd","lower","rivet","w","w","g","g",1,0.901716752909124,NA,NA,NA
"experimental",34,16,"hd","lower","hodels","nw","nw","h","g",0,0.888153842883185,NA,NA,NA
"experimental",34,17,"hd","lower","foster","w","w","g","g",1,0.890990774496458,NA,NA,NA
"experimental",34,18,"hd","lower","century","w","w","g","g",1,0.621711707324721,NA,NA,NA
"experimental",34,19,"hd","lower","repayment","w","w","g","g",1,1.61030339542776,NA,NA,NA
"experimental",34,20,"hd","lower","clattest","nw","nw","h","h",1,0.864366855472326,NA,NA,NA
"experimental",34,21,"hd","lower","ottans","nw","nw","h","h",1,0.892341867671348,NA,NA,NA
"experimental",34,22,"hd","lower","halter","w","w","g","h",0,4.87926529836841,NA,NA,NA
"experimental",34,23,"hd","lower","sheerio","nw","nw","h","h",1,0.938691217801534,NA,NA,NA
"experimental",34,24,"hd","lower","pressures","w","w","g","g",1,1.27547065005638,NA,NA,NA
"experimental",34,25,"hd","lower","exit","w","w","g","g",1,0.702877613832243,NA,NA,NA
"experimental",34,26,"hd","lower","talate","nw","nw","h","g",0,0.816223441623151,NA,NA,NA
"experimental",34,27,"hd","lower","pigned","nw","nw","h","h",1,6.87836942530703,NA,NA,NA
"experimental",34,28,"hd","lower","kangaroo","target","target","q","q",1,0.937635438283905,1,NA,NA
"experimental",34,29,"hd","lower","nogwhell","aftertar1","nw","h","h",1,0.626453610835597,NA,NA,NA
"experimental",34,30,"hd","lower","veranpah","aftertar2","nw","h","h",1,0.77615083148703,NA,NA,NA
"experimental",35,1,"ld","upper","phonology","w","w","g","h",0,0.679275693953969,NA,NA,NA
"experimental",35,2,"ld","upper","unwose","nw","nw","h","h",1,0.786662608152255,NA,NA,NA
"experimental",35,3,"ld","upper","otiates","nw","nw","h","h",1,0.961465133703314,NA,NA,NA
"experimental",35,4,"ld","upper","trocess","nw","nw","h","h",1,1.20151675399393,NA,NA,NA
"experimental",35,5,"ld","upper","inducing","w","w","g","g",1,1.59809323411901,NA,NA,NA
"experimental",35,6,"ld","upper","sorping","nw","nw","h","h",1,1.35677461209707,NA,NA,NA
"experimental",35,7,"ld","upper","slutches","nw","nw","h","h",1,2.34093692607712,NA,NA,NA
"experimental",35,8,"ld","upper","engineer","w","w","g","g",1,0.637641099630855,NA,NA,NA
"experimental",35,9,"ld","upper","rocket","w","w","g","g",1,0.522443601978011,NA,NA,NA
"experimental",35,10,"ld","upper","minimum","w","w","g","g",1,0.739802749478258,NA,NA,NA
"experimental",35,11,"ld","upper","itfidels","nw","nw","h","h",1,0.772577602299862,NA,NA,NA
"experimental",35,12,"ld","upper","remain","w","w","g","g",1,0.843057258520275,NA,NA,NA
"experimental",35,13,"ld","upper","obviously","w","w","g","h",0,0.55173660046421,NA,NA,NA
"experimental",35,14,"ld","upper","charcoal","w","w","g","g",1,0.807131289504468,NA,NA,NA
"experimental",35,15,"ld","upper","guivers","nw","nw","h","h",1,0.885060663917102,NA,NA,NA
"experimental",35,16,"ld","upper","bulmed","nw","nw","h","h",1,1.29526527458802,NA,NA,NA
"experimental",35,17,"ld","upper","brank","nw","nw","h","h",1,1.21800465986598,NA,NA,NA
"experimental",35,18,"ld","upper","widely","w","w","g","g",1,0.846763246576302,NA,NA,NA
"experimental",35,19,"ld","upper","resume","w","w","g","g",1,1.01156119338702,NA,NA,NA
"experimental",35,20,"ld","upper","egcused","nw","nw","h","h",1,0.744656885275617,NA,NA,NA
"experimental",35,21,"ld","upper","glamorous","w","w","g","g",1,1.00929237646051,NA,NA,NA
"experimental",35,22,"ld","upper","fragment","w","w","g","g",1,0.702687911107205,NA,NA,NA
"experimental",35,23,"ld","upper","markot","nw","nw","h","g",0,0.537446331582032,NA,NA,NA
"experimental",35,24,"ld","upper","deakers","nw","nw","h","h",1,1.14621463185176,NA,NA,NA
"experimental",35,25,"ld","upper","olgies","nw","nw","h","h",1,0.642994156689383,NA,NA,NA
"experimental",35,26,"ld","upper","staircase","w","w","g","g",1,1.35177281941287,NA,NA,NA
"experimental",35,27,"ld","upper","undue","w","w","g","h",0,0.951196030713618,NA,NA,NA
"experimental",35,28,"ld","upper","bureaug","nw","nw","h","h",1,1.29439721128438,NA,NA,NA
"experimental",35,29,"ld","upper","tipoff","w","w","g","h",0,0.8332112620119,NA,NA,NA
"experimental",35,30,"ld","upper","tunneg","nw","nw","h","h",1,0.934463133686222,NA,NA,NA
"experimental",36,1,"ld","upper","mestowal","nw","nw","h","h",1,0.719517480465584,NA,NA,NA
"experimental",36,2,"ld","upper","uncarled","nw","nw","h","h",1,0.824963667313568,NA,NA,NA
"experimental",36,3,"ld","upper","contact","w","w","g","g",1,1.2614170955494,NA,NA,NA
"experimental",36,4,"ld","upper","jungle","w","w","g","g",1,0.66549262299668,NA,NA,NA
"experimental",36,5,"ld","upper","erony","nw","nw","h","h",1,1.60558036295697,NA,NA,NA
"experimental",36,6,"ld","upper","zears","nw","nw","h","h",1,0.851615064893849,NA,NA,NA
"experimental",36,7,"ld","upper","integral","w","w","g","h",0,0.494981415919028,NA,NA,NA
"experimental",36,8,"ld","upper","teamwork","w","w","g","h",0,1.40970528603066,NA,NA,NA
"experimental",36,9,"ld","upper","flougy","nw","nw","h","h",1,0.719809152302332,NA,NA,NA
"experimental",36,10,"ld","upper","slending","nw","nw","h","h",1,1.68034306087065,NA,NA,NA
"experimental",36,11,"ld","upper","bluads","nw","nw","h","h",1,0.659632368013263,NA,NA,NA
"experimental",36,12,"ld","upper","serving","w","w","g","h",0,0.671506825252436,NA,NA,NA
"experimental",36,13,"ld","upper","practice","w","w","g","h",0,0.162887274404056,NA,NA,NA
"experimental",36,14,"ld","upper","peems","nw","nw","h","h",1,1.53116197697818,NA,NA,NA
"experimental",36,15,"ld","upper","reason","w","w","g","g",1,0.812636307440698,NA,NA,NA
"experimental",36,16,"ld","upper","committed","w","w","g","g",1,0.594730564742349,NA,NA,NA
"experimental",36,17,"ld","upper","hustle","w","w","g","g",1,0.721475754398853,NA,NA,NA
"experimental",36,18,"ld","upper","huests","nw","nw","h","h",1,3.55409977200907,NA,NA,NA
"experimental",36,19,"ld","upper","season","w","w","g","g",1,0.66619912465103,NA,NA,NA
"experimental",36,20,"ld","upper","vergas","nw","nw","h","h",1,1.0142166990554,NA,NA,NA
"experimental",36,21,"ld","upper","unmarked","w","w","g","g",1,1.43630371266045,NA,NA,NA
"experimental",36,22,"ld","upper","corduroy","w","w","g","h",0,0.833051024470478,NA,NA,NA
"experimental",36,23,"ld","upper","sooled","nw","nw","h","h",1,0.806408234406263,NA,NA,NA
"experimental",36,24,"ld","upper","ulcer","w","w","g","h",0,0.948486229754053,NA,NA,NA
"experimental",36,25,"ld","upper","troven","nw","nw","h","h",1,0.660298810107633,NA,NA,NA
"experimental",36,26,"ld","upper","arranged","w","w","g","g",1,1.46434593200684,NA,NA,NA
"experimental",36,27,"ld","upper","refebs","nw","nw","h","h",1,0.772398493718356,NA,NA,NA
"experimental",36,28,"ld","upper","bettled","nw","nw","h","h",1,3.89199225872289,NA,NA,NA
"experimental",36,29,"ld","upper","parent","w","w","g","h",0,0.80666878586635,NA,NA,NA
"experimental",36,30,"ld","upper","undimmec","nw","nw","h","h",1,1.27665554650594,NA,NA,NA
"experimental",37,1,"hd","lower","infancy","w","w","g","g",1,1.00802603701595,NA,NA,NA
"experimental",37,2,"hd","lower","worps","nw","nw","h","h",1,0.614189154119231,NA,NA,NA
"experimental",37,3,"hd","lower","resonant","w","w","g","h",0,0.668189181364141,NA,NA,NA
"experimental",37,4,"hd","lower","spigat","nw","nw","h","h",1,0.639598049339838,NA,NA,NA
"experimental",37,5,"hd","lower","treason","w","w","g","g",1,0.636457196320407,NA,NA,NA
"experimental",37,6,"hd","lower","jinds","nw","nw","h","h",1,1.26426462130621,NA,NA,NA
"experimental",37,7,"hd","lower","picnic","w","w","g","g",1,0.772299504023977,NA,NA,NA
