"procedure","block","trial","PMdemand","context","stim","role","word_type","correct_key","response","correct","reaction_time","pressedQ","pressedQ_blank","pressedQ_fix"
"LDTpractice",1,1,NA,"lower","lumbigo","","nw","h","h",1,1.39444910560269,NA,NA,NA
"LDTpractice",2,1,NA,"lower","latador","","nw","h","h",1,0.663960619596764,NA,NA,NA
"LDTpractice",3,1,NA,"lower","turative","","nw","h","g",0,0.380048989667557,NA,NA,NA
"LDTpractice",4,1,NA,"lower","summary","","w","g","g",1,0.476129450951703,NA,NA,NA
"LDTpractice",5,1,NA,"lower","busted","","w","g","g",1,0.616003096220084,NA,NA,NA
"LDTpractice",6,1,NA,"lower","alolition","","nw","h","h",1,0.501262492034584,NA,NA,NA
"LDTpractice",7,1,NA,"lower","umpire","","w","g","g",1,0.407306459615938,NA,NA,NA
"LDTpractice",8,1,NA,"lower","trotch","","nw","h","g",0,0.580708232708275,NA,NA,NA
"LDTpractice",9,1,NA,"lower","overshoot","","w","g","g",1,0.484638034133241,NA,NA,NA
"LDTpractice",10,1,NA,"lower","curlecs","","nw","h","h",1,0.639344046125188,NA,NA,NA
"LDTpractice",11,1,NA,"lower","grimace","","w","g","g",1,0.618945844005793,NA,NA,NA
"LDTpractice",12,1,NA,"lower","lurshing","","nw","h","h",1,0.76808239845559,NA,NA,NA
"LDTpractice",13,1,NA,"lower","hiring","","w","g","g",1,0.455818483838812,NA,NA,NA
"LDTpractice",14,1,NA,"lower","slumber","","w","g","g",1,0.395891350810416,NA,NA,NA
"LDTpractice",1,2,NA,"upper","julled","","nw","h","h",1,0.593762695789337,NA,NA,NA
"LDTpractice",2,2,NA,"upper","treeps","","nw","h","g",0,0.456753015401773,NA,NA,NA
"LDTpractice",3,2,NA,"upper","crinklo","","nw","h","h",1,0.628877353970893,NA,NA,NA
"LDTpractice",4,2,NA,"upper","infinity","","w","g","g",1,0.418068060535006,NA,NA,NA
"LDTpractice",5,2,NA,"upper","tricycle","","w","g","g",1,0.439565906766802,NA,NA,NA
"LDTpractice",6,2,NA,"upper","hasking","","nw","h","h",1,0.516324567724951,NA,NA,NA
"LDTpractice",7,2,NA,"upper","sponsor","","w","g","g",1,0.429438797291368,NA,NA,NA
"LDTpractice",8,2,NA,"upper","grocus","","nw","h","h",1,0.48271192132961,NA,NA,NA
"LDTpractice",9,2,NA,"upper","unscrew","","w","g","h",0,0.469806271023117,NA,NA,NA
"LDTpractice",10,2,NA,"upper","raestro","","nw","h","h",1,0.585433412343264,NA,NA,NA
"LDTpractice",11,2,NA,"upper","picture","","w","g","g",1,0.399008568609133,NA,NA,NA
"LDTpractice",12,2,NA,"upper","grutch","","nw","h","h",1,0.389976877369918,NA,NA,NA
"LDTpractice",13,2,NA,"upper","revival","","w","g","g",1,0.389674724196084,NA,NA,NA
"LDTpractice",14,2,NA,"upper","reputable","","w","g","g",1,0.339410151587799,NA,NA,NA
"experimental",1,1,"ld","upper","located","w","w","g","g",1,0.788131660665385,NA,NA,NA
"experimental",1,2,"ld","upper","encrusted","w","w","g","g",1,0.691429385566153,NA,NA,NA
"experimental",1,3,"ld","upper","trooper","w","w","g","g",1,0.551036556251347,NA,NA,NA
"experimental",1,4,"ld","upper","doxing","nw","nw","h","h",1,0.575667015044019,NA,NA,NA
"experimental",1,5,"ld","upper","unbridled","w","w","g","g",1,0.487541843322106,NA,NA,NA
"experimental",1,6,"ld","upper","amaze","w","w","g","g",1,1.08764266164508,NA,NA,NA
"experimental",1,7,"ld","upper","ausht","nw","nw","h","h",1,0.598259675665759,NA,NA,NA
"experimental",1,8,"ld","upper","fivalve","nw","nw","h","h",1,0.94053334009368,NA,NA,NA
"experimental",1,9,"ld","upper","brimitive","nw","nw","h","h",1,0.829948020284064,NA,NA,NA
"experimental",1,10,"ld","upper","surround","w","w","g","g",1,0.540003591217101,NA,NA,NA
"experimental",1,11,"ld","upper","frigs","nw","nw","h","g",0,0.613330505089834,NA,NA,NA
"experimental",1,12,"ld","upper","ilcurring","nw","nw","h","h",1,0.684057876002043,NA,NA,NA
"experimental",1,13,"ld","upper","relaying","w","w","g","g",1,0.543464013957419,NA,NA,NA
"experimental",1,14,"ld","upper","gelented","nw","nw","h","h",1,0.664813651237637,NA,NA,NA
"experimental",1,15,"ld","upper","emergence","w","w","g","g",1,0.581563075422309,NA,NA,NA
"experimental",1,16,"ld","upper","gonesty","nw","nw","h","h",1,0.66159259644337,NA,NA,NA
"experimental",1,17,"ld","upper","hivinity","nw","nw","h","h",1,0.66406355088111,NA,NA,NA
"experimental",1,18,"ld","upper","inducing","w","w","g","g",1,0.668669800972566,NA,NA,NA
"experimental",1,19,"ld","upper","shockwave","w","w","g","g",1,0.785510082379915,NA,NA,NA
"experimental",1,20,"ld","upper","fonducts","nw","nw","h","h",1,0.529378728941083,NA,NA,NA
"experimental",1,21,"ld","upper","asclibed","nw","nw","h","h",1,0.611181022366509,NA,NA,NA
"experimental",1,22,"ld","upper","telecast","w","w","g","g",1,0.706089999061078,NA,NA,NA
"experimental",1,23,"ld","upper","surfaced","w","w","g","h",0,0.628738502389751,NA,NA,NA
"experimental",1,24,"ld","upper","lifetime","w","w","g","g",1,0.47480221115984,NA,NA,NA
"experimental",1,25,"ld","upper","gettle","nw","nw","h","h",1,0.629829392768443,NA,NA,NA
"experimental",1,26,"ld","upper","ludictous","nw","nw","h","h",1,0.62795157614164,NA,NA,NA
"experimental",1,27,"ld","upper","elvisages","nw","nw","h","h",1,0.625837409985252,NA,NA,NA
"experimental",1,28,"ld","upper","deakers","nw","nw","h","g",0,0.59996181493625,NA,NA,NA
"experimental",1,29,"ld","upper","rationale","w","w","g","g",1,0.911336475750431,NA,NA,NA
"experimental",1,30,"ld","upper","preclude","w","w","g","g",1,0.569971081800759,NA,NA,NA
"experimental",2,1,"ld","upper","gymnasium","w","w","g","g",1,0.825147679890506,NA,NA,NA
"experimental",2,2,"ld","upper","uncorked","w","w","g","g",1,0.73511722299736,NA,NA,NA
"experimental",2,3,"ld","upper","graciap","nw","nw","h","h",1,0.568454580963589,NA,NA,NA
"experimental",2,4,"ld","upper","fraft","nw","nw","h","h",1,0.552418129518628,NA,NA,NA
"experimental",2,5,"ld","upper","inside","w","w","g","g",1,0.609135074540973,NA,NA,NA
"experimental",2,6,"ld","upper","poyride","nw","nw","h","h",1,0.543938222224824,NA,NA,NA
"experimental",2,7,"ld","upper","nostril","w","w","g","g",1,0.577272561728023,NA,NA,NA
"experimental",2,8,"ld","upper","preight","nw","nw","h","h",1,0.521263457951136,NA,NA,NA
"experimental",2,9,"ld","upper","robbery","w","w","g","g",1,0.58608601463493,NA,NA,NA
"experimental",2,10,"ld","upper","record","w","w","g","g",1,0.489444411708973,NA,NA,NA
"experimental",2,11,"ld","upper","trallion","nw","nw","h","h",1,0.604238443542272,NA,NA,NA
"experimental",2,12,"ld","upper","rander","nw","nw","h","g",0,0.539407736854628,NA,NA,NA
"experimental",2,13,"ld","upper","hackal","nw","nw","h","h",1,0.741129496367648,NA,NA,NA
"experimental",2,14,"ld","upper","alber","nw","nw","h","h",1,0.510395001620054,NA,NA,NA
"experimental",2,15,"ld","upper","moisture","w","w","g","g",1,0.609149865340441,NA,NA,NA
"experimental",2,16,"ld","upper","micron","w","w","g","h",0,0.67975468467921,NA,NA,NA
"experimental",2,17,"ld","upper","drobate","nw","nw","h","h",1,0.651883550919592,NA,NA,NA
"experimental",2,18,"ld","upper","prillway","nw","nw","h","h",1,0.5855275898939,NA,NA,NA
"experimental",2,19,"ld","upper","party","w","w","g","g",1,0.559032596065663,NA,NA,NA
"experimental",2,20,"ld","upper","eaglot","nw","nw","h","h",1,0.73560018511489,NA,NA,NA
"experimental",2,21,"ld","upper","airline","w","w","g","g",1,0.537067182245664,NA,NA,NA
"experimental",2,22,"ld","upper","pepperoni","w","w","g","g",1,0.602394736022688,NA,NA,NA
"experimental",2,23,"ld","upper","prohibit","w","w","g","h",0,0.59300142689608,NA,NA,NA
"experimental",2,24,"ld","upper","educate","w","w","g","h",0,0.56049748021178,NA,NA,NA
"experimental",2,25,"ld","upper","amms","nw","nw","h","h",1,0.697167276055552,NA,NA,NA
"experimental",2,26,"ld","upper","emotion","w","w","g","g",1,0.476488955901004,NA,NA,NA
"experimental",2,27,"ld","upper","fallint","nw","nw","h","h",1,0.784489825251512,NA,NA,NA
"experimental",2,28,"ld","upper","awful","w","w","g","g",1,0.49587625823915,NA,NA,NA
"experimental",2,29,"ld","upper","pived","nw","nw","h","h",1,0.627378662466072,NA,NA,NA
"experimental",2,30,"ld","upper","hemoter","nw","nw","h","h",1,0.776386628276668,NA,NA,NA
"experimental",3,1,"hd","lower","pretzel","w","w","g","g",1,0.688701253966428,NA,NA,NA
"experimental",3,2,"hd","lower","arrow","w","w","g","g",1,0.466609062510543,NA,NA,NA
"experimental",3,3,"hd","lower","seasoning","w","w","g","g",1,0.495335038867779,NA,NA,NA
"experimental",3,4,"hd","lower","harmful","w","w","g","g",1,0.619024023530073,NA,NA,NA
"experimental",3,5,"hd","lower","gigglod","nw","nw","h","h",1,0.56157750391867,NA,NA,NA
"experimental",3,6,"hd","lower","turntable","w","w","g","g",1,0.577579242642969,NA,NA,NA
"experimental",3,7,"hd","lower","scabry","nw","nw","h","h",1,0.601529932231642,NA,NA,NA
"experimental",3,8,"hd","lower","abstain","w","w","g","g",1,0.656311708851717,NA,NA,NA
"experimental",3,9,"hd","lower","tenpince","nw","nw","h","h",1,0.58898650330957,NA,NA,NA
"experimental",3,10,"hd","lower","sampling","w","w","g","g",1,0.580229798448272,NA,NA,NA
"experimental",3,11,"hd","lower","tasher","nw","nw","h","h",1,0.492372067063116,NA,NA,NA
"experimental",3,12,"hd","lower","glapula","nw","nw","h","h",1,0.55180295673199,NA,NA,NA
"experimental",3,13,"hd","lower","giraffe","target","target","q","g",0,0.5203814485576,NA,NA,NA
"experimental",3,14,"hd","lower","prame","aftertar1","nw","h","h",1,1.33753414603416,NA,NA,NA
"experimental",3,15,"hd","lower","suddenly","aftertar2","w","g","g",1,0.722770299413241,NA,NA,NA
"experimental",3,16,"hd","lower","potatoes","aftertar3","w","g","g",1,0.708792775170878,NA,NA,NA
"experimental",3,17,"hd","lower","mining","w","w","g","g",1,0.847500067087822,NA,NA,NA
"experimental",3,18,"hd","lower","cooray","w","nw","h","g",0,0.460875397897326,NA,NA,NA
"experimental",3,19,"hd","lower","metrol","nw","nw","h","h",1,0.681555529125035,NA,NA,NA
"experimental",3,20,"hd","lower","collute","nw","nw","h","h",1,0.525647545582615,NA,NA,NA
"experimental",3,21,"hd","lower","patio","nw","w","g","g",1,0.799628873006441,NA,NA,NA
"experimental",3,22,"hd","lower","oldest","w","w","g","g",1,0.470980472397059,NA,NA,NA
"experimental",3,23,"hd","lower","sodent","w","nw","h","g",0,0.482204811298288,NA,NA,NA
"experimental",3,24,"hd","lower","snife","nw","nw","h","h",1,0.742211331264116,NA,NA,NA
"experimental",3,25,"hd","lower","phambled","nw","nw","h","h",1,0.671492110239342,NA,NA,NA
"experimental",3,26,"hd","lower","hatred","nw","w","g","g",1,0.595590103184804,NA,NA,NA
"experimental",3,27,"hd","lower","glating","w","nw","h","h",1,0.594901580479927,NA,NA,NA
"experimental",3,28,"hd","lower","guitar","nw","w","g","g",1,0.674297213903628,NA,NA,NA
"experimental",3,29,"hd","lower","hegacy","w","nw","h","h",1,0.565085921087302,NA,NA,NA
"experimental",3,30,"hd","lower","achieve","nw","w","g","g",1,0.509842915693298,NA,NA,NA
"experimental",4,1,"ld","upper","rarren","nw","nw","h","h",1,0.56074831855949,NA,NA,NA
"experimental",4,2,"ld","upper","regiment","w","w","g","h",0,0.79354807944037,NA,NA,NA
"experimental",4,3,"ld","upper","clume","nw","nw","h","h",1,0.552885093376972,NA,NA,NA
"experimental",4,4,"ld","upper","poughest","nw","nw","h","h",1,0.601574002532288,NA,NA,NA
"experimental",4,5,"ld","upper","etuip","nw","nw","h","h",1,0.528314703144133,NA,NA,NA
"experimental",4,6,"ld","upper","pamine","nw","nw","h","h",1,0.594360662973486,NA,NA,NA
"experimental",4,7,"ld","upper","ulcer","w","w","g","g",1,0.689664461184293,NA,NA,NA
"experimental",4,8,"ld","upper","embrace","w","w","g","g",1,0.541088444530033,NA,NA,NA
"experimental",4,9,"ld","upper","flieves","nw","nw","h","h",1,0.637414613040164,NA,NA,NA
"experimental",4,10,"ld","upper","otoist","nw","nw","h","h",1,0.634810240357183,NA,NA,NA
"experimental",4,11,"ld","upper","lofty","w","w","g","g",1,0.632106256787665,NA,NA,NA
"experimental",4,12,"ld","upper","antonym","w","w","g","g",1,0.678078504628502,NA,NA,NA
"experimental",4,13,"ld","upper","giving","w","w","g","g",1,0.55416192417033,NA,NA,NA
"experimental",4,14,"ld","upper","ordinary","w","w","g","g",1,0.45879292616155,NA,NA,NA
"experimental",4,15,"ld","upper","senalize","nw","nw","h","h",1,0.735485783428885,NA,NA,NA
"experimental",4,16,"ld","upper","epthuse","nw","nw","h","g",0,0.584929018747061,NA,NA,NA
"experimental",4,17,"ld","upper","ronvince","nw","nw","h","h",1,0.671527124941349,NA,NA,NA
"experimental",4,18,"ld","upper","curtail","w","w","g","g",1,0.67542130802758,NA,NA,NA
"experimental",4,19,"ld","upper","regional","w","w","g","g",1,0.551374327857047,NA,NA,NA
"experimental",4,20,"ld","upper","arranged","w","w","g","g",1,0.720083823194727,NA,NA,NA
"experimental",4,21,"ld","upper","brighten","w","w","g","g",1,0.498139237053692,NA,NA,NA
"experimental",4,22,"ld","upper","soluced","nw","nw","h","h",1,0.532407202525064,NA,NA,NA
"experimental",4,23,"ld","upper","supplier","w","w","g","g",1,0.654307416407391,NA,NA,NA
"experimental",4,24,"ld","upper","standard","w","w","g","g",1,0.619458387373015,NA,NA,NA
"experimental",4,25,"ld","upper","cogantly","nw","nw","h","h",1,0.666152361547574,NA,NA,NA
"experimental",4,26,"ld","upper","caution","w","w","g","g",1,0.518905094009824,NA,NA,NA
"experimental",4,27,"ld","upper","undimmec","nw","nw","h","h",1,0.624955702456646,NA,NA,NA
"experimental",4,28,"ld","upper","kilotin","nw","nw","h","h",1,0.654100346495397,NA,NA,NA
"experimental",4,29,"ld","upper","terrify","w","w","g","g",1,0.466706258594058,NA,NA,NA
"experimental",4,30,"ld","upper","vergas","nw","nw","h","h",1,0.679435929749161,NA,NA,NA
"experimental",5,1,"ld","upper","dusmy","nw","nw","h","h",1,0.53953481616918,NA,NA,NA
"experimental",5,2,"ld","upper","offonents","nw","nw","h","g",0,0.492797979153693,NA,NA,NA
"experimental",5,3,"ld","upper","miability","nw","nw","h","h",1,0.655178257380612,NA,NA,NA
"experimental",5,4,"ld","upper","podes","nw","nw","h","h",1,0.563816032954492,NA,NA,NA
"experimental",5,5,"ld","upper","stable","w","w","g","g",1,0.620567992678843,NA,NA,NA
"experimental",5,6,"ld","upper","duries","nw","nw","h","h",1,0.434592605568469,NA,NA,NA
"experimental",5,7,"ld","upper","crazy","w","w","g","g",1,0.511941989418119,NA,NA,NA
"experimental",5,8,"ld","upper","birn","nw","nw","h","h",1,0.474612346617505,NA,NA,NA
"experimental",5,9,"ld","upper","etber","nw","nw","h","h",1,0.574680866906419,NA,NA,NA
"experimental",5,10,"ld","upper","gallon","w","w","g","g",1,0.614735924522392,NA,NA,NA
"experimental",5,11,"ld","upper","rowel","nw","nw","h","h",1,0.565391998272389,NA,NA,NA
"experimental",5,12,"ld","upper","expected","w","w","g","g",1,0.486136423773132,NA,NA,NA
"experimental",5,13,"ld","upper","moral","w","w","g","g",1,0.608502696151845,NA,NA,NA
"experimental",5,14,"ld","upper","cessation","w","w","g","h",0,0.695095670875162,NA,NA,NA
"experimental",5,15,"ld","upper","massacre","w","w","g","g",1,0.54546226921957,NA,NA,NA
"experimental",5,16,"ld","upper","matter","w","w","g","g",1,0.514602204435505,NA,NA,NA
"experimental",5,17,"ld","upper","rabbit","target","target","q","g",0,0.477619690704159,NA,NA,NA
"experimental",5,18,"ld","upper","grenavier","aftertar1","nw","h","h",1,0.858370636240579,NA,NA,NA
"experimental",5,19,"ld","upper","contain","aftertar2","w","g","g",1,0.575288795283996,NA,NA,NA
"experimental",5,20,"ld","upper","buzzer","aftertar3","w","g","g",1,0.991244048811495,NA,NA,NA
"experimental",5,21,"ld","upper","gensions","w","nw","h","h",1,0.549673396046273,NA,NA,NA
"experimental",5,22,"ld","upper","mubby","nw","nw","h","h",1,0.638976089539938,NA,NA,NA
"experimental",5,23,"ld","upper","hardest","nw","w","g","g",1,0.604384237667546,NA,NA,NA
"experimental",5,24,"ld","upper","slooping","w","nw","h","h",1,0.611024059704505,NA,NA,NA
"experimental",5,25,"ld","upper","engineer","nw","w","g","h",0,0.457672152435407,NA,NA,NA
"experimental",5,26,"ld","upper","tunneg","w","nw","h","h",1,1.11838802287821,NA,NA,NA
"experimental",5,27,"ld","upper","number","nw","w","g","g",1,0.592433946556412,NA,NA,NA
"experimental",5,28,"ld","upper","senior","w","w","g","g",1,0.543715757783502,NA,NA,NA
"experimental",5,29,"ld","upper","serfume","w","nw","h","g",0,0.425125040928833,NA,NA,NA
"experimental",5,30,"ld","upper","bickering","nw","w","g","g",1,1.11023622797802,NA,NA,NA
"experimental",6,1,"hd","lower","peems","nw","nw","h","h",1,0.688882968388498,NA,NA,NA
"experimental",6,2,"hd","lower","companion","w","w","g","g",1,0.524387316545472,NA,NA,NA
"experimental",6,3,"hd","lower","stifle","w","w","g","h",0,0.470361979212612,NA,NA,NA
"experimental",6,4,"hd","lower","maunches","nw","nw","h","h",1,0.650602795998566,NA,NA,NA
"experimental",6,5,"hd","lower","pranny","nw","nw","h","h",1,0.623011176707223,NA,NA,NA
"experimental",6,6,"hd","lower","resume","w","w","g","g",1,0.469046813203022,NA,NA,NA
"experimental",6,7,"hd","lower","roodies","nw","nw","h","h",1,0.526848309789784,NA,NA,NA
"experimental",6,8,"hd","lower","atble","nw","nw","h","g",0,0.50489979959093,NA,NA,NA
"experimental",6,9,"hd","lower","consonant","w","w","g","g",1,0.747411020915024,NA,NA,NA
"experimental",6,10,"hd","lower","carony","nw","nw","h","h",1,0.509778319508769,NA,NA,NA
"experimental",6,11,"hd","lower","usually","w","w","g","g",1,0.66490118810907,NA,NA,NA
"experimental",6,12,"hd","lower","castaway","w","w","g","h",0,0.517611661460251,NA,NA,NA
"experimental",6,13,"hd","lower","egcused","nw","nw","h","h",1,0.70361270592548,NA,NA,NA
"experimental",6,14,"hd","lower","numbled","nw","nw","h","h",1,0.89035509689711,NA,NA,NA
"experimental",6,15,"hd","lower","postal","w","w","g","g",1,0.940768482279964,NA,NA,NA
"experimental",6,16,"hd","lower","ugifies","nw","nw","h","h",1,0.638003524742089,NA,NA,NA
"experimental",6,17,"hd","lower","paying","w","w","g","g",1,0.571450454765,NA,NA,NA
"experimental",6,18,"hd","lower","misobeyed","nw","nw","h","g",0,0.571486978791654,NA,NA,NA
"experimental",6,19,"hd","lower","flamingo","target","target","q","g",0,0.523445540689863,NA,NA,NA
"experimental",6,20,"hd","lower","calcify","aftertar1","w","g","g",1,1.55752062308602,NA,NA,NA
"experimental",6,21,"hd","lower","brimitar","aftertar2","nw","h","h",1,0.622122526634485,NA,NA,NA
"experimental",6,22,"hd","lower","geissue","aftertar3","nw","h","h",1,0.628155929385684,NA,NA,NA
"experimental",6,23,"hd","lower","listless","nw","w","g","h",0,0.594258335535415,NA,NA,NA
"experimental",6,24,"hd","lower","throttle","w","w","g","g",1,0.84872105543036,NA,NA,NA
"experimental",6,25,"hd","lower","committed","w","w","g","g",1,0.678028095397167,NA,NA,NA
"experimental",6,26,"hd","lower","flicking","w","w","g","g",1,0.481979328324087,NA,NA,NA
"experimental",6,27,"hd","lower","lasprey","w","nw","h","h",1,0.589992271619849,NA,NA,NA
"experimental",6,28,"hd","lower","slutches","nw","nw","h","h",1,0.789411811856553,NA,NA,NA
"experimental",6,29,"hd","lower","carbled","nw","nw","h","h",1,0.620820642099716,NA,NA,NA
"experimental",6,30,"hd","lower","minimum","nw","w","g","g",1,0.770776722813025,NA,NA,NA
"experimental",7,1,"hd","lower","mullet","w","w","g","g",1,0.713863876299001,NA,NA,NA
"experimental",7,2,"hd","lower","apology","w","w","g","g",1,0.484511256683618,NA,NA,NA
"experimental",7,3,"hd","lower","brudent","nw","nw","h","h",1,0.712053976254538,NA,NA,NA
"experimental",7,4,"hd","lower","insole","w","w","g","g",1,0.546058123582043,NA,NA,NA
"experimental",7,5,"hd","lower","rangel","nw","nw","h","h",1,0.58680351509247,NA,NA,NA
"experimental",7,6,"hd","lower","scrobby","nw","nw","h","h",1,0.689477011561394,NA,NA,NA
"experimental",7,7,"hd","lower","quickel","nw","nw","h","h",1,0.722845158539712,NA,NA,NA
"experimental",7,8,"hd","lower","warmer","w","w","g","g",1,0.596694577019662,NA,NA,NA
"experimental",7,9,"hd","lower","bother","w","w","g","g",1,0.619958252995275,NA,NA,NA
"experimental",7,10,"hd","lower","susher","nw","nw","h","h",1,0.713843048550189,NA,NA,NA
"experimental",7,11,"hd","lower","actively","w","w","g","g",1,0.588447396992706,NA,NA,NA
"experimental",7,12,"hd","lower","gerby","nw","nw","h","h",1,0.62780970602762,NA,NA,NA
"experimental",7,13,"hd","lower","planofoad","nw","nw","h","h",1,0.625829259981401,NA,NA,NA
"experimental",7,14,"hd","lower","cayward","nw","nw","h","h",1,0.503876825678162,NA,NA,NA
"experimental",7,15,"hd","lower","tritical","nw","nw","h","h",1,0.698558206553571,NA,NA,NA
"experimental",7,16,"hd","lower","sunshine","w","w","g","g",1,0.597889606142417,NA,NA,NA
"experimental",7,17,"hd","lower","levels","w","w","g","g",1,0.957334984559566,NA,NA,NA
"experimental",7,18,"hd","lower","cegalia","nw","nw","h","h",1,0.637157737510279,NA,NA,NA
"experimental",7,19,"hd","lower","urgent","w","w","g","g",1,0.57841899280902,NA,NA,NA
"experimental",7,20,"hd","lower","trocess","nw","nw","h","h",1,0.754367484943941,NA,NA,NA
"experimental",7,21,"hd","lower","tipoff","w","w","g","h",0,0.683111874270253,NA,NA,NA
"experimental",7,22,"hd","lower","butler","w","w","g","g",1,0.599193301633932,NA,NA,NA
"experimental",7,23,"hd","lower","thacked","nw","nw","h","h",1,0.67056029534433,NA,NA,NA
"experimental",7,24,"hd","lower","peadgear","nw","nw","h","h",1,0.858594308025204,NA,NA,NA
"experimental",7,25,"hd","lower","vorm","nw","nw","h","h",1,0.622072721133009,NA,NA,NA
"experimental",7,26,"hd","lower","antique","w","w","g","g",1,0.619153215782717,NA,NA,NA
"experimental",7,27,"hd","lower","argue","w","w","g","g",1,0.713034389074892,NA,NA,NA
"experimental",7,28,"hd","lower","provide","w","w","g","g",1,0.578693979303353,NA,NA,NA
"experimental",7,29,"hd","lower","imprives","nw","nw","h","h",1,0.722452148213051,NA,NA,NA
"experimental",7,30,"hd","lower","rejoiced","w","w","g","g",1,0.771758041111752,NA,NA,NA
"experimental",8,1,"ld","upper","sheerio","nw","nw","h","h",1,0.635943389846943,NA,NA,NA
"experimental",8,2,"ld","upper","atsless","nw","nw","h","h",1,0.576570757548325,NA,NA,NA
"experimental",8,3,"ld","upper","railway","w","w","g","g",1,0.502996325609274,NA,NA,NA
"experimental",8,4,"ld","upper","picnic","w","w","g","g",1,0.544959385064431,NA,NA,NA
"experimental",8,5,"ld","upper","dreaded","w","w","g","g",1,0.450434061232954,NA,NA,NA
"experimental",8,6,"ld","upper","lutton","nw","nw","h","h",1,0.791016754810698,NA,NA,NA
"experimental",8,7,"ld","upper","heaviest","w","w","g","g",1,0.590482478146441,NA,NA,NA
"experimental",8,8,"ld","upper","managed","w","w","g","g",1,0.557192208943889,NA,NA,NA
"experimental",8,9,"ld","upper","corg","nw","nw","h","h",1,0.597266585100442,NA,NA,NA
"experimental",8,10,"ld","upper","boulder","w","w","g","g",1,0.611838152515702,NA,NA,NA
"experimental",8,11,"ld","upper","lancos","nw","nw","h","h",1,0.593672744114883,NA,NA,NA
"experimental",8,12,"ld","upper","airmen","w","w","g","g",1,0.856380530982278,NA,NA,NA
"experimental",8,13,"ld","upper","condensed","w","w","g","g",1,0.796352881356142,NA,NA,NA
"experimental",8,14,"ld","upper","jinds","nw","nw","h","h",1,0.60304703656584,NA,NA,NA
"experimental",8,15,"ld","upper","mortgage","w","w","g","g",1,0.545094010652974,NA,NA,NA
"experimental",8,16,"ld","upper","gewer","nw","nw","h","h",1,0.577778464416042,NA,NA,NA
"experimental",8,17,"ld","upper","rewrite","w","w","g","g",1,0.601168616209179,NA,NA,NA
"experimental",8,18,"ld","upper","aicline","nw","nw","h","h",1,0.750649884925224,NA,NA,NA
"experimental",8,19,"ld","upper","irregular","w","w","g","g",1,0.599468589993194,NA,NA,NA
"experimental",8,20,"ld","upper","peags","nw","nw","h","h",1,0.525667467736639,NA,NA,NA
"experimental",8,21,"ld","upper","anemic","w","w","g","g",1,0.62447304232046,NA,NA,NA
"experimental",8,22,"ld","upper","century","w","w","g","g",1,0.564864362240769,NA,NA,NA
"experimental",8,23,"ld","upper","breiled","nw","nw","h","h",1,0.612890405929647,NA,NA,NA
"experimental",8,24,"ld","upper","ameld","nw","nw","h","h",1,0.610902413609438,NA,NA,NA
"experimental",8,25,"ld","upper","sludding","nw","nw","h","h",1,0.744991683051921,NA,NA,NA
"experimental",8,26,"ld","upper","tibs","nw","nw","h","h",1,0.521566214738414,NA,NA,NA
"experimental",8,27,"ld","upper","standard","w","w","g","h",0,0.506895338185132,NA,NA,NA
"experimental",8,28,"ld","upper","balign","nw","nw","h","h",1,0.741094783414155,NA,NA,NA
"experimental",8,29,"ld","upper","smolvers","nw","nw","h","h",1,0.613781470921822,NA,NA,NA
"experimental",8,30,"ld","upper","ignore","w","w","g","g",1,0.523757654824294,NA,NA,NA
"experimental",9,1,"hd","lower","trake","nw","nw","h","h",1,0.684845707844943,NA,NA,NA
"experimental",9,2,"hd","lower","miteous","nw","nw","h","h",1,0.60829381516669,NA,NA,NA
"experimental",9,3,"hd","lower","scack","nw","nw","h","h",1,0.486293386435136,NA,NA,NA
"experimental",9,4,"hd","lower","seldom","w","w","g","g",1,0.569101448287256,NA,NA,NA
"experimental",9,5,"hd","lower","chining","nw","nw","h","h",1,0.584470204892568,NA,NA,NA
"experimental",9,6,"hd","lower","publish","w","w","g","g",1,0.470911952084862,NA,NA,NA
"experimental",9,7,"hd","lower","oleandur","nw","nw","h","h",1,0.498086413135752,NA,NA,NA
"experimental",9,8,"hd","lower","ounwit","nw","nw","h","h",1,0.564768977230415,NA,NA,NA
"experimental",9,9,"hd","lower","mandate","w","w","g","g",1,0.516828055493534,NA,NA,NA
"experimental",9,10,"hd","lower","infusion","w","w","g","g",1,0.486896183341742,NA,NA,NA
"experimental",9,11,"hd","lower","hustle","w","w","g","g",1,0.416425687959418,NA,NA,NA
"experimental",9,12,"hd","lower","wienegs","nw","nw","h","h",1,0.510635275277309,NA,NA,NA
"experimental",9,13,"hd","lower","larger","w","w","g","g",1,0.504821318318136,NA,NA,NA
"experimental",9,14,"hd","lower","unsmilung","nw","nw","h","h",1,0.50753586657811,NA,NA,NA
"experimental",9,15,"hd","lower","flougy","nw","nw","h","h",1,0.564871908631176,NA,NA,NA
"experimental",9,16,"hd","lower","finstrel","nw","nw","h","h",1,0.620829697581939,NA,NA,NA
"experimental",9,17,"hd","lower","other","w","w","g","g",1,0.410033685620874,NA,NA,NA
"experimental",9,18,"hd","lower","teamwork","w","w","g","g",1,0.584146318491548,NA,NA,NA
"experimental",9,19,"hd","lower","erithets","nw","nw","h","g",0,0.5275350214215,NA,NA,NA
"experimental",9,20,"hd","lower","ubefully","nw","nw","h","h",1,0.656917222426273,NA,NA,NA
"experimental",9,21,"hd","lower","illness","w","w","g","g",1,0.612921194871888,NA,NA,NA
"experimental",9,22,"hd","lower","colicky","w","w","g","h",0,0.602898525772616,NA,NA,NA
"experimental",9,23,"hd","lower","dorth","nw","nw","h","h",1,0.720866221701726,NA,NA,NA
"experimental",9,24,"hd","lower","uncarled","nw","nw","h","h",1,0.578285574563779,NA,NA,NA
"experimental",9,25,"hd","lower","comment","w","w","g","h",0,0.569665910094045,NA,NA,NA
"experimental",9,26,"hd","lower","butcher","w","w","g","g",1,0.703980360762216,NA,NA,NA
"experimental",9,27,"hd","lower","apop","nw","nw","h","h",1,0.570025113178417,NA,NA,NA
"experimental",9,28,"hd","lower","coyote","target","target","q","g",0,0.593416170449927,1,1,NA
"experimental",9,29,"hd","lower","target","aftertar1","w","g","g",1,0.768086926196702,NA,NA,NA
"experimental",9,30,"hd","lower","buttress","aftertar2","w","g","g",1,0.680107548716478,NA,NA,NA
"experimental",10,1,"hd","lower","owner","w","w","g","g",1,0.595326587092131,NA,NA,NA
"experimental",10,2,"hd","lower","rillains","nw","nw","h","g",0,0.505904662422836,NA,NA,NA
"experimental",10,3,"hd","lower","frequency","w","w","g","g",1,0.612042204011232,NA,NA,NA
"experimental",10,4,"hd","lower","bamboo","w","w","g","g",1,0.704808036796749,NA,NA,NA
"experimental",10,5,"hd","lower","booster","w","w","g","g",1,0.706824101274833,NA,NA,NA
"experimental",10,6,"hd","lower","eggays","nw","nw","h","h",1,0.669543056632392,NA,NA,NA
"experimental",10,7,"hd","lower","outset","w","w","g","g",1,0.961433219141327,NA,NA,NA
"experimental",10,8,"hd","lower","category","w","w","g","g",1,0.465465348097496,NA,NA,NA
"experimental",10,9,"hd","lower","cripet","nw","nw","h","h",1,0.645545580075122,NA,NA,NA
"experimental",10,10,"hd","lower","frose","nw","nw","h","h",1,0.649130667559803,NA,NA,NA
"experimental",10,11,"hd","lower","elephant","target","target","q","g",0,0.709911435958929,1,1,NA
"experimental",10,12,"hd","lower","fillings","aftertar1","w","g","g",1,0.720009567798115,NA,NA,NA
"experimental",10,13,"hd","lower","pender","aftertar2","nw","h","g",0,1.00132980488706,NA,NA,NA
"experimental",10,14,"hd","lower","irfirm","aftertar3","nw","h","h",1,0.663950054789893,NA,NA,NA
"experimental",10,15,"hd","lower","rualify","nw","nw","h","h",1,0.57197477039881,NA,NA,NA
"experimental",10,16,"hd","lower","create","nw","w","g","g",1,0.683402255177498,NA,NA,NA
"experimental",10,17,"hd","lower","pressures","w","w","g","g",1,0.63868993439246,NA,NA,NA
"experimental",10,18,"hd","lower","lenie","w","nw","h","h",1,0.619416430126876,NA,NA,NA
"experimental",10,19,"hd","lower","blerapies","nw","nw","h","h",1,0.567792621208355,NA,NA,NA
"experimental",10,20,"hd","lower","yellep","nw","nw","h","h",1,0.503961645881645,NA,NA,NA
"experimental",10,21,"hd","lower","priant","nw","nw","h","h",1,0.497795730363578,NA,NA,NA
"experimental",10,22,"hd","lower","result","nw","w","g","g",1,0.564439657493494,NA,NA,NA
"experimental",10,23,"hd","lower","elalt","w","nw","h","h",1,0.724516810732894,NA,NA,NA
"experimental",10,24,"hd","lower","capobly","nw","nw","h","g",0,0.581871265661903,NA,NA,NA
"experimental",10,25,"hd","lower","rodeo","nw","w","g","g",1,0.757340719806962,NA,NA,NA
"experimental",10,26,"hd","lower","nature","w","w","g","g",1,0.653352962923236,NA,NA,NA
"experimental",10,27,"hd","lower","pregs","w","nw","h","h",1,0.64853752986528,NA,NA,NA
"experimental",10,28,"hd","lower","accessory","nw","w","g","g",1,0.542080629616976,NA,NA,NA
"experimental",10,29,"hd","lower","virulent","w","w","g","h",0,0.605735323857516,NA,NA,NA
"experimental",10,30,"hd","lower","dorte","w","nw","h","h",1,0.514541834243573,NA,NA,NA
"experimental",11,1,"ld","upper","checkout","w","w","g","g",1,0.60597348457668,NA,NA,NA
"experimental",11,2,"ld","upper","zears","nw","nw","h","g",0,0.491158624878153,NA,NA,NA
"experimental",11,3,"ld","upper","living","w","w","g","g",1,0.61473200051114,NA,NA,NA
"experimental",11,4,"ld","upper","tinker","w","w","g","g",1,0.835656631272286,NA,NA,NA
"experimental",11,5,"ld","upper","remover","w","w","g","g",1,0.537117289495654,NA,NA,NA
"experimental",11,6,"ld","upper","twarfs","nw","nw","h","h",1,0.561810834915377,NA,NA,NA
"experimental",11,7,"ld","upper","spiud","nw","nw","h","h",1,0.65779832622502,NA,NA,NA
"experimental",11,8,"ld","upper","vintnel","nw","nw","h","h",1,0.405808070092462,NA,NA,NA
"experimental",11,9,"ld","upper","vinegar","w","w","g","g",1,0.635880001122132,NA,NA,NA
"experimental",11,10,"ld","upper","ralliep","nw","nw","h","h",1,0.53661138669122,NA,NA,NA
"experimental",11,11,"ld","upper","schinter","nw","nw","h","h",1,0.497374044149183,NA,NA,NA
"experimental",11,12,"ld","upper","infested","w","w","g","g",1,0.595068504218943,NA,NA,NA
"experimental",11,13,"ld","upper","maintain","w","w","g","g",1,0.514692457974888,NA,NA,NA
"experimental",11,14,"ld","upper","neuran","nw","nw","h","h",1,0.611702923080884,NA,NA,NA
"experimental",11,15,"ld","upper","crimb","nw","nw","h","h",1,0.785814046626911,NA,NA,NA
"experimental",11,16,"ld","upper","ottans","nw","nw","h","h",1,0.528413408552296,NA,NA,NA
"experimental",11,17,"ld","upper","fuestion","nw","nw","h","h",1,0.57783823099453,NA,NA,NA
"experimental",11,18,"ld","upper","expired","w","w","g","g",1,0.617260004626587,NA,NA,NA
"experimental",11,19,"ld","upper","snorls","nw","nw","h","h",1,0.503318702685647,NA,NA,NA
"experimental",11,20,"ld","upper","advantage","w","w","g","g",1,0.585350403096527,NA,NA,NA
"experimental",11,21,"ld","upper","reason","w","w","g","g",1,0.600586647051387,NA,NA,NA
"experimental",11,22,"ld","upper","redefloy","nw","nw","h","h",1,0.535348139237612,NA,NA,NA
"experimental",11,23,"ld","upper","stretches","w","w","g","g",1,0.511831511743367,NA,NA,NA
"experimental",11,24,"ld","upper","rasuals","nw","nw","h","h",1,0.640669776825234,NA,NA,NA
"experimental",11,25,"ld","upper","dominion","w","w","g","h",0,0.669508041930385,NA,NA,NA
"experimental",11,26,"ld","upper","brank","nw","nw","h","g",0,0.673441465594806,NA,NA,NA
"experimental",11,27,"ld","upper","frunted","nw","nw","h","h",1,0.788888703449629,NA,NA,NA
"experimental",11,28,"ld","upper","issue","w","w","g","g",1,0.571421778877266,NA,NA,NA
"experimental",11,29,"ld","upper","mopping","w","w","g","g",1,1.13068061321974,NA,NA,NA
"experimental",11,30,"ld","upper","staircase","w","w","g","g",1,0.515753465122543,NA,NA,NA
"experimental",12,1,"ld","upper","roaned","nw","nw","h","h",1,0.62954293587245,NA,NA,NA
"experimental",12,2,"ld","upper","grested","nw","nw","h","h",1,0.554895724635571,NA,NA,NA
"experimental",12,3,"ld","upper","overcoat","w","w","g","g",1,0.562742347945459,NA,NA,NA
"experimental",12,4,"ld","upper","galashes","nw","nw","h","h",1,0.650583477574401,NA,NA,NA
"experimental",12,5,"ld","upper","showdown","w","w","g","g",1,0.543174236780033,NA,NA,NA
"experimental",12,6,"ld","upper","purpose","w","w","g","g",1,0.502879207255319,NA,NA,NA
"experimental",12,7,"ld","upper","loneliest","w","w","g","g",1,0.592816392076202,NA,NA,NA
"experimental",12,8,"ld","upper","vaporize","w","w","g","g",1,0.495403257315047,NA,NA,NA
"experimental",12,9,"ld","upper","nauling","nw","nw","h","h",1,0.54605963290669,NA,NA,NA
"experimental",12,10,"ld","upper","ebuating","nw","nw","h","h",1,0.602745788986795,NA,NA,NA
"experimental",12,11,"ld","upper","dileting","nw","nw","h","h",1,0.408714595716447,NA,NA,NA
"experimental",12,12,"ld","upper","ghists","nw","nw","h","h",1,0.43872102512978,NA,NA,NA
"experimental",12,13,"ld","upper","plunging","w","w","g","g",1,0.523452785098925,NA,NA,NA
"experimental",12,14,"ld","upper","sonnet","w","w","g","g",1,0.691697127651423,NA,NA,NA
"experimental",12,15,"ld","upper","bypassed","w","w","g","g",1,0.710504573769867,NA,NA,NA
"experimental",12,16,"ld","upper","glocked","nw","nw","h","h",1,1.00920299103018,NA,NA,NA
"experimental",12,17,"ld","upper","require","w","w","g","g",1,0.50257433752995,NA,NA,NA
"experimental",12,18,"ld","upper","ireology","nw","nw","h","h",1,0.62519325944595,NA,NA,NA
"experimental",12,19,"ld","upper","dazid","nw","nw","h","g",0,0.486567467451096,NA,NA,NA
"experimental",12,20,"ld","upper","retain","w","w","g","g",1,0.569202870246954,NA,NA,NA
"experimental",12,21,"ld","upper","emission","w","w","g","g",1,0.625311886891723,NA,NA,NA
"experimental",12,22,"ld","upper","army","w","w","g","g",1,0.558578309952281,NA,NA,NA
"experimental",12,23,"ld","upper","pakened","nw","nw","h","h",1,0.63074400217738,NA,NA,NA
"experimental",12,24,"ld","upper","dentures","w","w","g","g",1,0.74803585303016,NA,NA,NA
"experimental",12,25,"ld","upper","volder","nw","nw","h","h",1,0.612767552491277,NA,NA,NA
"experimental",12,26,"ld","upper","tharcely","nw","nw","h","h",1,0.474698374280706,NA,NA,NA
"experimental",12,27,"ld","upper","seartfelt","nw","nw","h","h",1,0.861044132732786,NA,NA,NA
"experimental",12,28,"ld","upper","release","w","w","g","g",1,0.649777534767054,NA,NA,NA
"experimental",12,29,"ld","upper","sliding","w","w","g","g",1,0.542529482394457,NA,NA,NA
"experimental",12,30,"ld","upper","ebciting","nw","nw","h","h",1,0.559235440101475,NA,NA,NA
"experimental",13,1,"hd","lower","contusiok","nw","nw","h","h",1,0.560131334583275,NA,NA,NA
"experimental",13,2,"hd","lower","practice","w","w","g","g",1,0.42321432265453,NA,NA,NA
"experimental",13,3,"hd","lower","hindsight","w","w","g","g",1,0.684545667725615,NA,NA,NA
"experimental",13,4,"hd","lower","daining","nw","nw","h","h",1,0.639919072855264,NA,NA,NA
"experimental",13,5,"hd","lower","sopes","nw","nw","h","h",1,0.548535114969127,NA,NA,NA
"experimental",13,6,"hd","lower","observer","w","w","g","g",1,0.556039438932203,NA,NA,NA
"experimental",13,7,"hd","lower","sporidic","nw","nw","h","h",1,0.604098384501413,NA,NA,NA
"experimental",13,8,"hd","lower","whirlpool","w","w","g","g",1,0.64259045640938,NA,NA,NA
"experimental",13,9,"hd","lower","sooled","nw","nw","h","h",1,0.719924445846118,NA,NA,NA
"experimental",13,10,"hd","lower","shillac","nw","nw","h","h",1,0.616515035857446,NA,NA,NA
"experimental",13,11,"hd","lower","horks","nw","nw","h","h",1,0.574503076495603,NA,NA,NA
"experimental",13,12,"hd","lower","figure","w","w","g","g",1,0.61376607650891,NA,NA,NA
"experimental",13,13,"hd","lower","jaguar","target","target","q","g",0,0.779776116134599,1,1,NA
"experimental",13,14,"hd","lower","dumult","aftertar1","nw","h","g",0,1.24315310711972,NA,NA,NA
"experimental",13,15,"hd","lower","resent","aftertar2","w","g","g",1,0.711964326328598,NA,NA,NA
"experimental",13,16,"hd","lower","earterner","aftertar3","nw","h","h",1,0.825954528292641,NA,NA,NA
"experimental",13,17,"hd","lower","rootsie","nw","nw","h","h",1,0.607373168808408,NA,NA,NA
"experimental",13,18,"hd","lower","catgup","nw","nw","h","h",1,0.685357647598721,NA,NA,NA
"experimental",13,19,"hd","lower","summon","nw","w","g","h",0,0.600537747144699,NA,NA,NA
"experimental",13,20,"hd","lower","huests","w","nw","h","h",1,0.71779307408724,NA,NA,NA
"experimental",13,21,"hd","lower","houted","nw","nw","h","h",1,0.622885606484488,NA,NA,NA
"experimental",13,22,"hd","lower","collision","nw","w","g","g",1,0.612376051489264,NA,NA,NA
"experimental",13,23,"hd","lower","diatonic","w","w","g","h",0,0.66643700725399,NA,NA,NA
"experimental",13,24,"hd","lower","latter","w","w","g","g",1,0.91840673761908,NA,NA,NA
"experimental",13,25,"hd","lower","corduroy","w","w","g","h",0,0.744321573292837,NA,NA,NA
"experimental",13,26,"hd","lower","cookbook","w","w","g","g",1,0.608968452550471,NA,NA,NA
"experimental",13,27,"hd","lower","decant","w","w","g","h",0,1.0701808683807,NA,NA,NA
"experimental",13,28,"hd","lower","gradielts","w","nw","h","h",1,0.978468496352434,NA,NA,NA
"experimental",13,29,"hd","lower","enacted","nw","w","g","g",1,0.776714740553871,NA,NA,NA
"experimental",13,30,"hd","lower","become","w","w","g","g",1,0.504117099335417,NA,NA,NA
"experimental",14,1,"ld","upper","arrive","w","w","g","g",1,0.538219348411076,NA,NA,NA
"experimental",14,2,"ld","upper","baults","nw","nw","h","h",1,0.602882225881331,NA,NA,NA
"experimental",14,3,"ld","upper","theery","nw","nw","h","h",1,0.625014865305275,NA,NA,NA
"experimental",14,4,"ld","upper","penalize","w","w","g","g",1,0.517327015753835,NA,NA,NA
"experimental",14,5,"ld","upper","fudden","nw","nw","h","h",1,0.902686626184732,NA,NA,NA
"experimental",14,6,"ld","upper","renown","w","w","g","g",1,0.592682671966031,NA,NA,NA
"experimental",14,7,"ld","upper","charcoal","w","w","g","g",1,0.511473214370199,NA,NA,NA
"experimental",14,8,"ld","upper","dialogues","w","w","g","h",0,0.593505216646008,NA,NA,NA
"experimental",14,9,"ld","upper","organize","w","w","g","g",1,0.552144652232528,NA,NA,NA
"experimental",14,10,"ld","upper","forfeit","w","w","g","g",1,0.648162328638136,NA,NA,NA
"experimental",14,11,"ld","upper","ufionize","nw","nw","h","h",1,0.660049231140874,NA,NA,NA
"experimental",14,12,"ld","upper","burrowing","w","w","g","g",1,0.551963239675388,NA,NA,NA
"experimental",14,13,"ld","upper","elpousal","nw","nw","h","h",1,0.783986035501584,NA,NA,NA
"experimental",14,14,"ld","upper","fallacy","w","w","g","g",1,0.518632220569998,NA,NA,NA
"experimental",14,15,"ld","upper","fetching","w","w","g","h",0,0.76802112266887,NA,NA,NA
"experimental",14,16,"ld","upper","derisury","nw","nw","h","h",1,0.719400130095892,NA,NA,NA
"experimental",14,17,"ld","upper","gumdrep","nw","nw","h","h",1,0.64878897194285,NA,NA,NA
"experimental",14,18,"ld","upper","enunciate","w","w","g","g",1,0.61350859736558,NA,NA,NA
"experimental",14,19,"ld","upper","mandlers","nw","nw","h","h",1,0.691453231847845,NA,NA,NA
"experimental",14,20,"ld","upper","pastnoss","nw","nw","h","h",1,0.52630648680497,NA,NA,NA
"experimental",14,21,"ld","upper","pripend","nw","nw","h","h",1,0.574635287281126,NA,NA,NA
"experimental",14,22,"ld","upper","butled","nw","nw","h","h",1,0.814002124127001,NA,NA,NA
"experimental",14,23,"ld","upper","mennel","nw","nw","h","h",1,0.538627149537206,NA,NA,NA
"experimental",14,24,"ld","upper","favoting","nw","nw","h","g",0,0.579509279457852,NA,NA,NA
"experimental",14,25,"ld","upper","amplifier","w","w","g","g",1,0.682885485817678,NA,NA,NA
"experimental",14,26,"ld","upper","prison","w","w","g","g",1,0.535028478712775,NA,NA,NA
"experimental",14,27,"ld","upper","divider","w","w","g","g",1,0.576061836443841,NA,NA,NA
"experimental",14,28,"ld","upper","drauns","nw","nw","h","h",1,0.64742641535122,NA,NA,NA
"experimental",14,29,"ld","upper","chemical","w","w","g","g",1,0.564058721298352,NA,NA,NA
"experimental",14,30,"ld","upper","bureaug","nw","nw","h","h",1,0.659315430675633,NA,NA,NA
"experimental",15,1,"ld","upper","kettle","w","w","g","g",1,0.607825341983698,NA,NA,NA
"experimental",15,2,"ld","upper","overflow","w","w","g","g",1,0.469808082096279,NA,NA,NA
"experimental",15,3,"ld","upper","latpin","nw","nw","h","h",1,0.52109381754417,NA,NA,NA
"experimental",15,4,"ld","upper","bamps","nw","nw","h","h",1,0.554473736556247,NA,NA,NA
"experimental",15,5,"ld","upper","sording","nw","nw","h","h",1,0.562581159407273,NA,NA,NA
"experimental",15,6,"ld","upper","analysis","w","w","g","g",1,0.562589913024567,NA,NA,NA
"experimental",15,7,"ld","upper","infancy","w","w","g","g",1,0.657474138075486,NA,NA,NA
"experimental",15,8,"ld","upper","gund","nw","nw","h","h",1,0.485485934303142,NA,NA,NA
"experimental",15,9,"ld","upper","bookend","w","w","g","h",0,0.688143130973913,NA,NA,NA
"experimental",15,10,"ld","upper","flooted","nw","nw","h","h",1,0.714833120582625,NA,NA,NA
"experimental",15,11,"ld","upper","removable","w","w","g","g",1,0.52494393021334,NA,NA,NA
"experimental",15,12,"ld","upper","mantos","nw","nw","h","h",1,0.606262959889136,NA,NA,NA
"experimental",15,13,"ld","upper","eyesight","w","w","g","g",1,0.580301940906793,NA,NA,NA
"experimental",15,14,"ld","upper","scatter","w","w","g","g",1,0.731625407701358,NA,NA,NA
"experimental",15,15,"ld","upper","nimp","nw","nw","h","h",1,0.684109492693096,NA,NA,NA
"experimental",15,16,"ld","upper","glates","nw","nw","h","h",1,0.647168332478032,NA,NA,NA
"experimental",15,17,"ld","upper","triangle","w","w","g","g",1,0.691049958462827,NA,NA,NA
"experimental",15,18,"ld","upper","gures","nw","nw","h","h",1,0.558356449240819,NA,NA,NA
"experimental",15,19,"ld","upper","atabaster","nw","nw","h","g",0,0.510922335786745,NA,NA,NA
"experimental",15,20,"ld","upper","sunhess","nw","nw","h","h",1,0.856851418851875,NA,NA,NA
"experimental",15,21,"ld","upper","expounded","w","w","g","g",1,0.532958986586891,NA,NA,NA
"experimental",15,22,"ld","upper","lizard","target","target","q","g",0,0.486367038101889,1,1,NA
"experimental",15,23,"ld","upper","sarlock","aftertar1","nw","h","h",1,0.776931771659292,NA,NA,NA
"experimental",15,24,"ld","upper","dounger","aftertar2","nw","h","h",1,0.688400308252312,NA,NA,NA
"experimental",15,25,"ld","upper","company","aftertar3","w","g","g",1,0.547053025336936,NA,NA,NA
"experimental",15,26,"ld","upper","dialect","w","w","g","h",0,0.57866711448878,NA,NA,NA
"experimental",15,27,"ld","upper","shazer","w","nw","h","h",1,0.954174300073646,NA,NA,NA
"experimental",15,28,"ld","upper","railroad","nw","w","g","g",1,0.738170146592893,NA,NA,NA
"experimental",15,29,"ld","upper","budget","w","w","g","g",1,0.594790499191731,NA,NA,NA
"experimental",15,30,"ld","upper","reses","w","nw","h","h",1,0.737548031262122,NA,NA,NA
"experimental",16,1,"hd","lower","mabit","nw","nw","h","h",1,0.658074520062655,NA,NA,NA
"experimental",16,2,"hd","lower","exemplify","w","w","g","g",1,0.470157022122294,NA,NA,NA
"experimental",16,3,"hd","lower","talate","nw","nw","h","g",0,0.465491307317279,NA,NA,NA
"experimental",16,4,"hd","lower","ilterfere","nw","nw","h","h",1,0.589432639535517,NA,NA,NA
"experimental",16,5,"hd","lower","demise","w","w","g","h",0,0.572227118071169,NA,NA,NA
"experimental",16,6,"hd","lower","deeper","w","w","g","g",1,0.563529575942084,NA,NA,NA
"experimental",16,7,"hd","lower","knowledge","w","w","g","g",1,0.450900723342784,NA,NA,NA
"experimental",16,8,"hd","lower","slooch","nw","nw","h","h",1,0.526443829061463,NA,NA,NA
"experimental",16,9,"hd","lower","imotope","nw","nw","h","h",1,0.622878663940355,NA,NA,NA
"experimental",16,10,"hd","lower","intrude","w","w","g","g",1,0.500459869508632,NA,NA,NA
"experimental",16,11,"hd","lower","metebing","nw","nw","h","h",1,0.567176844691858,NA,NA,NA
"experimental",16,12,"hd","lower","intersect","w","w","g","g",1,0.510868002544157,NA,NA,NA
"experimental",16,13,"hd","lower","selongs","nw","nw","h","h",1,0.544738128082827,NA,NA,NA
"experimental",16,14,"hd","lower","angry","w","w","g","g",1,0.585353723610751,NA,NA,NA
"experimental",16,15,"hd","lower","chicken","target","target","q","q",1,0.648088375106454,1,NA,NA
"experimental",16,16,"hd","lower","unrealon","aftertar1","nw","h","h",1,0.740900391247123,NA,NA,NA
"experimental",16,17,"hd","lower","joses","aftertar2","nw","h","h",1,0.669510456733406,NA,NA,NA
"experimental",16,18,"hd","lower","legalize","aftertar3","w","g","g",1,0.648593372199684,NA,NA,NA
"experimental",16,19,"hd","lower","ignoble","w","w","g","g",1,0.58167445869185,NA,NA,NA
"experimental",16,20,"hd","lower","rivet","w","w","g","g",1,0.932018418097869,NA,NA,NA
"experimental",16,21,"hd","lower","pegend","w","nw","h","h",1,0.57331529178191,NA,NA,NA
"experimental",16,22,"hd","lower","glaims","nw","nw","h","h",1,0.668619693722576,NA,NA,NA
"experimental",16,23,"hd","lower","thorifies","nw","nw","h","h",1,0.576001164270565,NA,NA,NA
"experimental",16,24,"hd","lower","nimono","nw","nw","h","h",1,0.511420692200772,NA,NA,NA
"experimental",16,25,"hd","lower","acidic","nw","w","g","g",1,0.609447490540333,NA,NA,NA
"experimental",16,26,"hd","lower","shivering","w","w","g","g",1,0.623476027627476,NA,NA,NA
"experimental",16,27,"hd","lower","nearsipe","w","nw","h","h",1,0.652861247071996,NA,NA,NA
"experimental",16,28,"hd","lower","currowing","nw","nw","h","g",0,0.464792521670461,NA,NA,NA
"experimental",16,29,"hd","lower","urgency","nw","w","g","g",1,0.739864437724464,NA,NA,NA
"experimental",16,30,"hd","lower","martial","w","w","g","g",1,0.612512488267384,NA,NA,NA
"experimental",17,1,"hd","lower","etcess","nw","nw","h","h",1,0.618211439927109,NA,NA,NA
"experimental",17,2,"hd","lower","maiden","w","w","g","h",0,1.18352571234573,NA,NA,NA
"experimental",17,3,"hd","lower","thaken","nw","nw","h","h",1,0.591121195349842,NA,NA,NA
"experimental",17,4,"hd","lower","acroad","nw","nw","h","g",0,0.541342603275552,NA,NA,NA
"experimental",17,5,"hd","lower","lentils","w","w","g","g",1,0.781907789641991,NA,NA,NA
"experimental",17,6,"hd","lower","neally","nw","nw","h","h",1,0.581231642747298,NA,NA,NA
"experimental",17,7,"hd","lower","comply","w","w","g","g",1,0.748597296420485,NA,NA,NA
"experimental",17,8,"hd","lower","calming","w","w","g","g",1,0.46135866176337,NA,NA,NA
"experimental",17,9,"hd","lower","ganter","nw","nw","h","h",1,0.537367524229921,NA,NA,NA
"experimental",17,10,"hd","lower","tredits","nw","nw","h","h",1,0.730081740417518,NA,NA,NA
"experimental",17,11,"hd","lower","meteoroid","w","w","g","g",1,0.72349987376947,NA,NA,NA
"experimental",17,12,"hd","lower","static","w","w","g","g",1,0.523910089628771,NA,NA,NA
"experimental",17,13,"hd","lower","rawhide","w","w","g","g",1,0.493349461467005,NA,NA,NA
"experimental",17,14,"hd","lower","splatter","w","w","g","g",1,0.631859342567623,NA,NA,NA
"experimental",17,15,"hd","lower","exploit","w","w","g","g",1,0.533378559863195,NA,NA,NA
"experimental",17,16,"hd","lower","holdup","w","w","g","h",0,0.550554197980091,NA,NA,NA
"experimental",17,17,"hd","lower","module","w","w","g","g",1,0.638619904988445,NA,NA,NA
"experimental",17,18,"hd","lower","vented","w","w","g","g",1,0.563483090954833,NA,NA,NA
"experimental",17,19,"hd","lower","garment","w","w","g","g",1,0.619428806006908,NA,NA,NA
"experimental",17,20,"hd","lower","schides","nw","nw","h","h",1,0.60872878273949,NA,NA,NA
"experimental",17,21,"hd","lower","regards","w","w","g","g",1,0.533978338353336,NA,NA,NA
"experimental",17,22,"hd","lower","borrent","nw","nw","h","h",1,0.591477983631194,NA,NA,NA
"experimental",17,23,"hd","lower","ounside","nw","nw","h","h",1,0.853195698349737,NA,NA,NA
"experimental",17,24,"hd","lower","pleamed","nw","nw","h","h",1,0.64129732560832,NA,NA,NA
"experimental",17,25,"hd","lower","dontrite","nw","nw","h","h",1,0.629928400041535,NA,NA,NA
"experimental",17,26,"hd","lower","trises","nw","nw","h","h",1,0.491429083631374,NA,NA,NA
"experimental",17,27,"hd","lower","official","w","w","g","g",1,0.510009537567385,NA,NA,NA
"experimental",17,28,"hd","lower","addma","nw","nw","h","h",1,0.502765711280517,NA,NA,NA
"experimental",17,29,"hd","lower","sprea","nw","nw","h","g",0,0.480868213926442,NA,NA,NA
"experimental",17,30,"hd","lower","withep","nw","nw","h","g",0,0.596767926821485,NA,NA,NA
"experimental",18,1,"ld","upper","catacomb","w","w","g","g",1,0.723343514837325,NA,NA,NA
"experimental",18,2,"ld","upper","doads","nw","nw","h","h",1,0.57266751897987,NA,NA,NA
"experimental",18,3,"ld","upper","cartles","nw","nw","h","h",1,0.756031590863131,NA,NA,NA
"experimental",18,4,"ld","upper","statute","w","w","g","g",1,0.612123703816906,NA,NA,NA
"experimental",18,5,"ld","upper","noils","nw","nw","h","h",1,0.530051555368118,NA,NA,NA
"experimental",18,6,"ld","upper","nopping","nw","nw","h","h",1,0.619462613365613,NA,NA,NA
"experimental",18,7,"ld","upper","chrik","nw","nw","h","h",1,0.567758210236207,NA,NA,NA
"experimental",18,8,"ld","upper","measure","w","w","g","g",1,0.607134102610871,NA,NA,NA
"experimental",18,9,"ld","upper","visible","w","w","g","g",1,0.549227259936742,NA,NA,NA
"experimental",18,10,"ld","upper","alarm","w","w","g","g",1,0.469859396805987,NA,NA,NA
"experimental",18,11,"ld","upper","audience","w","w","g","g",1,0.489115393836983,NA,NA,NA
"experimental",18,12,"ld","upper","draze","nw","nw","h","h",1,0.467849973007105,NA,NA,NA
"experimental",18,13,"ld","upper","guffy","nw","nw","h","h",1,0.591171302716248,NA,NA,NA
"experimental",18,14,"ld","upper","rebool","nw","nw","h","h",1,0.541910385596566,NA,NA,NA
"experimental",18,15,"ld","upper","contund","nw","nw","h","h",1,0.638605416170321,NA,NA,NA
"experimental",18,16,"ld","upper","truthful","w","w","g","g",1,0.626425114343874,NA,NA,NA
"experimental",18,17,"ld","upper","except","w","w","g","g",1,0.415678907884285,NA,NA,NA
"experimental",18,18,"ld","upper","equitable","w","w","g","g",1,0.48575277091004,NA,NA,NA
"experimental",18,19,"ld","upper","permute","w","w","g","h",0,0.648426448577084,NA,NA,NA
"experimental",18,20,"ld","upper","lavilion","nw","nw","h","h",1,0.949094143463299,NA,NA,NA
"experimental",18,21,"ld","upper","deceit","w","w","g","g",1,0.452559999539517,NA,NA,NA
"experimental",18,22,"ld","upper","chesume","nw","nw","h","h",1,0.800789189175703,NA,NA,NA
"experimental",18,23,"ld","upper","command","w","w","g","g",1,0.527447182685137,NA,NA,NA
"experimental",18,24,"ld","upper","function","w","w","g","g",1,0.577404470765032,NA,NA,NA
"experimental",18,25,"ld","upper","fuintets","nw","nw","h","h",1,0.599680187762715,NA,NA,NA
"experimental",18,26,"ld","upper","twenties","w","w","g","g",1,0.495353451813571,NA,NA,NA
"experimental",18,27,"ld","upper","nogwhell","nw","nw","h","h",1,0.513009033515118,NA,NA,NA
"experimental",18,28,"ld","upper","marvel","w","w","g","g",1,0.72300000814721,NA,NA,NA
"experimental",18,29,"ld","upper","ezulated","nw","nw","h","h",1,0.579885084414855,NA,NA,NA
"experimental",18,30,"ld","upper","kiner","nw","nw","h","h",1,0.563759888522327,NA,NA,NA
"experimental",19,1,"hd","lower","region","w","w","g","g",1,0.540518247522414,NA,NA,NA
"experimental",19,2,"hd","lower","surdens","nw","nw","h","h",1,0.532212206511758,NA,NA,NA
"experimental",19,3,"hd","lower","marinate","w","w","g","g",1,0.485622974811122,NA,NA,NA
"experimental",19,4,"hd","lower","natch","nw","nw","h","h",1,0.576365498709492,NA,NA,NA
"experimental",19,5,"hd","lower","beartiset","nw","nw","h","h",1,0.607648155302741,NA,NA,NA
"experimental",19,6,"hd","lower","unversed","w","w","g","h",0,0.445746613200754,NA,NA,NA
"experimental",19,7,"hd","lower","hotplate","w","w","g","g",1,0.722409888869151,NA,NA,NA
"experimental",19,8,"hd","lower","overwork","w","w","g","g",1,0.483927476336248,NA,NA,NA
"experimental",19,9,"hd","lower","tycoon","w","w","g","g",1,0.510567056946456,NA,NA,NA
"experimental",19,10,"hd","lower","gorilla","target","target","q","g",0,0.447636503726244,1,1,NA
"experimental",19,11,"hd","lower","arcients","aftertar1","nw","h","h",1,0.733343846979551,NA,NA,NA
"experimental",19,12,"hd","lower","bellicove","aftertar2","nw","h","h",1,0.709611697704531,NA,NA,NA
"experimental",19,13,"hd","lower","series","aftertar3","w","g","h",0,0.487650207825936,NA,NA,NA
"experimental",19,14,"hd","lower","parlayid","w","nw","h","h",1,0.625219218665734,NA,NA,NA
"experimental",19,15,"hd","lower","amkles","nw","nw","h","h",1,0.67856810730882,NA,NA,NA
"experimental",19,16,"hd","lower","mamps","nw","nw","h","h",1,0.458421045332216,NA,NA,NA
"experimental",19,17,"hd","lower","funtair","nw","nw","h","h",1,0.527007989119738,NA,NA,NA
"experimental",19,18,"hd","lower","correct","nw","w","g","g",1,0.512575575150549,NA,NA,NA
"experimental",19,19,"hd","lower","curricula","w","w","g","h",0,0.642554536112584,NA,NA,NA
"experimental",19,20,"hd","lower","sefine","w","nw","h","h",1,0.5822189982282,NA,NA,NA
"experimental",19,21,"hd","lower","shamrock","nw","w","g","g",1,0.789637898327783,NA,NA,NA
"experimental",19,22,"hd","lower","expensive","w","w","g","g",1,0.524235485354438,NA,NA,NA
"experimental",19,23,"hd","lower","bengths","w","nw","h","h",1,0.597678310237825,NA,NA,NA
"experimental",19,24,"hd","lower","gaining","nw","w","g","g",1,0.540409581153654,NA,NA,NA
"experimental",19,25,"hd","lower","icepick","w","w","g","g",1,0.669009987381287,NA,NA,NA
"experimental",19,26,"hd","lower","lightels","w","nw","h","h",1,0.680445622187108,NA,NA,NA
"experimental",19,27,"hd","lower","dealer","nw","w","g","g",1,0.499812398571521,NA,NA,NA
"experimental",19,28,"hd","lower","ebince","w","nw","h","h",1,0.590438709710725,NA,NA,NA
"experimental",19,29,"hd","lower","bumbo","nw","nw","h","g",0,0.573269410408102,NA,NA,NA
"experimental",19,30,"hd","lower","blocking","nw","w","g","g",1,1.0036495316308,NA,NA,NA
"experimental",20,1,"hd","lower","integral","w","w","g","g",1,0.570259349769913,NA,NA,NA
"experimental",20,2,"hd","lower","binder","w","w","g","g",1,0.553544638329186,NA,NA,NA
"experimental",20,3,"hd","lower","passet","nw","nw","h","h",1,0.657662191311829,NA,NA,NA
"experimental",20,4,"hd","lower","deserve","w","w","g","g",1,0.789633974200115,NA,NA,NA
"experimental",20,5,"hd","lower","assent","w","w","g","g",1,0.460358024807647,NA,NA,NA
"experimental",20,6,"hd","lower","asthmatic","w","w","g","g",1,0.519372963579372,NA,NA,NA
"experimental",20,7,"hd","lower","erlighten","nw","nw","h","h",1,0.54359411180485,NA,NA,NA
"experimental",20,8,"hd","lower","restock","w","w","g","g",1,0.456462030764669,NA,NA,NA
"experimental",20,9,"hd","lower","latirizes","nw","nw","h","h",1,0.628865883685648,NA,NA,NA
"experimental",20,10,"hd","lower","pollute","w","w","g","g",1,0.474934120080434,NA,NA,NA
"experimental",20,11,"hd","lower","pimorous","nw","nw","h","h",1,0.566285477951169,NA,NA,NA
"experimental",20,12,"hd","lower","reprint","w","w","g","g",1,0.518290826701559,NA,NA,NA
"experimental",20,13,"hd","lower","oppose","w","w","g","h",0,0.463718534912914,NA,NA,NA
"experimental",20,14,"hd","lower","frogmy","nw","nw","h","h",1,0.562734499806538,NA,NA,NA
"experimental",20,15,"hd","lower","nores","nw","nw","h","h",1,0.538697782554664,NA,NA,NA
"experimental",20,16,"hd","lower","ladybug","target","target","q","g",0,0.515419617644511,1,1,NA
"experimental",20,17,"hd","lower","whirling","aftertar1","w","g","g",1,0.789505083812401,NA,NA,NA
"experimental",20,18,"hd","lower","labitable","aftertar2","nw","h","g",0,0.700155301601626,NA,NA,NA
"experimental",20,19,"hd","lower","podges","aftertar3","nw","h","h",1,0.702187666087411,NA,NA,NA
"experimental",20,20,"hd","lower","racile","nw","nw","h","h",1,0.688139508711174,NA,NA,NA
"experimental",20,21,"hd","lower","erony","nw","nw","h","h",1,0.570786080206744,NA,NA,NA
"experimental",20,22,"hd","lower","chyme","nw","nw","h","h",1,0.522180482046679,NA,NA,NA
"experimental",20,23,"hd","lower","haurded","nw","nw","h","h",1,0.955589680699632,NA,NA,NA
"experimental",20,24,"hd","lower","grefab","nw","nw","h","h",1,0.531646235496737,NA,NA,NA
"experimental",20,25,"hd","lower","tracing","nw","w","g","g",1,0.571931907441467,NA,NA,NA
"experimental",20,26,"hd","lower","skiing","w","w","g","g",1,0.571417251136154,NA,NA,NA
"experimental",20,27,"hd","lower","exit","w","w","g","g",1,0.49071128142532,NA,NA,NA
"experimental",20,28,"hd","lower","boutique","w","w","g","g",1,0.541460627107881,NA,NA,NA
"experimental",20,29,"hd","lower","kickoff","w","w","g","g",1,0.470161248114891,NA,NA,NA
"experimental",20,30,"hd","lower","tyena","w","nw","h","h",1,0.841498660389334,NA,NA,NA
"experimental",21,1,"ld","upper","probable","w","w","g","g",1,0.524793306482024,NA,NA,NA
"experimental",21,2,"ld","upper","nameplate","w","w","g","h",0,0.622916093561798,NA,NA,NA
"experimental",21,3,"ld","upper","filter","w","w","g","g",1,0.468770317500457,NA,NA,NA
"experimental",21,4,"ld","upper","fomrade","nw","nw","h","h",1,0.592138132313266,NA,NA,NA
"experimental",21,5,"ld","upper","felevance","nw","nw","h","h",1,0.59086552739609,NA,NA,NA
"experimental",21,6,"ld","upper","sponto","nw","nw","h","h",1,0.573518437682651,NA,NA,NA
"experimental",21,7,"ld","upper","prama","nw","nw","h","h",1,0.492880686302669,NA,NA,NA
"experimental",21,8,"ld","upper","digar","nw","nw","h","h",1,0.655524178873748,NA,NA,NA
"experimental",21,9,"ld","upper","spaceship","w","w","g","g",1,0.594661608687602,NA,NA,NA
"experimental",21,10,"ld","upper","cheathe","nw","nw","h","h",1,0.593367874273099,NA,NA,NA
"experimental",21,11,"ld","upper","tuckel","nw","nw","h","h",1,0.655962466960773,NA,NA,NA
"experimental",21,12,"ld","upper","stagger","w","w","g","g",1,0.548001140123233,NA,NA,NA
"experimental",21,13,"ld","upper","inforl","nw","nw","h","h",1,0.58074173820205,NA,NA,NA
"experimental",21,14,"ld","upper","forgive","w","w","g","g",1,0.556046985206194,NA,NA,NA
"experimental",21,15,"ld","upper","glamorous","w","w","g","g",1,0.580198406009004,NA,NA,NA
"experimental",21,16,"ld","upper","guivers","nw","nw","h","h",1,0.547445431933738,NA,NA,NA
"experimental",21,17,"ld","upper","valif","nw","nw","h","h",1,0.628227770095691,NA,NA,NA
"experimental",21,18,"ld","upper","decantel","nw","nw","h","h",1,0.576585850212723,NA,NA,NA
"experimental",21,19,"ld","upper","moozy","nw","nw","h","h",1,0.64789519039914,NA,NA,NA
"experimental",21,20,"ld","upper","landing","w","w","g","g",1,0.556564962025732,NA,NA,NA
"experimental",21,21,"ld","upper","dredigest","nw","nw","h","h",1,0.620599988847971,NA,NA,NA
"experimental",21,22,"ld","upper","peanimate","nw","nw","h","h",1,0.65799905732274,NA,NA,NA
"experimental",21,23,"ld","upper","revising","w","w","g","g",1,0.494011722970754,NA,NA,NA
"experimental",21,24,"ld","upper","graveyard","w","w","g","g",1,0.560759185231291,NA,NA,NA
"experimental",21,25,"ld","upper","potent","w","w","g","g",1,0.600708595011383,NA,NA,NA
"experimental",21,26,"ld","upper","daylight","w","w","g","g",1,0.454811508068815,NA,NA,NA
"experimental",21,27,"ld","upper","crudios","nw","nw","h","h",1,0.561691301874816,NA,NA,NA
"experimental",21,28,"ld","upper","suspect","w","w","g","g",1,0.633789077633992,NA,NA,NA
"experimental",21,29,"ld","upper","acoustic","w","w","g","g",1,0.534387346706353,NA,NA,NA
"experimental",21,30,"ld","upper","threaded","w","w","g","g",1,0.575739459251054,NA,NA,NA
"experimental",22,1,"ld","upper","season","w","w","g","g",1,0.456050305627286,NA,NA,NA
"experimental",22,2,"ld","upper","splinging","nw","nw","h","h",1,0.604165697353892,NA,NA,NA
"experimental",22,3,"ld","upper","define","w","w","g","g",1,0.465395620441996,NA,NA,NA
"experimental",22,4,"ld","upper","burning","w","w","g","g",1,0.438318959320895,NA,NA,NA
"experimental",22,5,"ld","upper","graiking","nw","nw","h","h",1,0.545837772195227,NA,NA,NA
"experimental",22,6,"ld","upper","fabstand","nw","nw","h","h",1,0.59459278662689,NA,NA,NA
"experimental",22,7,"ld","upper","remain","w","w","g","g",1,0.473273636307567,NA,NA,NA
"experimental",22,8,"ld","upper","appain","nw","nw","h","g",0,0.508691051392816,NA,NA,NA
"experimental",22,9,"ld","upper","fatho","nw","nw","h","h",1,0.622663444024511,NA,NA,NA
"experimental",22,10,"ld","upper","ements","nw","nw","h","h",1,0.556019516778179,NA,NA,NA
"experimental",22,11,"ld","upper","admire","w","w","g","g",1,0.516078558983281,NA,NA,NA
"experimental",22,12,"ld","upper","stelled","nw","nw","h","h",1,0.582139309495687,NA,NA,NA
"experimental",22,13,"ld","upper","blipover","nw","nw","h","h",1,0.532602802151814,NA,NA,NA
"experimental",22,14,"ld","upper","fidelity","w","w","g","g",1,0.573826929670759,NA,NA,NA
"experimental",22,15,"ld","upper","begut","nw","nw","h","h",1,0.429138757055625,NA,NA,NA
"experimental",22,16,"ld","upper","extruded","w","w","g","g",1,0.65059494797606,NA,NA,NA
"experimental",22,17,"ld","upper","abhorrent","w","w","g","g",1,0.686570787802339,NA,NA,NA
"experimental",22,18,"ld","upper","reconcile","w","w","g","g",1,0.505281339515932,NA,NA,NA
"experimental",22,19,"ld","upper","olgies","nw","nw","h","h",1,0.571299831033684,NA,NA,NA
"experimental",22,20,"ld","upper","setwixt","nw","nw","h","h",1,0.530654050409794,NA,NA,NA
"experimental",22,21,"ld","upper","refebs","nw","nw","h","h",1,0.466966454405338,NA,NA,NA
"experimental",22,22,"ld","upper","partner","w","w","g","g",1,0.494833060307428,NA,NA,NA
"experimental",22,23,"ld","upper","duplex","w","w","g","g",1,0.546089516137727,NA,NA,NA
"experimental",22,24,"ld","upper","tucker","w","w","g","g",1,0.442425947519951,NA,NA,NA
"experimental",22,25,"ld","upper","hangar","w","w","g","h",0,0.623144293087535,NA,NA,NA
"experimental",22,26,"ld","upper","efcorted","nw","nw","h","g",0,0.56450666859746,NA,NA,NA
"experimental",22,27,"ld","upper","mystery","w","w","g","g",1,0.64452773774974,NA,NA,NA
"experimental",22,28,"ld","upper","earmaff","nw","nw","h","h",1,1.09721345920116,NA,NA,NA
"experimental",22,29,"ld","upper","alomalous","nw","nw","h","h",1,0.659942677477375,NA,NA,NA
"experimental",22,30,"ld","upper","bullet","w","w","g","g",1,0.615951479529031,NA,NA,NA
"experimental",23,1,"hd","lower","louches","nw","nw","h","g",0,0.549863864202052,NA,NA,NA
"experimental",23,2,"hd","lower","dariner","nw","nw","h","h",1,0.478484494495206,NA,NA,NA
"experimental",23,3,"hd","lower","dehydrate","w","w","g","g",1,0.70582889765501,NA,NA,NA
"experimental",23,4,"hd","lower","epic","w","w","g","g",1,0.539822178543545,NA,NA,NA
"experimental",23,5,"hd","lower","armada","w","w","g","h",0,0.556548058288172,NA,NA,NA
"experimental",23,6,"hd","lower","lindo","nw","nw","h","h",1,0.87657105945982,NA,NA,NA
"experimental",23,7,"hd","lower","personify","w","w","g","g",1,0.720030093681999,NA,NA,NA
"experimental",23,8,"hd","lower","hasks","nw","nw","h","g",0,1.05645810673013,NA,NA,NA
"experimental",23,9,"hd","lower","veranpah","nw","nw","h","h",1,0.60449350788258,NA,NA,NA
"experimental",23,10,"hd","lower","resonant","w","w","g","g",1,0.602412847103551,NA,NA,NA
"experimental",23,11,"hd","lower","fisco","nw","nw","h","h",1,0.640518247615546,NA,NA,NA
"experimental",23,12,"hd","lower","joadbed","nw","nw","h","h",1,0.597182368626818,NA,NA,NA
"experimental",23,13,"hd","lower","even","w","w","g","g",1,0.450980110093951,NA,NA,NA
"experimental",23,14,"hd","lower","acting","w","w","g","g",1,0.598767993156798,NA,NA,NA
"experimental",23,15,"hd","lower","congraks","nw","nw","h","h",1,0.565753616043366,NA,NA,NA
"experimental",23,16,"hd","lower","classify","w","w","g","g",1,0.446441172854975,NA,NA,NA
"experimental",23,17,"hd","lower","huntry","nw","nw","h","h",1,0.570687072933652,NA,NA,NA
"experimental",23,18,"hd","lower","vopings","nw","nw","h","h",1,0.609774093609303,NA,NA,NA
"experimental",23,19,"hd","lower","subber","nw","nw","h","h",1,0.567772397305816,NA,NA,NA
"experimental",23,20,"hd","lower","kangaroo","target","target","q","g",0,0.519091336289421,1,1,NA
"experimental",23,21,"hd","lower","germeated","aftertar1","nw","h","h",1,0.720503396354616,NA,NA,NA
"experimental",23,22,"hd","lower","professor","aftertar2","w","g","g",1,0.60253056907095,NA,NA,NA
"experimental",23,23,"hd","lower","recount","aftertar3","w","g","g",1,0.513244175701402,NA,NA,NA
"experimental",23,24,"hd","lower","harder","w","w","g","g",1,0.459917322034016,NA,NA,NA
"experimental",23,25,"hd","lower","afternoon","w","w","g","g",1,0.528660322888754,NA,NA,NA
"experimental",23,26,"hd","lower","combat","w","w","g","g",1,0.522594621987082,NA,NA,NA
"experimental",23,27,"hd","lower","system","w","w","g","h",0,0.540643213898875,NA,NA,NA
"experimental",23,28,"hd","lower","worps","w","nw","h","h",1,0.660945125622675,NA,NA,NA
"experimental",23,29,"hd","lower","filny","nw","nw","h","h",1,0.64969633682631,NA,NA,NA
"experimental",23,30,"hd","lower","fullity","nw","nw","h","h",1,0.727156198117882,NA,NA,NA
"experimental",24,1,"ld","upper","donastic","nw","nw","h","h",1,0.584479864221066,NA,NA,NA
"experimental",24,2,"ld","upper","uncle","w","w","g","g",1,0.520631079562008,NA,NA,NA
"experimental",24,3,"ld","upper","contact","w","w","g","g",1,0.521631112671457,NA,NA,NA
"experimental",24,4,"ld","upper","halter","w","w","g","h",0,0.651660784729756,NA,NA,NA
"experimental",24,5,"ld","upper","alchemist","w","w","g","g",1,0.576424661674537,NA,NA,NA
"experimental",24,6,"ld","upper","veirs","nw","nw","h","g",0,0.480346011114307,NA,NA,NA
"experimental",24,7,"ld","upper","pammed","nw","nw","h","h",1,0.635237963520922,NA,NA,NA
"experimental",24,8,"ld","upper","happen","w","w","g","g",1,0.552618558751419,NA,NA,NA
"experimental",24,9,"ld","upper","pocket","w","w","g","g",1,0.553913198760711,NA,NA,NA
"experimental",24,10,"ld","upper","wimpid","nw","nw","h","h",1,0.547178897308186,NA,NA,NA
"experimental",24,11,"ld","upper","spigat","nw","nw","h","h",1,0.499712787684985,NA,NA,NA
"experimental",24,12,"ld","upper","beggarlan","nw","nw","h","h",1,0.846979977330193,NA,NA,NA
"experimental",24,13,"ld","upper","jungle","w","w","g","g",1,0.532226393697783,NA,NA,NA
"experimental",24,14,"ld","upper","machinery","w","w","g","g",1,0.518183669657446,NA,NA,NA
"experimental",24,15,"ld","upper","demon","w","w","g","g",1,0.512166868546046,NA,NA,NA
"experimental",24,16,"ld","upper","dislokes","nw","nw","h","h",1,0.650815299362876,NA,NA,NA
"experimental",24,17,"ld","upper","slears","nw","nw","h","h",1,0.575602418859489,NA,NA,NA
"experimental",24,18,"ld","upper","bluads","nw","nw","h","h",1,0.503616629866883,NA,NA,NA
"experimental",24,19,"ld","upper","perishing","w","w","g","h",0,0.506369815091603,NA,NA,NA
"experimental",24,20,"ld","upper","bettled","nw","nw","h","h",1,0.828922933433205,NA,NA,NA
"experimental",24,21,"ld","upper","border","w","w","g","g",1,0.554987185518257,NA,NA,NA
"experimental",24,22,"ld","upper","surface","w","w","g","g",1,0.474663359462284,NA,NA,NA
"experimental",24,23,"ld","upper","cills","nw","nw","h","h",1,0.50270805764012,NA,NA,NA
"experimental",24,24,"ld","upper","unburnid","nw","nw","h","h",1,0.577404470765032,NA,NA,NA
"experimental",24,25,"ld","upper","befriend","w","w","g","g",1,0.609515105257742,NA,NA,NA
"experimental",24,26,"ld","upper","defensa","nw","nw","h","h",1,0.616231899359263,NA,NA,NA
"experimental",24,27,"ld","upper","orange","w","w","g","g",1,0.534864875371568,NA,NA,NA
"experimental",24,28,"ld","upper","caloric","w","w","g","g",1,0.560252075083554,NA,NA,NA
"experimental",24,29,"ld","upper","neliefs","nw","nw","h","h",1,0.560952973668464,NA,NA,NA
"experimental",24,30,"ld","upper","pigned","nw","nw","h","h",1,0.592748173628934,NA,NA,NA
"experimental",25,1,"ld","upper","reborn","w","w","g","g",1,0.471596550778486,NA,NA,NA
"experimental",25,2,"ld","upper","recipus","nw","nw","h","h",1,0.572032725787722,NA,NA,NA
"experimental",25,3,"ld","upper","alticles","nw","nw","h","h",1,0.7168183963513,NA,NA,NA
"experimental",25,4,"ld","upper","index","w","w","g","g",1,0.567804393358529,NA,NA,NA
"experimental",25,5,"ld","upper","euphoric","w","w","g","g",1,0.527605654555373,NA,NA,NA
"experimental",25,6,"ld","upper","uncounted","w","w","g","g",1,0.449440668686293,NA,NA,NA
"experimental",25,7,"ld","upper","elbalm","nw","nw","h","g",0,0.590025777230039,NA,NA,NA
"experimental",25,8,"ld","upper","bropic","nw","nw","h","h",1,0.7493757706834,NA,NA,NA
"experimental",25,9,"ld","upper","hanling","nw","nw","h","h",1,0.614746489445679,NA,NA,NA
"experimental",25,10,"ld","upper","incidonts","nw","nw","h","h",1,0.733495678170584,NA,NA,NA
"experimental",25,11,"ld","upper","decency","w","w","g","g",1,0.55142020934727,NA,NA,NA
"experimental",25,12,"ld","upper","country","w","w","g","g",1,0.528200301574543,NA,NA,NA
"experimental",25,13,"ld","upper","previous","w","w","g","g",1,0.466209109639749,NA,NA,NA
"experimental",25,14,"ld","upper","moyeur","nw","nw","h","h",1,0.59080425160937,NA,NA,NA
"experimental",25,15,"ld","upper","gounts","nw","nw","h","h",1,0.629354278906249,NA,NA,NA
"experimental",25,16,"ld","upper","criminal","w","w","g","g",1,0.556277901516296,NA,NA,NA
"experimental",25,17,"ld","upper","helpful","w","w","g","g",1,0.483988752122968,NA,NA,NA
"experimental",25,18,"ld","upper","trophy","w","w","g","g",1,0.535312218940817,NA,NA,NA
"experimental",25,19,"ld","upper","praiged","nw","nw","h","h",1,0.616754403919913,NA,NA,NA
"experimental",25,20,"ld","upper","dricked","nw","nw","h","h",1,0.663343032007106,NA,NA,NA
"experimental",25,21,"ld","upper","gremieres","nw","nw","h","h",1,0.500180053408258,NA,NA,NA
"experimental",25,22,"ld","upper","culer","nw","nw","h","h",1,0.559498352464288,NA,NA,NA
"experimental",25,23,"ld","upper","confined","w","w","g","h",0,0.472159503377043,NA,NA,NA
"experimental",25,24,"ld","upper","image","w","w","g","g",1,0.508201448596083,NA,NA,NA
"experimental",25,25,"ld","upper","cherry","w","w","g","g",1,0.58288940996863,NA,NA,NA
"experimental",25,26,"ld","upper","caterpillar","target","target","q","q",1,0.701990255271085,1,NA,NA
"experimental",25,27,"ld","upper","ucility","aftertar1","nw","h","h",1,0.96065534837544,NA,NA,NA
"experimental",25,28,"ld","upper","ringlat","aftertar2","nw","h","h",1,0.632175380829722,NA,NA,NA
"experimental",25,29,"ld","upper","recollect","aftertar3","w","g","g",1,0.653954552370124,NA,NA,NA
"experimental",25,30,"ld","upper","mixture","w","w","g","g",1,0.531501346966252,NA,NA,NA
"experimental",26,1,"hd","lower","melodic","w","w","g","g",1,0.622176256147213,NA,NA,NA
"experimental",26,2,"hd","lower","swatches","w","w","g","g",1,0.515189003315754,NA,NA,NA
"experimental",26,3,"hd","lower","fuhrek","nw","nw","h","h",1,0.597877230262384,NA,NA,NA
"experimental",26,4,"hd","lower","sullen","w","w","g","g",1,0.53333931916859,NA,NA,NA
"experimental",26,5,"hd","lower","student","w","w","g","g",1,0.511270370334387,NA,NA,NA
"experimental",26,6,"hd","lower","iolize","nw","nw","h","h",1,0.61001014127396,NA,NA,NA
"experimental",26,7,"hd","lower","chight","nw","nw","h","h",1,0.592612944310531,NA,NA,NA
"experimental",26,8,"hd","lower","plashed","nw","nw","h","h",1,0.424006682005711,NA,NA,NA
"experimental",26,9,"hd","lower","batire","nw","nw","h","h",1,0.454039976350032,NA,NA,NA
"experimental",26,10,"hd","lower","shests","nw","nw","h","h",1,0.498696756432764,NA,NA,NA
"experimental",26,11,"hd","lower","greft","nw","nw","h","h",1,0.486084203585051,NA,NA,NA
"experimental",26,12,"hd","lower","typical","w","w","g","g",1,0.512476869858801,NA,NA,NA
"experimental",26,13,"hd","lower","minister","w","w","g","g",1,0.683157755644061,NA,NA,NA
"experimental",26,14,"hd","lower","slending","nw","nw","h","h",1,0.535183026688173,NA,NA,NA
"experimental",26,15,"hd","lower","ronic","nw","nw","h","h",1,0.576505557750352,NA,NA,NA
"experimental",26,16,"hd","lower","sweeping","w","w","g","g",1,0.472559456247836,NA,NA,NA
"experimental",26,17,"hd","lower","undertake","w","w","g","g",1,0.580717891920358,NA,NA,NA
"experimental",26,18,"hd","lower","defeat","w","w","g","g",1,0.436684736632742,NA,NA,NA
"experimental",26,19,"hd","lower","edasion","nw","nw","h","h",1,0.642040181555785,NA,NA,NA
"experimental",26,20,"hd","lower","unmarked","w","w","g","g",1,0.598486667848192,NA,NA,NA
"experimental",26,21,"hd","lower","trewl","nw","nw","h","h",1,0.469554828829132,NA,NA,NA
"experimental",26,22,"hd","lower","paterways","nw","nw","h","h",1,0.53632100590039,NA,NA,NA
"experimental",26,23,"hd","lower","entertain","w","w","g","g",1,0.554186676046811,NA,NA,NA
"experimental",26,24,"hd","lower","misest","nw","nw","h","h",1,0.723455501720309,NA,NA,NA
"experimental",26,25,"hd","lower","venturous","w","w","g","g",1,0.550002112053335,NA,NA,NA
"experimental",26,26,"hd","lower","shimble","nw","nw","h","h",1,0.607242165366188,NA,NA,NA
"experimental",26,27,"hd","lower","butterfly","target","target","q","q",1,0.637805510312319,1,NA,NA
"experimental",26,28,"hd","lower","runabouk","aftertar1","nw","h","h",1,0.843361988198012,NA,NA,NA
"experimental",26,29,"hd","lower","cavern","aftertar2","w","g","g",1,0.624674075166695,NA,NA,NA
"experimental",26,30,"hd","lower","sequence","aftertar3","w","g","h",0,0.510337649961002,NA,NA,NA
"experimental",27,1,"hd","lower","efficient","w","w","g","g",1,0.592554385191761,NA,NA,NA
"experimental",27,2,"hd","lower","reforest","w","w","g","g",1,0.687856070348062,NA,NA,NA
"experimental",27,3,"hd","lower","rantho","nw","nw","h","h",1,0.627286295988597,NA,NA,NA
"experimental",27,4,"hd","lower","subpoena","w","w","g","g",1,0.641296721994877,NA,NA,NA
"experimental",27,5,"hd","lower","volume","w","w","g","g",1,0.477718697860837,NA,NA,NA
"experimental",27,6,"hd","lower","phonology","w","w","g","h",0,0.673653365112841,NA,NA,NA
"experimental",27,7,"hd","lower","failure","w","w","g","g",1,0.46163817611523,NA,NA,NA
"experimental",27,8,"hd","lower","earnest","w","w","g","g",1,0.474365130416118,NA,NA,NA
"experimental",27,9,"hd","lower","walnut","w","w","g","g",1,0.438454490504228,NA,NA,NA
"experimental",27,10,"hd","lower","hutting","nw","nw","h","h",1,0.819827853352763,NA,NA,NA
"experimental",27,11,"hd","lower","aviation","w","w","g","g",1,0.577937540016137,NA,NA,NA
"experimental",27,12,"hd","lower","egect","nw","nw","h","h",1,0.897943335701711,NA,NA,NA
"experimental",27,13,"hd","lower","markot","nw","nw","h","h",1,0.845314663951285,NA,NA,NA
"experimental",27,14,"hd","lower","stuggard","nw","nw","h","h",1,0.504586477996781,NA,NA,NA
"experimental",27,15,"hd","lower","paranoid","w","w","g","h",0,0.428298403276131,NA,NA,NA
"experimental",27,16,"hd","lower","remade","w","w","g","g",1,0.697448299615644,NA,NA,NA
"experimental",27,17,"hd","lower","deficit","w","w","g","g",1,0.453419671976008,NA,NA,NA
"experimental",27,18,"hd","lower","brongs","nw","nw","h","h",1,0.67446987295989,NA,NA,NA
"experimental",27,19,"hd","lower","manage","w","w","g","g",1,0.502447258098982,NA,NA,NA
"experimental",27,20,"hd","lower","saturate","w","w","g","g",1,0.561214075074531,NA,NA,NA
"experimental",27,21,"hd","lower","razelle","nw","nw","h","g",0,0.513923039194196,NA,NA,NA
"experimental",27,22,"hd","lower","turning","w","w","g","g",1,0.540618462138809,NA,NA,NA
"experimental",27,23,"hd","lower","sength","nw","nw","h","h",1,0.685927240992896,NA,NA,NA
"experimental",27,24,"hd","lower","fuack","nw","nw","h","h",1,0.569285275647417,NA,NA,NA
"experimental",27,25,"hd","lower","fassed","nw","nw","h","h",1,0.632413239451125,NA,NA,NA
"experimental",27,26,"hd","lower","plapping","nw","nw","h","h",1,0.502456313697621,NA,NA,NA
"experimental",27,27,"hd","lower","mitro","nw","nw","h","h",1,0.4810454006074,NA,NA,NA
"experimental",27,28,"hd","lower","shurk","nw","nw","h","h",1,0.437172226374969,NA,NA,NA
"experimental",27,29,"hd","lower","rascaps","nw","nw","h","h",1,0.474426406202838,NA,NA,NA
"experimental",27,30,"hd","lower","detrabe","nw","nw","h","h",1,0.494541471940465,NA,NA,NA
"experimental",28,1,"ld","upper","satisfies","w","w","g","h",0,0.561031455057673,NA,NA,NA
"experimental",28,2,"ld","upper","perform","w","w","g","g",1,0.537715558661148,NA,NA,NA
"experimental",28,3,"ld","upper","padicals","nw","nw","h","h",1,0.579095441498794,NA,NA,NA
"experimental",28,4,"ld","upper","troven","nw","nw","h","h",1,0.715184475528076,NA,NA,NA
"experimental",28,5,"ld","upper","undue","w","w","g","g",1,0.533872086671181,NA,NA,NA
"experimental",28,6,"ld","upper","primal","w","w","g","g",1,0.559197406750172,NA,NA,NA
"experimental",28,7,"ld","upper","rearrange","w","w","g","g",1,0.480022728559561,NA,NA,NA
"experimental",28,8,"ld","upper","gairs","nw","nw","h","h",1,0.570802983827889,NA,NA,NA
"experimental",28,9,"ld","upper","realize","w","w","g","g",1,0.474792249966413,NA,NA,NA
"experimental",28,10,"ld","upper","noblest","w","w","g","h",0,0.406175724812783,NA,NA,NA
"experimental",28,11,"ld","upper","pypecast","nw","nw","h","h",1,0.62938114372082,NA,NA,NA
"experimental",28,12,"ld","upper","solidity","w","w","g","g",1,0.627732733963057,NA,NA,NA
"experimental",28,13,"ld","upper","otiates","nw","nw","h","h",1,0.593707456951961,NA,NA,NA
"experimental",28,14,"ld","upper","outlaved","nw","nw","h","h",1,0.633177225012332,NA,NA,NA
"experimental",28,15,"ld","upper","antwers","nw","nw","h","h",1,0.575150245567784,NA,NA,NA
"experimental",28,16,"ld","upper","frader","nw","nw","h","h",1,0.431212173425592,NA,NA,NA
"experimental",28,17,"ld","upper","unspoken","w","w","g","h",0,0.493384476169012,NA,NA,NA
"experimental",28,18,"ld","upper","flacked","nw","nw","h","h",1,0.656607221229933,NA,NA,NA
"experimental",28,19,"ld","upper","smallash","nw","nw","h","h",1,0.589352045324631,NA,NA,NA
"experimental",28,20,"ld","upper","handed","w","w","g","g",1,0.484622639720328,NA,NA,NA
"experimental",28,21,"ld","upper","lawsuit","w","w","g","g",1,0.551105982158333,NA,NA,NA
"experimental",28,22,"ld","upper","chiffol","nw","nw","h","h",1,0.551702742115594,NA,NA,NA
"experimental",28,23,"ld","upper","footstep","w","w","g","g",1,0.536423635319807,NA,NA,NA
"experimental",28,24,"ld","upper","splum","nw","nw","h","h",1,0.553785515716299,NA,NA,NA
"experimental",28,25,"ld","upper","traze","nw","nw","h","g",0,0.970512301078998,NA,NA,NA
"experimental",28,26,"ld","upper","glattery","nw","nw","h","h",1,0.754504223586991,NA,NA,NA
"experimental",28,27,"ld","upper","forbid","w","w","g","g",1,0.603126121684909,NA,NA,NA
"experimental",28,28,"ld","upper","parent","w","w","g","g",1,0.553830491495319,NA,NA,NA
"experimental",28,29,"ld","upper","causality","w","w","g","g",1,0.593613883014768,NA,NA,NA
"experimental",28,30,"ld","upper","theles","nw","nw","h","h",1,0.536993832327425,NA,NA,NA
"experimental",29,1,"hd","lower","despise","w","w","g","g",1,0.553139553987421,NA,NA,NA
"experimental",29,2,"hd","lower","digested","w","w","g","g",1,0.473804894485511,NA,NA,NA
"experimental",29,3,"hd","lower","volition","w","w","g","g",1,0.462021225364879,NA,NA,NA
"experimental",29,4,"hd","lower","cobalt","w","w","g","g",1,0.53926677221898,NA,NA,NA
"experimental",29,5,"hd","lower","ipiocy","nw","nw","h","h",1,0.509218083578162,NA,NA,NA
"experimental",29,6,"hd","lower","opert","nw","nw","h","h",1,0.662820527446456,NA,NA,NA
"experimental",29,7,"hd","lower","elderly","w","w","g","g",1,0.563515087240376,NA,NA,NA
"experimental",29,8,"hd","lower","facienda","nw","nw","h","h",1,0.604210371384397,NA,NA,NA
"experimental",29,9,"hd","lower","upstairs","w","w","g","g",1,0.498893865267746,NA,NA,NA
"experimental",29,10,"hd","lower","enabled","w","w","g","g",1,0.478242711629719,NA,NA,NA
"experimental",29,11,"hd","lower","ragtam","nw","nw","h","h",1,0.562301645171829,NA,NA,NA
"experimental",29,12,"hd","lower","warden","w","w","g","h",0,0.667102891136892,NA,NA,NA
"experimental",29,13,"hd","lower","affluent","w","w","g","g",1,0.527013120590709,NA,NA,NA
"experimental",29,14,"hd","lower","gablus","nw","nw","h","h",1,0.512122496496886,NA,NA,NA
"experimental",29,15,"hd","lower","usage","w","w","g","g",1,0.563735438510776,NA,NA,NA
"experimental",29,16,"hd","lower","poars","nw","nw","h","h",1,0.555431510671042,NA,NA,NA
"experimental",29,17,"hd","lower","plymie","nw","nw","h","h",1,0.604135210276581,NA,NA,NA
"experimental",29,18,"hd","lower","prawls","nw","nw","h","h",1,0.618832046049647,NA,NA,NA
"experimental",29,19,"hd","lower","dests","nw","nw","h","h",1,0.752946369233541,NA,NA,NA
"experimental",29,20,"hd","lower","egpended","nw","nw","h","h",1,0.633575668791309,NA,NA,NA
"experimental",29,21,"hd","lower","rocket","w","w","g","g",1,0.527597806416452,NA,NA,NA
"experimental",29,22,"hd","lower","afford","w","w","g","g",1,0.55373238993343,NA,NA,NA
"experimental",29,23,"hd","lower","mustled","nw","nw","h","g",0,0.482403429341502,NA,NA,NA
"experimental",29,24,"hd","lower","octopus","target","target","q","g",0,0.525629434501752,1,1,NA
"experimental",29,25,"hd","lower","thesis","aftertar1","w","g","g",1,0.704454267164692,NA,NA,NA
"experimental",29,26,"hd","lower","nomma","aftertar2","nw","h","h",1,0.618107301183045,NA,NA,NA
"experimental",29,27,"hd","lower","clooped","aftertar3","nw","h","h",1,0.960176612366922,NA,NA,NA
"experimental",29,28,"hd","lower","sorping","nw","nw","h","h",1,0.664896056638099,NA,NA,NA
"experimental",29,29,"hd","lower","female","nw","w","g","g",1,0.628568560117856,NA,NA,NA
"experimental",29,30,"hd","lower","parody","w","w","g","g",1,0.506429279921576,NA,NA,NA
"experimental",30,1,"hd","lower","sazer","nw","nw","h","h",1,0.813552063889802,NA,NA,NA
"experimental",30,2,"hd","lower","pester","w","w","g","h",0,0.596173883532174,NA,NA,NA
"experimental",30,3,"hd","lower","arrested","w","w","g","g",1,0.595597649575211,NA,NA,NA
"experimental",30,4,"hd","lower","disease","w","w","g","g",1,0.554804263752885,NA,NA,NA
"experimental",30,5,"hd","lower","unamufed","nw","nw","h","h",1,0.491638568462804,NA,NA,NA
"experimental",30,6,"hd","lower","sonkers","nw","nw","h","h",1,0.638930811779574,NA,NA,NA
"experimental",30,7,"hd","lower","disperse","w","w","g","g",1,0.548283069161698,NA,NA,NA
"experimental",30,8,"hd","lower","compose","w","w","g","g",1,0.501624109689146,NA,NA,NA
"experimental",30,9,"hd","lower","stalemate","w","w","g","g",1,0.552341157454066,NA,NA,NA
"experimental",30,10,"hd","lower","gigoho","nw","nw","h","h",1,0.576058214064687,NA,NA,NA
"experimental",30,11,"hd","lower","humanize","w","w","g","g",1,0.504120117751881,NA,NA,NA
"experimental",30,12,"hd","lower","aggepting","nw","nw","h","h",1,0.650829184567556,NA,NA,NA
"experimental",30,13,"hd","lower","rumblos","nw","nw","h","h",1,0.48418887949083,NA,NA,NA
"experimental",30,14,"hd","lower","ethical","w","w","g","g",1,0.503538752323948,NA,NA,NA
"experimental",30,15,"hd","lower","tusied","nw","nw","h","h",1,0.49018334352877,NA,NA,NA
"experimental",30,16,"hd","lower","gunrunker","nw","nw","h","h",1,0.629581874818541,NA,NA,NA
"experimental",30,17,"hd","lower","churnad","nw","nw","h","h",1,0.55558907694649,NA,NA,NA
"experimental",30,18,"hd","lower","legalosm","nw","nw","h","h",1,0.588385819457471,NA,NA,NA
"experimental",30,19,"hd","lower","laser","w","w","g","h",0,0.451723871636204,NA,NA,NA
"experimental",30,20,"hd","lower","delegate","w","w","g","g",1,0.607536772149615,NA,NA,NA
"experimental",30,21,"hd","lower","abraid","nw","nw","h","h",1,0.630136073683389,NA,NA,NA
"experimental",30,22,"hd","lower","squirrel","target","target","q","g",0,0.484156279591843,1,1,NA
"experimental",30,23,"hd","lower","eugenifs","aftertar1","nw","h","h",1,0.598980194656178,NA,NA,NA
"experimental",30,24,"hd","lower","addition","aftertar2","w","g","g",1,0.566370298154652,NA,NA,NA
"experimental",30,25,"hd","lower","migmarole","aftertar3","nw","h","h",1,0.599624647060409,NA,NA,NA
"experimental",30,26,"hd","lower","punctual","nw","w","g","g",1,0.559619998559356,NA,NA,NA
"experimental",30,27,"hd","lower","rainfall","w","w","g","g",1,0.688323637936264,NA,NA,NA
"experimental",30,28,"hd","lower","blueberry","w","w","g","g",1,0.706461578025483,NA,NA,NA
"experimental",30,29,"hd","lower","ready","w","w","g","g",1,0.565368151990697,NA,NA,NA
"experimental",30,30,"hd","lower","lecked","w","nw","h","h",1,0.693920865887776,NA,NA,NA
"experimental",31,1,"ld","upper","artifact","w","w","g","g",1,0.649510094546713,NA,NA,NA
"experimental",31,2,"ld","upper","golemic","nw","nw","h","h",1,0.590834738570265,NA,NA,NA
"experimental",31,3,"ld","upper","adok","nw","nw","h","h",1,0.462189960060641,NA,NA,NA
"experimental",31,4,"ld","upper","ifkling","nw","nw","h","h",1,0.522925450932235,NA,NA,NA
"experimental",31,5,"ld","upper","culinary","w","w","g","g",1,0.587949040578678,NA,NA,NA
"experimental",31,6,"ld","upper","serving","w","w","g","g",1,0.467321733362041,NA,NA,NA
"experimental",31,7,"ld","upper","harfing","nw","nw","h","g",0,0.471326695755124,NA,NA,NA
"experimental",31,8,"ld","upper","unwose","nw","nw","h","h",1,0.643422962166369,NA,NA,NA
"experimental",31,9,"ld","upper","brouhuha","nw","nw","h","h",1,0.464710418134928,NA,NA,NA
"experimental",31,10,"ld","upper","populace","w","w","g","h",0,0.517632187344134,NA,NA,NA
"experimental",31,11,"ld","upper","rapport","w","w","g","h",0,0.575504619046114,NA,NA,NA
"experimental",31,12,"ld","upper","goblet","w","w","g","g",1,0.543523780419491,NA,NA,NA
"experimental",31,13,"ld","upper","omission","w","w","g","g",1,0.584940791013651,NA,NA,NA
"experimental",31,14,"ld","upper","pressing","w","w","g","g",1,0.544336665887386,NA,NA,NA
"experimental",31,15,"ld","upper","athcan","nw","nw","h","h",1,0.544611954246648,NA,NA,NA
"experimental",31,16,"ld","upper","medium","w","w","g","g",1,0.400810922496021,NA,NA,NA
"experimental",31,17,"ld","upper","miurnal","nw","nw","h","h",1,0.559540007961914,NA,NA,NA
"experimental",31,18,"ld","upper","dingly","nw","nw","h","h",1,0.448523040977307,NA,NA,NA
"experimental",31,19,"ld","upper","mestowal","nw","nw","h","h",1,0.43833042960614,NA,NA,NA
"experimental",31,20,"ld","upper","scrib","nw","nw","h","h",1,0.396247535245493,NA,NA,NA
"experimental",31,21,"ld","upper","mebase","nw","nw","h","h",1,0.507452555582859,NA,NA,NA
"experimental",31,22,"ld","upper","violate","w","w","g","g",1,0.534151299041696,NA,NA,NA
"experimental",31,23,"ld","upper","slowning","nw","nw","h","h",1,0.431475689518265,NA,NA,NA
"experimental",31,24,"ld","upper","grummer","nw","nw","h","g",0,0.484656145214103,NA,NA,NA
"experimental",31,25,"ld","upper","tablet","w","w","g","g",1,0.58395524660591,NA,NA,NA
"experimental",31,26,"ld","upper","blanned","nw","nw","h","g",0,0.583306870190427,NA,NA,NA
"experimental",31,27,"ld","upper","obviously","w","w","g","g",1,0.607348115066998,NA,NA,NA
"experimental",31,28,"ld","upper","trembles","w","w","g","g",1,0.726077079889365,NA,NA,NA
"experimental",31,29,"ld","upper","painter","w","w","g","g",1,0.488040803465992,NA,NA,NA
"experimental",31,30,"ld","upper","tragedy","w","w","g","g",1,0.451390326023102,NA,NA,NA
"experimental",32,1,"ld","upper","attract","w","w","g","g",1,0.567290642648004,NA,NA,NA
"experimental",32,2,"ld","upper","protest","w","w","g","g",1,0.447304165572859,NA,NA,NA
"experimental",32,3,"ld","upper","prominent","w","w","g","g",1,0.564611712703481,NA,NA,NA
"experimental",32,4,"ld","upper","lovud","nw","nw","h","h",1,0.52535716467537,NA,NA,NA
"experimental",32,5,"ld","upper","glassware","w","w","g","g",1,0.447452676366083,NA,NA,NA
"experimental",32,6,"ld","upper","hostade","nw","nw","h","g",0,0.468686704756692,NA,NA,NA
"experimental",32,7,"ld","upper","crundle","nw","nw","h","g",0,0.536844717804343,NA,NA,NA
"experimental",32,8,"ld","upper","monopoly","w","w","g","g",1,0.610206344630569,NA,NA,NA
"experimental",32,9,"ld","upper","downtrund","nw","nw","h","h",1,0.512042807647958,NA,NA,NA
"experimental",32,10,"ld","upper","halents","nw","nw","h","h",1,0.61156256229151,NA,NA,NA
"experimental",32,11,"ld","upper","ofsters","nw","nw","h","h",1,0.560049231047742,NA,NA,NA
"experimental",32,12,"ld","upper","oginous","nw","nw","h","h",1,0.584746700595133,NA,NA,NA
"experimental",32,13,"ld","upper","absent","w","w","g","g",1,0.536678397795185,NA,NA,NA
"experimental",32,14,"ld","upper","omners","nw","nw","h","h",1,0.714600091567263,NA,NA,NA
"experimental",32,15,"ld","upper","sengry","nw","nw","h","h",1,0.621389329899102,NA,NA,NA
"experimental",32,16,"ld","upper","aefated","nw","nw","h","h",1,0.451499294256791,NA,NA,NA
"experimental",32,17,"ld","upper","explosion","w","w","g","g",1,0.568138240952976,NA,NA,NA
"experimental",32,18,"ld","upper","puggers","nw","nw","h","h",1,0.527317386702634,NA,NA,NA
"experimental",32,19,"ld","upper","unlined","w","w","g","h",0,0.49013051961083,NA,NA,NA
"experimental",32,20,"ld","upper","brother","w","w","g","g",1,0.532581370673142,NA,NA,NA
"experimental",32,21,"ld","upper","eightiech","nw","nw","h","h",1,0.494443068397231,NA,NA,NA
"experimental",32,22,"ld","upper","outflow","w","w","g","g",1,0.609889400890097,NA,NA,NA
"experimental",32,23,"ld","upper","elormity","nw","nw","h","h",1,0.528551052790135,NA,NA,NA
"experimental",32,24,"ld","upper","deadly","w","w","g","g",1,0.47446172288619,NA,NA,NA
"experimental",32,25,"ld","upper","carnival","w","w","g","h",0,0.510611429112032,NA,NA,NA
"experimental",32,26,"ld","upper","forgery","w","w","g","g",1,0.753296516719274,NA,NA,NA
"experimental",32,27,"ld","upper","suburb","w","w","g","g",1,0.52191726770252,NA,NA,NA
"experimental",32,28,"ld","upper","yearnungs","nw","nw","h","h",1,0.499940987210721,NA,NA,NA
"experimental",32,29,"ld","upper","stranded","w","w","g","g",1,0.518437224556692,NA,NA,NA
"experimental",32,30,"ld","upper","browting","nw","nw","h","h",1,0.593446053797379,NA,NA,NA
"experimental",33,1,"hd","lower","preserve","w","w","g","g",1,0.511900635785423,NA,NA,NA
"experimental",33,2,"hd","lower","derived","w","w","g","g",1,0.435511440853588,NA,NA,NA
"experimental",33,3,"hd","lower","walsams","nw","nw","h","h",1,0.575906986603513,NA,NA,NA
"experimental",33,4,"hd","lower","fragment","w","w","g","g",1,0.438701103092171,NA,NA,NA
"experimental",33,5,"hd","lower","mitten","w","w","g","h",0,0.476026821648702,NA,NA,NA
"experimental",33,6,"hd","lower","hodels","nw","nw","h","h",1,0.614641445106827,NA,NA,NA
"experimental",33,7,"hd","lower","snays","nw","nw","h","h",1,0.637268516933545,NA,NA,NA
"experimental",33,8,"hd","lower","ifling","nw","nw","h","h",1,0.514384871465154,NA,NA,NA
"experimental",33,9,"hd","lower","plogging","nw","nw","h","h",1,0.604375785798766,NA,NA,NA
"experimental",33,10,"hd","lower","sputter","w","w","g","g",1,0.690382565371692,NA,NA,NA
"experimental",33,11,"hd","lower","itfidels","nw","nw","h","h",1,0.50107202376239,NA,NA,NA
"experimental",33,12,"hd","lower","tiery","nw","nw","h","h",1,0.559795676032081,NA,NA,NA
"experimental",33,13,"hd","lower","column","w","w","g","g",1,0.495749480673112,NA,NA,NA
"experimental",33,14,"hd","lower","ahead","w","w","g","g",1,0.481532588484697,NA,NA,NA
"experimental",33,15,"hd","lower","naxis","nw","nw","h","h",1,0.589549154159613,NA,NA,NA
"experimental",33,16,"hd","lower","actual","w","w","g","g",1,0.524783345405012,NA,NA,NA
"experimental",33,17,"hd","lower","sustain","w","w","g","g",1,0.502888866583817,NA,NA,NA
"experimental",33,18,"hd","lower","loached","nw","nw","h","h",1,0.601458695251495,NA,NA,NA
"experimental",33,19,"hd","lower","leather","w","w","g","g",1,0.440285822027363,NA,NA,NA
"experimental",33,20,"hd","lower","pillage","w","w","g","g",1,0.469530378933996,NA,NA,NA
"experimental",33,21,"hd","lower","squadroim","nw","nw","h","h",1,0.561613122466952,NA,NA,NA
"experimental",33,22,"hd","lower","tining","nw","nw","h","g",0,0.474325889837928,NA,NA,NA
"experimental",33,23,"hd","lower","dolphin","target","target","q","g",0,0.630370914004743,1,1,NA
"experimental",33,24,"hd","lower","repayment","aftertar1","w","g","g",1,0.635614975821227,NA,NA,NA
"experimental",33,25,"hd","lower","destroy","aftertar2","w","g","g",1,0.496701821452007,NA,NA,NA
"experimental",33,26,"hd","lower","treenery","aftertar3","nw","h","g",0,0.452135294908658,NA,NA,NA
"experimental",33,27,"hd","lower","itself","nw","w","g","g",1,0.47277769469656,NA,NA,NA
"experimental",33,28,"hd","lower","retreat","w","w","g","g",1,0.500798848457634,NA,NA,NA
"experimental",33,29,"hd","lower","havel","w","nw","h","h",1,0.543549136025831,NA,NA,NA
"experimental",33,30,"hd","lower","lonnote","nw","nw","h","h",1,0.568890454247594,NA,NA,NA
"experimental",34,1,"ld","upper","jiggling","w","w","g","g",1,0.768471182789654,NA,NA,NA
"experimental",34,2,"ld","upper","atch","nw","nw","h","h",1,0.688796638976783,NA,NA,NA
"experimental",34,3,"ld","upper","pariah","w","w","g","h",0,0.44344499730505,NA,NA,NA
"experimental",34,4,"ld","upper","couple","w","w","g","h",0,0.448142406530678,NA,NA,NA
"experimental",34,5,"ld","upper","yash","nw","nw","h","h",1,0.708839260274544,NA,NA,NA
"experimental",34,6,"ld","upper","foster","w","w","g","g",1,0.518919884809293,NA,NA,NA
"experimental",34,7,"ld","upper","gelfry","nw","nw","h","h",1,0.520925082731992,NA,NA,NA
"experimental",34,8,"ld","upper","coverall","w","w","g","h",0,0.482347285025753,NA,NA,NA
"experimental",34,9,"ld","upper","peahem","nw","nw","h","h",1,0.485647122957744,NA,NA,NA
"experimental",34,10,"ld","upper","gepealed","nw","nw","h","h",1,0.481030006078072,NA,NA,NA
"experimental",34,11,"ld","upper","bloodless","w","w","g","g",1,0.595436762785539,NA,NA,NA
"experimental",34,12,"ld","upper","leuter","nw","nw","h","h",1,0.45005644520279,NA,NA,NA
"experimental",34,13,"ld","upper","saucer","w","w","g","g",1,0.518748131464235,NA,NA,NA
"experimental",34,14,"ld","upper","midday","w","w","g","g",1,0.560881736804731,NA,NA,NA
"experimental",34,15,"ld","upper","huzzles","nw","nw","h","h",1,0.624874806264415,NA,NA,NA
"experimental",34,16,"ld","upper","rarely","w","w","g","g",1,0.462255763704889,NA,NA,NA
"experimental",34,17,"ld","upper","encounter","w","w","g","g",1,0.538332844502293,NA,NA,NA
"experimental",34,18,"ld","upper","clarms","nw","nw","h","g",0,0.602975195972249,NA,NA,NA
"experimental",34,19,"ld","upper","servant","w","w","g","h",0,0.512127325986512,NA,NA,NA
"experimental",34,20,"ld","upper","scrooner","nw","nw","h","g",0,0.843002181500196,NA,NA,NA
"experimental",34,21,"ld","upper","presence","w","w","g","g",1,0.462823545909487,NA,NA,NA
"experimental",34,22,"ld","upper","iflaid","nw","nw","h","h",1,0.594788990099914,NA,NA,NA
"experimental",34,23,"ld","upper","fashing","nw","nw","h","h",1,0.585558076854795,NA,NA,NA
"experimental",34,24,"ld","upper","snocks","nw","nw","h","h",1,0.968971954192966,NA,NA,NA
"experimental",34,25,"ld","upper","halms","nw","nw","h","h",1,0.552940332214348,NA,NA,NA
"experimental",34,26,"ld","upper","aligning","w","w","g","g",1,0.647893982939422,NA,NA,NA
"experimental",34,27,"ld","upper","intercede","w","w","g","g",1,0.524475759011693,NA,NA,NA
"experimental",34,28,"ld","upper","mineluyer","nw","nw","h","h",1,0.502363645355217,NA,NA,NA
"experimental",34,29,"ld","upper","bloves","nw","nw","h","h",1,0.632956873625517,NA,NA,NA
"experimental",34,30,"ld","upper","planar","w","w","g","h",0,0.541517073404975,NA,NA,NA
"experimental",35,1,"ld","upper","anonymous","w","w","g","g",1,0.518942825496197,NA,NA,NA
"experimental",35,2,"ld","upper","phraining","nw","nw","h","h",1,0.488690085476264,NA,NA,NA
"experimental",35,3,"ld","upper","arrigns","nw","nw","h","g",0,0.459629657911137,NA,NA,NA
"experimental",35,4,"ld","upper","brials","nw","nw","h","g",0,0.438766302890144,NA,NA,NA
"experimental",35,5,"ld","upper","chone","nw","nw","h","h",1,0.684406816144474,NA,NA,NA
"experimental",35,6,"ld","upper","rational","w","w","g","h",0,0.406649933196604,NA,NA,NA
"experimental",35,7,"ld","upper","olerates","nw","nw","h","h",1,0.700731535558589,NA,NA,NA
"experimental",35,8,"ld","upper","befin","nw","nw","h","h",1,0.62344282399863,NA,NA,NA
"experimental",35,9,"ld","upper","entropy","w","w","g","g",1,0.532859979430214,NA,NA,NA
"experimental",35,10,"ld","upper","attended","w","w","g","g",1,0.46222165459767,NA,NA,NA
"experimental",35,11,"ld","upper","bedding","w","w","g","g",1,0.586201623664238,NA,NA,NA
"experimental",35,12,"ld","upper","crocodile","target","target","q","g",0,0.480971446959302,1,1,NA
"experimental",35,13,"ld","upper","bingu","aftertar1","nw","h","h",1,0.780333333415911,NA,NA,NA
"experimental",35,14,"ld","upper","bentler","aftertar2","nw","h","h",1,0.787672846694477,NA,NA,NA
"experimental",35,15,"ld","upper","talent","aftertar3","w","g","g",1,0.537564934929833,NA,NA,NA
"experimental",35,16,"ld","upper","wrestle","w","w","g","g",1,0.562022130819969,NA,NA,NA
"experimental",35,17,"ld","upper","profats","w","nw","h","h",1,0.570078842691146,NA,NA,NA
"experimental",35,18,"ld","upper","outfit","nw","w","g","g",1,0.59344001673162,NA,NA,NA
"experimental",35,19,"ld","upper","geborn","w","nw","h","h",1,0.486975872074254,NA,NA,NA
"experimental",35,20,"ld","upper","handle","nw","w","g","g",1,0.441690939594992,NA,NA,NA
"experimental",35,21,"ld","upper","distrust","w","w","g","g",1,0.582566127181053,NA,NA,NA
"experimental",35,22,"ld","upper","clattest","w","nw","h","h",1,0.558550841524266,NA,NA,NA
"experimental",35,23,"ld","upper","exclusion","nw","w","g","g",1,0.575033731060103,NA,NA,NA
"experimental",35,24,"ld","upper","porghum","w","nw","h","h",1,0.614396945689805,NA,NA,NA
"experimental",35,25,"ld","upper","desert","nw","w","g","g",1,0.483459305018187,NA,NA,NA
"experimental",35,26,"ld","upper","forecast","w","w","g","g",1,0.49473465688061,NA,NA,NA
"experimental",35,27,"ld","upper","ephically","w","nw","h","h",1,0.64944217808079,NA,NA,NA
"experimental",35,28,"ld","upper","aqueduct","nw","w","g","h",0,0.581940691452473,NA,NA,NA
"experimental",35,29,"ld","upper","entitle","w","w","g","g",1,0.541532165836543,NA,NA,NA
"experimental",35,30,"ld","upper","buaint","w","nw","h","h",1,0.622145769069903,NA,NA,NA
"experimental",36,1,"hd","lower","dishwater","w","w","g","g",1,0.603336511878297,NA,NA,NA
"experimental",36,2,"hd","lower","chonemic","nw","nw","h","h",1,0.521324130007997,NA,NA,NA
"experimental",36,3,"hd","lower","airbis","nw","nw","h","h",1,0.562616777839139,NA,NA,NA
"experimental",36,4,"hd","lower","ergonomic","w","w","g","h",0,0.562669903622009,NA,NA,NA
"experimental",36,5,"hd","lower","gestalion","nw","nw","h","h",1,0.746773511171341,NA,NA,NA
"experimental",36,6,"hd","lower","inversion","w","w","g","g",1,0.483631662209518,NA,NA,NA
"experimental",36,7,"hd","lower","terming","w","w","g","h",0,0.758731650304981,NA,NA,NA
"experimental",36,8,"hd","lower","elpired","nw","nw","h","h",1,0.629885537200607,NA,NA,NA
"experimental",36,9,"hd","lower","impirt","nw","nw","h","h",1,0.515156705165282,NA,NA,NA
"experimental",36,10,"hd","lower","stooping","w","w","g","h",0,0.485116468393244,NA,NA,NA
"experimental",36,11,"hd","lower","igiom","nw","nw","h","h",1,0.528554976801388,NA,NA,NA
"experimental",36,12,"hd","lower","greakable","nw","nw","h","h",1,0.577888036379591,NA,NA,NA
"experimental",36,13,"hd","lower","extend","w","w","g","g",1,0.495964096975513,NA,NA,NA
"experimental",36,14,"hd","lower","envelop","w","w","g","g",1,0.474751198198646,NA,NA,NA
"experimental",36,15,"hd","lower","rudder","w","w","g","g",1,0.446791622205637,NA,NA,NA
"experimental",36,16,"hd","lower","plartly","nw","nw","h","h",1,0.548019553069025,NA,NA,NA
"experimental",36,17,"hd","lower","outrank","w","w","g","g",1,0.564701060764492,NA,NA,NA
"experimental",36,18,"hd","lower","menarthe","nw","nw","h","h",1,0.595890445169061,NA,NA,NA
"experimental",36,19,"hd","lower","hubris","w","w","g","g",1,0.81839164509438,NA,NA,NA
"experimental",36,20,"hd","lower","arpired","nw","nw","h","h",1,0.712579801096581,NA,NA,NA
"experimental",36,21,"hd","lower","bailmenz","nw","nw","h","h",1,0.570640285965055,NA,NA,NA
"experimental",36,22,"hd","lower","handbook","w","w","g","g",1,0.601917207357474,NA,NA,NA
"experimental",36,23,"hd","lower","porcupine","target","target","q","q",1,0.744632178219035,1,NA,NA
"experimental",36,24,"hd","lower","lanthers","aftertar1","nw","h","h",1,0.673351815785281,NA,NA,NA
"experimental",36,25,"hd","lower","ecistle","aftertar2","nw","h","h",1,0.972609261749312,NA,NA,NA
"experimental",36,26,"hd","lower","endgume","aftertar3","nw","h","h",1,0.684004146489315,NA,NA,NA
"experimental",36,27,"hd","lower","disuse","nw","w","g","g",1,0.798602578812279,NA,NA,NA
"experimental",36,28,"hd","lower","posing","w","w","g","g",1,0.613088118494488,NA,NA,NA
"experimental",36,29,"hd","lower","cervical","w","w","g","g",1,0.65114763751626,NA,NA,NA
"experimental",36,30,"hd","lower","coupling","w","w","g","g",1,0.471913494635373,NA,NA,NA
"experimental",37,1,"hd","lower","baladroit","nw","nw","h","h",1,0.71591676666867,NA,NA,NA
"experimental",37,2,"hd","lower","cutout","w","w","g","g",1,0.549035584437661,NA,NA,NA
"experimental",37,3,"hd","lower","movie","w","w","g","g",1,0.534604679676704,NA,NA,NA
"experimental",37,4,"hd","lower","newstrint","nw","nw","h","h",1,0.687092688516714,NA,NA,NA
"experimental",37,5,"hd","lower","vibrate","w","w","g","g",1,0.528510604635812,NA,NA,NA
"experimental",37,6,"hd","lower","chraps","nw","nw","h","h",1,0.521822788286954,NA,NA,NA
