"procedure","block","trial","PMdemand","context","stim","role","word_type","correct_key","response","correct","reaction_time","pressedQ","pressedQ_blank","pressedQ_fix"
"LDTpractice",1,1,NA,"lower","julled","","nw","h","h",1,1.04465665365569,NA,NA,NA
"LDTpractice",2,1,NA,"lower","lumbigo","","nw","h","h",1,0.903654386871494,NA,NA,NA
"LDTpractice",3,1,NA,"lower","sponsor","","w","g","g",1,0.53555100876838,NA,NA,NA
"LDTpractice",4,1,NA,"lower","curlecs","","nw","h","h",1,0.611397776985541,NA,NA,NA
"LDTpractice",5,1,NA,"lower","slumber","","w","g","g",1,0.641311236191541,NA,NA,NA
"LDTpractice",6,1,NA,"lower","treeps","","nw","h","h",1,0.54199191078078,NA,NA,NA
"LDTpractice",7,1,NA,"lower","unscrew","","w","g","g",1,0.582184310769662,NA,NA,NA
"LDTpractice",8,1,NA,"lower","hasking","","nw","h","h",1,0.732803558697924,NA,NA,NA
"LDTpractice",9,1,NA,"lower","grutch","","nw","h","h",1,0.694911265280098,NA,NA,NA
"LDTpractice",10,1,NA,"lower","reputable","","w","g","g",1,0.616725753527135,NA,NA,NA
"LDTpractice",11,1,NA,"lower","umpire","","w","g","h",0,0.66945796017535,NA,NA,NA
"LDTpractice",12,1,NA,"lower","tricycle","","w","g","g",1,0.704748295713216,NA,NA,NA
"LDTpractice",13,1,NA,"lower","raestro","","nw","h","h",1,0.588083993527107,NA,NA,NA
"LDTpractice",14,1,NA,"lower","revival","","w","g","g",1,0.618276665220037,NA,NA,NA
"LDTpractice",1,2,NA,"upper","alolition","","nw","h","g",0,0.511982160969637,NA,NA,NA
"LDTpractice",2,2,NA,"upper","crinklo","","nw","h","h",1,0.546016795444302,NA,NA,NA
"LDTpractice",3,2,NA,"upper","summary","","w","g","g",1,0.554758106009103,NA,NA,NA
"LDTpractice",4,2,NA,"upper","latador","","nw","h","h",1,0.490785864181817,NA,NA,NA
"LDTpractice",5,2,NA,"upper","hiring","","w","g","g",1,0.532630899688229,NA,NA,NA
"LDTpractice",6,2,NA,"upper","trotch","","nw","h","h",1,0.557973123621196,NA,NA,NA
"LDTpractice",7,2,NA,"upper","busted","","w","g","g",1,0.525970551883802,NA,NA,NA
"LDTpractice",8,2,NA,"upper","turative","","nw","h","h",1,0.607370477635413,NA,NA,NA
"LDTpractice",9,2,NA,"upper","lurshing","","nw","h","h",1,0.701454494846985,NA,NA,NA
"LDTpractice",10,2,NA,"upper","overshoot","","w","g","g",1,0.495500478893519,NA,NA,NA
"LDTpractice",11,2,NA,"upper","picture","","w","g","g",1,0.504102635895833,NA,NA,NA
"LDTpractice",12,2,NA,"upper","grimace","","w","g","g",1,0.610580062028021,NA,NA,NA
"LDTpractice",13,2,NA,"upper","grocus","","nw","h","h",1,0.593276740633883,NA,NA,NA
"LDTpractice",14,2,NA,"upper","infinity","","w","g","g",1,0.557532722596079,NA,NA,NA
"experimental",1,1,"ld","upper","wimpid","nw","nw","h","h",1,0.906585966120474,NA,NA,NA
"experimental",1,2,"ld","upper","mopping","w","w","g","h",0,0.637290879385546,NA,NA,NA
"experimental",1,3,"ld","upper","deceit","w","w","g","g",1,0.993748232373036,NA,NA,NA
"experimental",1,4,"ld","upper","eightiech","nw","nw","h","h",1,0.793072085594758,NA,NA,NA
"experimental",1,5,"ld","upper","happen","w","w","g","g",1,0.768457323196344,NA,NA,NA
"experimental",1,6,"ld","upper","demise","w","w","g","g",1,0.688529525999911,NA,NA,NA
"experimental",1,7,"ld","upper","passet","nw","nw","h","g",0,0.579813269316219,NA,NA,NA
"experimental",1,8,"ld","upper","esdings","nw","nw","h","h",1,0.64378822769504,NA,NA,NA
"experimental",1,9,"ld","upper","twarfs","nw","nw","h","h",1,0.816025760374032,NA,NA,NA
"experimental",1,10,"ld","upper","expired","w","w","g","g",1,0.669861233443953,NA,NA,NA
"experimental",1,11,"ld","upper","whirlpool","w","w","g","h",0,0.523256607237272,NA,NA,NA
"experimental",1,12,"ld","upper","horks","nw","nw","h","h",1,0.756999955163337,NA,NA,NA
"experimental",1,13,"ld","upper","frose","nw","nw","h","h",1,0.68551222095266,NA,NA,NA
"experimental",1,14,"ld","upper","thorifies","nw","nw","h","h",1,0.760746532934718,NA,NA,NA
"experimental",1,15,"ld","upper","recipus","nw","nw","h","h",1,0.737602993613109,NA,NA,NA
"experimental",1,16,"ld","upper","tycoon","w","w","g","g",1,0.890978747163899,NA,NA,NA
"experimental",1,17,"ld","upper","pallir","nw","nw","h","h",1,0.622318755486049,NA,NA,NA
"experimental",1,18,"ld","upper","pegend","nw","nw","h","h",1,0.604388187173754,NA,NA,NA
"experimental",1,19,"ld","upper","arcients","nw","nw","h","h",1,0.851154001895338,NA,NA,NA
"experimental",1,20,"ld","upper","tracing","w","w","g","g",1,0.639828241080977,NA,NA,NA
"experimental",1,21,"ld","upper","crimb","nw","nw","h","h",1,0.668209503404796,NA,NA,NA
"experimental",1,22,"ld","upper","deadly","w","w","g","g",1,0.520332876010798,NA,NA,NA
"experimental",1,23,"ld","upper","doads","nw","nw","h","h",1,0.826169773703441,NA,NA,NA
"experimental",1,24,"ld","upper","deficit","w","w","g","g",1,0.84021702548489,NA,NA,NA
"experimental",1,25,"ld","upper","finish","w","w","g","h",0,0.669628807925619,NA,NA,NA
"experimental",1,26,"ld","upper","coyote","target","target","q","q",1,0.841715113259852,1,NA,NA
"experimental",1,27,"ld","upper","outset","aftertar1","w","g","g",1,0.871071656933054,NA,NA,NA
"experimental",1,28,"ld","upper","acidic","aftertar2","w","g","g",1,0.547039467492141,NA,NA,NA
"experimental",1,29,"ld","upper","fuack","aftertar3","nw","h","h",1,0.643633981700987,NA,NA,NA
"experimental",1,30,"ld","upper","anterior","nw","w","g","g",1,0.744933451293036,NA,NA,NA
"experimental",2,1,"ld","upper","leuter","nw","nw","h","h",1,0.593970696791075,NA,NA,NA
"experimental",2,2,"ld","upper","unlined","w","w","g","g",1,0.737379925558344,NA,NA,NA
"experimental",2,3,"ld","upper","gallon","w","w","g","g",1,0.659356809803285,NA,NA,NA
"experimental",2,4,"ld","upper","recount","w","w","g","g",1,0.632624560967088,NA,NA,NA
"experimental",2,5,"ld","upper","booster","w","w","g","g",1,0.637600276968442,NA,NA,NA
"experimental",2,6,"ld","upper","vopings","nw","nw","h","h",1,0.675000854651444,NA,NA,NA
"experimental",2,7,"ld","upper","eggays","nw","nw","h","h",1,0.550906182150356,NA,NA,NA
"experimental",2,8,"ld","upper","maunches","nw","nw","h","h",1,0.68755605572369,NA,NA,NA
"experimental",2,9,"ld","upper","cassette","w","w","g","g",1,0.666912448592484,NA,NA,NA
"experimental",2,10,"ld","upper","serfume","nw","nw","h","h",1,0.575672473758459,NA,NA,NA
"experimental",2,11,"ld","upper","despise","w","w","g","g",1,0.647694484796375,NA,NA,NA
"experimental",2,12,"ld","upper","strenuous","w","w","g","g",1,0.717227732180618,NA,NA,NA
"experimental",2,13,"ld","upper","massacre","w","w","g","g",1,0.671097314218059,NA,NA,NA
"experimental",2,14,"ld","upper","miteous","nw","nw","h","h",1,0.602218480431475,NA,NA,NA
"experimental",2,15,"ld","upper","lindo","nw","nw","h","h",1,0.632909810286947,NA,NA,NA
"experimental",2,16,"ld","upper","elormity","nw","nw","h","h",1,0.670845570391975,NA,NA,NA
"experimental",2,17,"ld","upper","afternoon","w","w","g","g",1,0.610909381764941,NA,NA,NA
"experimental",2,18,"ld","upper","rumblos","nw","nw","h","h",1,0.841610974632204,NA,NA,NA
"experimental",2,19,"ld","upper","theery","nw","nw","h","h",1,0.806975354324095,NA,NA,NA
"experimental",2,20,"ld","upper","grenavier","nw","nw","h","h",1,0.701704427716322,NA,NA,NA
"experimental",2,21,"ld","upper","punctual","w","w","g","g",1,0.69640391971916,NA,NA,NA
"experimental",2,22,"ld","upper","removable","w","w","g","h",0,0.627768377889879,NA,NA,NA
"experimental",2,23,"ld","upper","butcher","w","w","g","g",1,0.704935141722672,NA,NA,NA
"experimental",2,24,"ld","upper","sarlock","nw","nw","h","h",1,0.635580288479105,NA,NA,NA
"experimental",2,25,"ld","upper","renown","w","w","g","g",1,0.696825907798484,NA,NA,NA
"experimental",2,26,"ld","upper","paying","w","w","g","g",1,0.532223098678514,NA,NA,NA
"experimental",2,27,"ld","upper","apticle","nw","nw","h","h",1,0.84498869010713,NA,NA,NA
"experimental",2,28,"ld","upper","clooped","nw","nw","h","h",1,1.01834910956677,NA,NA,NA
"experimental",2,29,"ld","upper","godomy","nw","nw","h","h",1,0.673151713912375,NA,NA,NA
"experimental",2,30,"ld","upper","pariah","w","w","g","q",0,1.27769095310941,NA,NA,NA
"experimental",3,1,"hd","lower","ufionize","nw","nw","h","h",1,1.10110706405248,NA,NA,NA
"experimental",3,2,"hd","lower","contusiok","nw","nw","h","h",1,0.595521910348907,NA,NA,NA
"experimental",3,3,"hd","lower","castaway","w","w","g","g",1,0.738817944889888,NA,NA,NA
"experimental",3,4,"hd","lower","alticles","nw","nw","h","h",1,0.940201932913624,NA,NA,NA
"experimental",3,5,"hd","lower","retona","nw","nw","h","h",1,0.669580511748791,NA,NA,NA
"experimental",3,6,"hd","lower","duries","nw","nw","h","h",1,0.632782730855979,NA,NA,NA
"experimental",3,7,"hd","lower","buzzer","w","w","g","h",0,0.798711572540924,NA,NA,NA
"experimental",3,8,"hd","lower","slightly","w","w","g","g",1,0.574016819591634,NA,NA,NA
"experimental",3,9,"hd","lower","potent","w","w","g","g",1,0.566120088915341,NA,NA,NA
"experimental",3,10,"hd","lower","brimitar","nw","nw","h","h",1,0.646751803229563,NA,NA,NA
"experimental",3,11,"hd","lower","rearrange","w","w","g","g",1,0.588159456383437,NA,NA,NA
"experimental",3,12,"hd","lower","theles","nw","nw","h","h",1,0.699507554294541,NA,NA,NA
"experimental",3,13,"hd","lower","resent","w","w","g","g",1,0.91094379266724,NA,NA,NA
"experimental",3,14,"hd","lower","minimum","w","w","g","g",1,0.593594891950488,NA,NA,NA
"experimental",3,15,"hd","lower","enunciate","w","w","g","g",1,0.752991974237375,NA,NA,NA
"experimental",3,16,"hd","lower","baults","nw","nw","h","h",1,0.888797871768475,NA,NA,NA
"experimental",3,17,"hd","lower","bureaug","nw","nw","h","h",1,0.700204528751783,NA,NA,NA
"experimental",3,18,"hd","lower","comply","w","w","g","g",1,0.638183453585953,NA,NA,NA
"experimental",3,19,"hd","lower","recollect","w","w","g","g",1,0.611554739647545,NA,NA,NA
"experimental",3,20,"hd","lower","schinter","nw","nw","h","h",1,0.794759132200852,NA,NA,NA
"experimental",3,21,"hd","lower","urique","nw","nw","h","h",1,0.62454007868655,NA,NA,NA
"experimental",3,22,"hd","lower","borrent","nw","nw","h","h",1,0.536935902317055,NA,NA,NA
"experimental",3,23,"hd","lower","infested","w","w","g","g",1,0.6902838855749,NA,NA,NA
"experimental",3,24,"hd","lower","crudios","nw","nw","h","h",1,0.717644588788971,NA,NA,NA
"experimental",3,25,"hd","lower","usually","w","w","g","g",1,0.670916203525849,NA,NA,NA
"experimental",3,26,"hd","lower","burrowing","w","w","g","g",1,0.746842358610593,NA,NA,NA
"experimental",3,27,"hd","lower","axis","w","w","g","g",1,0.756036144215614,NA,NA,NA
"experimental",3,28,"hd","lower","carony","nw","nw","h","h",1,0.876871125074103,NA,NA,NA
"experimental",3,29,"hd","lower","charcoal","w","w","g","g",1,0.704830701113679,NA,NA,NA
"experimental",3,30,"hd","lower","slutches","nw","nw","h","h",1,0.763505453476682,NA,NA,NA
"experimental",4,1,"ld","upper","brank","nw","nw","h","h",1,0.795358608826064,NA,NA,NA
"experimental",4,2,"ld","upper","batire","nw","nw","h","h",1,0.554725807858631,NA,NA,NA
"experimental",4,3,"ld","upper","gigglod","nw","nw","h","h",1,0.763457157299854,NA,NA,NA
"experimental",4,4,"ld","upper","mubby","nw","nw","h","h",1,0.700175852980465,NA,NA,NA
"experimental",4,5,"ld","upper","churnad","nw","nw","h","h",1,0.679542508674785,NA,NA,NA
"experimental",4,6,"ld","upper","couple","w","w","g","g",1,0.627544102375396,NA,NA,NA
"experimental",4,7,"ld","upper","staircase","w","w","g","g",1,0.721521264407784,NA,NA,NA
"experimental",4,8,"ld","upper","huzzles","nw","nw","h","h",1,0.635475244140252,NA,NA,NA
"experimental",4,9,"ld","upper","rebool","nw","nw","h","h",1,0.719831501017325,NA,NA,NA
"experimental",4,10,"ld","upper","snife","nw","nw","h","h",1,0.608618028811179,NA,NA,NA
"experimental",4,11,"ld","upper","bickering","w","w","g","g",1,0.711560172960162,NA,NA,NA
"experimental",4,12,"ld","upper","amms","nw","nw","h","h",1,0.698826879728585,NA,NA,NA
"experimental",4,13,"ld","upper","hotplate","w","w","g","g",1,0.806598040275276,NA,NA,NA
"experimental",4,14,"ld","upper","ebince","nw","nw","h","h",1,0.717189698829316,NA,NA,NA
"experimental",4,15,"ld","upper","turntable","w","w","g","g",1,0.88731548038777,NA,NA,NA
"experimental",4,16,"ld","upper","suddenly","w","w","g","g",1,0.730667961062863,NA,NA,NA
"experimental",4,17,"ld","upper","arrested","w","w","g","g",1,0.73265202937182,NA,NA,NA
"experimental",4,18,"ld","upper","amidst","w","w","g","g",1,0.789821751182899,NA,NA,NA
"experimental",4,19,"ld","upper","contain","w","w","g","g",1,0.581176731386222,NA,NA,NA
"experimental",4,20,"ld","upper","emotion","w","w","g","g",1,0.581159223918803,NA,NA,NA
"experimental",4,21,"ld","upper","alarm","w","w","g","g",1,0.509133892599493,NA,NA,NA
"experimental",4,22,"ld","upper","slooping","nw","nw","h","h",1,0.839823713293299,NA,NA,NA
"experimental",4,23,"ld","upper","handcuff","w","w","g","g",1,0.669180558761582,NA,NA,NA
"experimental",4,24,"ld","upper","gaining","w","w","g","g",1,0.657287317677401,NA,NA,NA
"experimental",4,25,"ld","upper","cavern","w","w","g","g",1,0.637934124446474,NA,NA,NA
"experimental",4,26,"ld","upper","ciping","nw","nw","h","h",1,0.747323509538546,NA,NA,NA
"experimental",4,27,"ld","upper","mamps","nw","nw","h","h",1,0.69979612401221,NA,NA,NA
"experimental",4,28,"ld","upper","thamp","nw","nw","h","h",1,0.68726839160081,NA,NA,NA
"experimental",4,29,"ld","upper","sonnet","w","w","g","g",1,0.95442938990891,NA,NA,NA
"experimental",4,30,"ld","upper","ebciting","nw","nw","h","h",1,0.971171569661237,NA,NA,NA
"experimental",5,1,"ld","upper","seeming","w","w","g","g",1,0.793201579828747,NA,NA,NA
"experimental",5,2,"ld","upper","kettle","w","w","g","g",1,0.584535430185497,NA,NA,NA
"experimental",5,3,"ld","upper","moral","w","w","g","g",1,0.504325703950599,NA,NA,NA
"experimental",5,4,"ld","upper","befin","nw","nw","h","h",1,0.651604665792547,NA,NA,NA
"experimental",5,5,"ld","upper","lofty","w","w","g","h",0,0.800544111523777,NA,NA,NA
"experimental",5,6,"ld","upper","graciap","nw","nw","h","h",1,0.80711480951868,NA,NA,NA
"experimental",5,7,"ld","upper","arranged","w","w","g","g",1,0.653808481874876,NA,NA,NA
"experimental",5,8,"ld","upper","etuip","nw","nw","h","h",1,0.65054516796954,NA,NA,NA
"experimental",5,9,"ld","upper","disease","w","w","g","g",1,0.583344928920269,NA,NA,NA
"experimental",5,10,"ld","upper","release","w","w","g","g",1,0.607224683393724,NA,NA,NA
"experimental",5,11,"ld","upper","aggepting","nw","nw","h","h",1,0.98112632217817,NA,NA,NA
"experimental",5,12,"ld","upper","eyesight","w","w","g","g",1,0.692989378236234,NA,NA,NA
"experimental",5,13,"ld","upper","hostade","nw","nw","h","h",1,0.71234045852907,NA,NA,NA
"experimental",5,14,"ld","upper","gensions","nw","nw","h","h",1,0.699022177490406,NA,NA,NA
"experimental",5,15,"ld","upper","gund","nw","nw","h","h",1,0.630401124595664,NA,NA,NA
"experimental",5,16,"ld","upper","monopoly","w","w","g","g",1,0.70845110504888,NA,NA,NA
"experimental",5,17,"ld","upper","otoist","nw","nw","h","h",1,0.57516385440249,NA,NA,NA
"experimental",5,18,"ld","upper","fuintets","nw","nw","h","h",1,0.655145381111652,NA,NA,NA
"experimental",5,19,"ld","upper","robbery","w","w","g","g",1,0.739897968713194,NA,NA,NA
"experimental",5,20,"ld","upper","wrestle","w","w","g","g",1,0.676362505648285,NA,NA,NA
"experimental",5,21,"ld","upper","dishwater","w","w","g","g",1,0.696301290299743,NA,NA,NA
"experimental",5,22,"ld","upper","undimmec","nw","nw","h","h",1,0.587700038799085,NA,NA,NA
"experimental",5,23,"ld","upper","tinion","nw","nw","h","h",1,0.65105620212853,NA,NA,NA
"experimental",5,24,"ld","upper","bamps","nw","nw","h","h",1,0.70384153467603,NA,NA,NA
"experimental",5,25,"ld","upper","clypaper","nw","nw","h","h",1,1.0264218194643,NA,NA,NA
"experimental",5,26,"ld","upper","pakened","nw","nw","h","h",1,0.60055407253094,NA,NA,NA
"experimental",5,27,"ld","upper","sazer","nw","nw","h","h",1,0.446123650879599,NA,NA,NA
"experimental",5,28,"ld","upper","terrify","w","w","g","g",1,0.587397583876736,NA,NA,NA
"experimental",5,29,"ld","upper","stalemate","w","w","g","h",0,0.954313479014672,NA,NA,NA
"experimental",5,30,"ld","upper","except","w","w","g","g",1,0.747571027488448,NA,NA,NA
"experimental",6,1,"hd","lower","duplex","w","w","g","g",1,0.669136488460936,NA,NA,NA
"experimental",6,2,"hd","lower","professor","w","w","g","g",1,0.537250733235851,NA,NA,NA
"experimental",6,3,"hd","lower","veranpah","nw","nw","h","h",1,0.682567360112444,NA,NA,NA
"experimental",6,4,"hd","lower","slooch","nw","nw","h","h",1,0.645677816588432,NA,NA,NA
"experimental",6,5,"hd","lower","shivering","w","w","g","g",1,0.554959742585197,NA,NA,NA
"experimental",6,6,"hd","lower","admire","w","w","g","g",1,0.691635877359658,NA,NA,NA
"experimental",6,7,"hd","lower","bentler","nw","nw","h","h",1,0.782977274153382,NA,NA,NA
"experimental",6,8,"hd","lower","suburb","w","w","g","g",1,1.08709120482672,NA,NA,NA
"experimental",6,9,"hd","lower","priant","nw","nw","h","h",1,0.634401559247635,NA,NA,NA
"experimental",6,10,"hd","lower","unrealon","nw","nw","h","h",1,0.631808958831243,NA,NA,NA
"experimental",6,11,"hd","lower","browting","nw","nw","h","h",1,0.557837894302793,NA,NA,NA
"experimental",6,12,"hd","lower","defeat","w","w","g","h",0,0.5257396355737,NA,NA,NA
"experimental",6,13,"hd","lower","suspect","w","w","g","g",1,0.623708780389279,NA,NA,NA
"experimental",6,14,"hd","lower","fabstand","nw","nw","h","h",1,0.765660671284422,NA,NA,NA
"experimental",6,15,"hd","lower","talent","w","w","g","g",1,0.806328788981773,NA,NA,NA
"experimental",6,16,"hd","lower","splinging","nw","nw","h","h",1,0.589087045285851,NA,NA,NA
"experimental",6,17,"hd","lower","fassed","nw","nw","h","h",1,0.628414037753828,NA,NA,NA
"experimental",6,18,"hd","lower","puggers","nw","nw","h","h",1,0.666482612374239,NA,NA,NA
"experimental",6,19,"hd","lower","chicken","target","target","q","g",0,0.630021093878895,NA,NA,NA
"experimental",6,20,"hd","lower","regards","aftertar1","w","g","g",1,2.25200824101921,NA,NA,NA
"experimental",6,21,"hd","lower","hardest","aftertar2","w","g","g",1,0.64873828634154,NA,NA,NA
"experimental",6,22,"hd","lower","shests","aftertar3","nw","h","h",1,0.862453199923038,NA,NA,NA
"experimental",6,23,"hd","lower","fomrade","nw","nw","h","h",1,0.627001977642067,NA,NA,NA
"experimental",6,24,"hd","lower","ounside","nw","nw","h","h",1,0.74502611963544,NA,NA,NA
"experimental",6,25,"hd","lower","collute","nw","nw","h","h",1,0.434416349977255,NA,NA,NA
"experimental",6,26,"hd","lower","rowel","nw","nw","h","h",1,0.503753092139959,NA,NA,NA
"experimental",6,27,"hd","lower","bamboo","nw","w","g","g",1,0.842560296761803,NA,NA,NA
"experimental",6,28,"hd","lower","patio","w","w","g","g",1,0.53582448605448,NA,NA,NA
"experimental",6,29,"hd","lower","exemplify","w","w","g","g",1,0.665251361089759,NA,NA,NA
"experimental",6,30,"hd","lower","attract","w","w","g","g",1,0.917898143758066,NA,NA,NA
"experimental",7,1,"hd","lower","oleandur","nw","nw","h","h",1,0.591112769092433,NA,NA,NA
"experimental",7,2,"hd","lower","hustle","w","w","g","g",1,0.622481453232467,NA,NA,NA
"experimental",7,3,"hd","lower","shurk","nw","nw","h","h",1,0.628565265215002,NA,NA,NA
"experimental",7,4,"hd","lower","violate","w","w","g","g",1,0.690518423914909,NA,NA,NA
"experimental",7,5,"hd","lower","misest","nw","nw","h","h",1,0.860951490001753,NA,NA,NA
"experimental",7,6,"hd","lower","acroad","nw","nw","h","h",1,0.721610612352379,NA,NA,NA
"experimental",7,7,"hd","lower","ilcurring","nw","nw","h","h",1,0.595472104963847,NA,NA,NA
"experimental",7,8,"hd","lower","volume","w","w","g","g",1,1.05887113104109,NA,NA,NA
"experimental",7,9,"hd","lower","tunneg","nw","nw","h","h",1,0.583508532261476,NA,NA,NA
"experimental",7,10,"hd","lower","larger","w","w","g","g",1,0.662278729840182,NA,NA,NA
"experimental",7,11,"hd","lower","sullen","w","w","g","h",0,0.595093583455309,NA,NA,NA
"experimental",7,12,"hd","lower","zears","nw","nw","h","h",1,0.602244137786329,NA,NA,NA
"experimental",7,13,"hd","lower","brouhuha","nw","nw","h","h",1,0.505510771996342,NA,NA,NA
"experimental",7,14,"hd","lower","worps","nw","nw","h","h",1,0.738708674791269,NA,NA,NA
"experimental",7,15,"hd","lower","engineer","w","w","g","g",1,0.7635232625762,NA,NA,NA
"experimental",7,16,"hd","lower","gestalion","nw","nw","h","h",1,0.883457519346848,NA,NA,NA
"experimental",7,17,"hd","lower","meteoroid","w","w","g","h",0,0.75867945549544,NA,NA,NA
"experimental",7,18,"hd","lower","resonant","w","w","g","h",0,0.83074070722796,NA,NA,NA
"experimental",7,19,"hd","lower","ladybug","target","target","q","g",0,0.572130852960981,NA,NA,NA
"experimental",7,20,"hd","lower","matter","aftertar1","w","g","g",1,1.39615851454437,NA,NA,NA
"experimental",7,21,"hd","lower","rationale","aftertar2","w","g","g",1,0.555502772913314,NA,NA,NA
"experimental",7,22,"hd","lower","image","aftertar3","w","g","g",1,0.668193203397095,NA,NA,NA
"experimental",7,23,"hd","lower","entertain","w","w","g","g",1,0.71136034745723,NA,NA,NA
"experimental",7,24,"hd","lower","culer","w","nw","h","h",1,0.681950376136228,NA,NA,NA
"experimental",7,25,"hd","lower","envelop","nw","w","g","g",1,0.918016771320254,NA,NA,NA
"experimental",7,26,"hd","lower","fallacy","w","w","g","g",1,0.73601948202122,NA,NA,NA
"experimental",7,27,"hd","lower","edasion","w","nw","h","h",1,0.625398241914809,NA,NA,NA
"experimental",7,28,"hd","lower","flougy","nw","nw","h","h",1,0.695499875233509,NA,NA,NA
"experimental",7,29,"hd","lower","dusmy","nw","nw","h","h",1,1.08285743906163,NA,NA,NA
"experimental",7,30,"hd","lower","reason","nw","w","g","g",1,0.774900941876695,NA,NA,NA
"experimental",8,1,"hd","lower","arrival","w","w","g","g",1,0.668938474147581,NA,NA,NA
"experimental",8,2,"hd","lower","sunshine","w","w","g","g",1,0.824684363673441,NA,NA,NA
"experimental",8,3,"hd","lower","splum","nw","nw","h","h",1,0.686763394391164,NA,NA,NA
"experimental",8,4,"hd","lower","peems","nw","nw","h","h",1,0.570113581023179,NA,NA,NA
"experimental",8,5,"hd","lower","gackpedal","nw","nw","h","h",1,0.58558345772326,NA,NA,NA
"experimental",8,6,"hd","lower","antwers","nw","nw","h","h",1,0.68093042075634,NA,NA,NA
"experimental",8,7,"hd","lower","scrooner","nw","nw","h","h",1,0.643435967271216,NA,NA,NA
"experimental",8,8,"hd","lower","mebase","nw","nw","h","h",1,0.77604284521658,NA,NA,NA
"experimental",8,9,"hd","lower","burning","w","w","g","g",1,0.783399262116291,NA,NA,NA
"experimental",8,10,"hd","lower","quittint","nw","nw","h","h",1,0.886399965500459,NA,NA,NA
"experimental",8,11,"hd","lower","coster","nw","nw","h","h",1,0.85812465287745,NA,NA,NA
"experimental",8,12,"hd","lower","curtail","w","w","g","h",0,0.782806728151627,NA,NA,NA
"experimental",8,13,"hd","lower","fomes","nw","nw","h","h",1,0.486855157068931,NA,NA,NA
"experimental",8,14,"hd","lower","bengths","nw","nw","h","h",1,0.610182523843832,NA,NA,NA
"experimental",8,15,"hd","lower","imprives","nw","nw","h","h",1,0.776026847190224,NA,NA,NA
"experimental",8,16,"hd","lower","ordinary","w","w","g","g",1,0.623408740269952,NA,NA,NA
"experimental",8,17,"hd","lower","colored","w","w","g","g",1,0.813314532511868,NA,NA,NA
"experimental",8,18,"hd","lower","unspoken","w","w","g","g",1,0.555341584375128,NA,NA,NA
"experimental",8,19,"hd","lower","fictional","w","w","g","g",1,0.764117004000582,NA,NA,NA
"experimental",8,20,"hd","lower","bloodless","w","w","g","g",1,0.692120046704076,NA,NA,NA
"experimental",8,21,"hd","lower","squirrel","target","target","q","g",0,0.662920767557807,NA,NA,NA
"experimental",8,22,"hd","lower","parlayid","aftertar1","nw","h","h",1,0.730829753330909,NA,NA,NA
"experimental",8,23,"hd","lower","satisfies","aftertar2","w","g","g",1,0.708213246311061,NA,NA,NA
"experimental",8,24,"hd","lower","committed","aftertar3","w","g","g",1,0.542151590110734,NA,NA,NA
"experimental",8,25,"hd","lower","overwork","w","w","g","g",1,1.05399351660162,NA,NA,NA
"experimental",8,26,"hd","lower","populace","w","w","g","g",1,0.961826556711458,NA,NA,NA
"experimental",8,27,"hd","lower","flieves","w","nw","h","h",1,0.544801844167523,NA,NA,NA
"experimental",8,28,"hd","lower","correct","nw","w","g","g",1,0.641699417028576,NA,NA,NA
"experimental",8,29,"hd","lower","ronvince","w","nw","h","h",1,0.654977853642777,NA,NA,NA
"experimental",8,30,"hd","lower","ements","nw","nw","h","h",1,0.835341524099931,NA,NA,NA
"experimental",9,1,"ld","upper","lenie","nw","nw","h","h",1,0.679804213694297,NA,NA,NA
"experimental",9,2,"ld","upper","detrabe","nw","nw","h","h",1,0.571157986414619,NA,NA,NA
"experimental",9,3,"ld","upper","criminal","w","w","g","g",1,0.658586787292734,NA,NA,NA
"experimental",9,4,"ld","upper","attrove","nw","nw","h","h",1,0.574571320437826,NA,NA,NA
"experimental",9,5,"ld","upper","nature","w","w","g","g",1,0.709963983506896,NA,NA,NA
"experimental",9,6,"ld","upper","natch","nw","nw","h","h",1,0.503949597361498,NA,NA,NA
"experimental",9,7,"ld","upper","dricked","nw","nw","h","h",1,0.817298063426279,NA,NA,NA
"experimental",9,8,"ld","upper","hecture","nw","nw","h","h",1,0.695162707241252,NA,NA,NA
"experimental",9,9,"ld","upper","ounwit","nw","nw","h","h",1,0.697798774344847,NA,NA,NA
"experimental",9,10,"ld","upper","dorte","nw","nw","h","h",1,0.612465123063885,NA,NA,NA
"experimental",9,11,"ld","upper","newstrint","nw","nw","h","h",1,0.90655759209767,NA,NA,NA
"experimental",9,12,"ld","upper","advantage","w","w","g","g",1,0.700659116846509,NA,NA,NA
"experimental",9,13,"ld","upper","uncarled","nw","nw","h","h",1,0.527290547383018,NA,NA,NA
"experimental",9,14,"ld","upper","cutout","w","w","g","g",1,1.04860607546289,NA,NA,NA
"experimental",9,15,"ld","upper","twenties","w","w","g","g",1,0.685335939750075,NA,NA,NA
"experimental",9,16,"ld","upper","vibrate","w","w","g","g",1,0.616905958624557,NA,NA,NA
"experimental",9,17,"ld","upper","rudder","w","w","g","h",0,0.78181393945124,NA,NA,NA
"experimental",9,18,"ld","upper","virulent","w","w","g","g",1,0.78799253271427,NA,NA,NA
"experimental",9,19,"ld","upper","kickoff","w","w","g","g",1,0.578738075098954,NA,NA,NA
"experimental",9,20,"ld","upper","latirizes","nw","nw","h","h",1,0.74598117696587,NA,NA,NA
"experimental",9,21,"ld","upper","sefraud","nw","nw","h","h",1,0.747674260754138,NA,NA,NA
"experimental",9,22,"ld","upper","chrik","nw","nw","h","h",1,0.652636393439025,NA,NA,NA
"experimental",9,23,"ld","upper","seldom","w","w","g","g",1,0.90458922018297,NA,NA,NA
"experimental",9,24,"ld","upper","ralliep","nw","nw","h","h",1,0.626669337507337,NA,NA,NA
"experimental",9,25,"ld","upper","innocent","w","w","g","g",1,0.63210084894672,NA,NA,NA
"experimental",9,26,"ld","upper","curricula","w","w","g","h",0,0.668583497055806,NA,NA,NA
"experimental",9,27,"ld","upper","teamwork","w","w","g","g",1,0.800440878374502,NA,NA,NA
"experimental",9,28,"ld","upper","failure","w","w","g","g",1,0.711150862742215,NA,NA,NA
"experimental",9,29,"ld","upper","airbis","nw","nw","h","h",1,0.753244321909733,NA,NA,NA
"experimental",9,30,"ld","upper","scarlet","w","w","g","g",1,0.617389222607017,NA,NA,NA
"experimental",10,1,"hd","lower","condensed","w","w","g","g",1,0.998519896995276,NA,NA,NA
"experimental",10,2,"hd","lower","dislokes","nw","nw","h","h",1,0.725218036677688,NA,NA,NA
"experimental",10,3,"hd","lower","houted","nw","nw","h","h",1,0.718566442490555,NA,NA,NA
"experimental",10,4,"hd","lower","flacked","nw","nw","h","g",0,0.736560701276176,NA,NA,NA
"experimental",10,5,"hd","lower","lasprey","nw","nw","h","h",1,0.737194890738465,NA,NA,NA
"experimental",10,6,"hd","lower","funtair","nw","nw","h","h",1,0.641890186932869,NA,NA,NA
"experimental",10,7,"hd","lower","hodels","nw","nw","h","h",1,0.742520150495693,NA,NA,NA
"experimental",10,8,"hd","lower","crundle","nw","nw","h","h",1,0.895241490448825,NA,NA,NA
"experimental",10,9,"hd","lower","mustled","nw","nw","h","h",1,1.11987194907852,NA,NA,NA
"experimental",10,10,"hd","lower","border","w","w","g","h",0,1.59309834660962,NA,NA,NA
"experimental",10,11,"hd","lower","stable","w","w","g","g",1,1.07262136123609,NA,NA,NA
"experimental",10,12,"hd","lower","embrace","w","w","g","g",1,1.2764690592885,NA,NA,NA
"experimental",10,13,"hd","lower","railroad","w","w","g","g",1,0.815729644382372,NA,NA,NA
"experimental",10,14,"hd","lower","repayment","w","w","g","g",1,1.46980267425533,NA,NA,NA
"experimental",10,15,"hd","lower","insertion","w","w","g","g",1,0.960996465757489,NA,NA,NA
"experimental",10,16,"hd","lower","neally","nw","nw","h","h",1,0.840195292141289,NA,NA,NA
"experimental",10,17,"hd","lower","explosion","w","w","g","g",1,2.95695618668105,NA,NA,NA
"experimental",10,18,"hd","lower","pressing","w","w","g","g",1,0.652945791021921,NA,NA,NA
"experimental",10,19,"hd","lower","kilotin","nw","nw","h","h",1,0.608924709726125,NA,NA,NA
"experimental",10,20,"hd","lower","lentils","w","w","g","g",1,0.678985593025573,NA,NA,NA
"experimental",10,21,"hd","lower","postal","w","w","g","g",1,0.762349664932117,NA,NA,NA
"experimental",10,22,"hd","lower","sording","nw","nw","h","h",1,0.866371531039476,NA,NA,NA
"experimental",10,23,"hd","lower","region","w","w","g","g",1,0.822386370040476,NA,NA,NA
"experimental",10,24,"hd","lower","porcupine","target","target","q","q",1,0.954871602007188,1,NA,NA
"experimental",10,25,"hd","lower","breiled","aftertar1","nw","h","h",1,0.738868655986153,NA,NA,NA
"experimental",10,26,"hd","lower","upstairs","aftertar2","w","g","g",1,0.643624624237418,NA,NA,NA
"experimental",10,27,"hd","lower","seighing","aftertar3","nw","h","h",1,1.28036384598818,NA,NA,NA
"experimental",10,28,"hd","lower","noblest","nw","w","g","h",0,0.795683098840527,NA,NA,NA
"experimental",10,29,"hd","lower","latter","w","w","g","g",1,0.746393505833112,NA,NA,NA
"experimental",10,30,"hd","lower","gontracts","w","nw","h","h",1,0.859070051112212,NA,NA,NA
"experimental",11,1,"ld","upper","paranoid","w","w","g","g",1,2.45423952548299,NA,NA,NA
"experimental",11,2,"ld","upper","metrol","nw","nw","h","h",1,1.2743014653679,NA,NA,NA
"experimental",11,3,"ld","upper","pollute","w","w","g","h",0,1.07768280315213,NA,NA,NA
"experimental",11,4,"ld","upper","throttle","w","w","g","h",0,0.865091983578168,NA,NA,NA
"experimental",11,5,"ld","upper","podges","nw","nw","h","h",1,0.964133002213202,NA,NA,NA
"experimental",11,6,"ld","upper","undertake","w","w","g","g",1,0.90020000108052,NA,NA,NA
"experimental",11,7,"ld","upper","relaying","w","w","g","g",1,2.43084152555093,NA,NA,NA
"experimental",11,8,"ld","upper","boutique","w","w","g","g",1,2.46830579394009,NA,NA,NA
"experimental",11,9,"ld","upper","permeable","w","w","g","g",1,1.6563099231571,NA,NA,NA
"experimental",11,10,"ld","upper","terming","w","w","g","g",1,0.668338393908925,NA,NA,NA
"experimental",11,11,"ld","upper","ecistle","nw","nw","h","h",1,2.35241815506015,NA,NA,NA
"experimental",11,12,"ld","upper","moisture","w","w","g","g",1,1.63949348800816,NA,NA,NA
"experimental",11,13,"ld","upper","pexts","nw","nw","h","h",1,0.668155472027138,NA,NA,NA
"experimental",11,14,"ld","upper","single","w","w","g","g",1,0.968203466269188,NA,NA,NA
"experimental",11,15,"ld","upper","sampling","w","w","g","g",1,1.10417055245489,NA,NA,NA
"experimental",11,16,"ld","upper","huffle","nw","nw","h","g",0,1.0090194910299,NA,NA,NA
"experimental",11,17,"ld","upper","ringlat","nw","nw","h","h",1,0.807055646786466,NA,NA,NA
"experimental",11,18,"ld","upper","doxing","nw","nw","h","g",0,0.860927643720061,NA,NA,NA
"experimental",11,19,"ld","upper","previous","w","w","g","g",1,0.658031984581612,NA,NA,NA
"experimental",11,20,"ld","upper","brials","nw","nw","h","h",1,1.17308047704864,NA,NA,NA
"experimental",11,21,"ld","upper","hemoter","nw","nw","h","h",1,0.892467779456638,NA,NA,NA
"experimental",11,22,"ld","upper","amaze","w","w","g","g",1,0.567380317952484,NA,NA,NA
"experimental",11,23,"ld","upper","geissue","nw","nw","h","h",1,0.919172861613333,NA,NA,NA
"experimental",11,24,"ld","upper","fuhrek","nw","nw","h","h",1,0.760575685184449,NA,NA,NA
"experimental",11,25,"ld","upper","expected","w","w","g","g",1,0.968642056221142,NA,NA,NA
"experimental",11,26,"ld","upper","podes","nw","nw","h","h",1,0.895782407955267,NA,NA,NA
"experimental",11,27,"ld","upper","rantho","nw","nw","h","h",1,0.906456170137972,NA,NA,NA
"experimental",11,28,"ld","upper","tyena","nw","nw","h","h",1,0.636460486566648,NA,NA,NA
"experimental",11,29,"ld","upper","gorilla","target","target","q","q",1,1.37707668577787,1,NA,NA
"experimental",11,30,"ld","upper","entitle","aftertar1","w","g","g",1,1.23255060729571,NA,NA,NA
"experimental",12,1,"ld","upper","mabit","nw","nw","h","h",1,2.82174886029679,NA,NA,NA
"experimental",12,2,"ld","upper","require","w","w","g","g",1,0.667312703328207,NA,NA,NA
"experimental",12,3,"ld","upper","primal","w","w","g","g",1,0.735117852222174,NA,NA,NA
"experimental",12,4,"ld","upper","chraps","nw","nw","h","h",1,0.703317520907149,NA,NA,NA
"experimental",12,5,"ld","upper","lancos","nw","nw","h","h",1,0.777338692569174,NA,NA,NA
"experimental",12,6,"ld","upper","stranded","w","w","g","g",1,0.785122832749039,NA,NA,NA
"experimental",12,7,"ld","upper","season","w","w","g","g",1,0.833195059676655,NA,NA,NA
"experimental",12,8,"ld","upper","country","w","w","g","g",1,0.797796359518543,NA,NA,NA
"experimental",12,9,"ld","upper","comment","w","w","g","g",1,1.96443455154076,NA,NA,NA
"experimental",12,10,"ld","upper","permute","w","w","g","h",0,1.33249174628872,NA,NA,NA
"experimental",12,11,"ld","upper","roodies","nw","nw","h","h",1,0.781851670704782,NA,NA,NA
"experimental",12,12,"ld","upper","rarren","nw","nw","h","h",1,0.829190097399987,NA,NA,NA
"experimental",12,13,"ld","upper","intended","w","w","g","g",1,1.11452827637549,NA,NA,NA
"experimental",12,14,"ld","upper","heaviest","w","w","g","g",1,0.956576457829215,NA,NA,NA
"experimental",12,15,"ld","upper","regiment","w","w","g","g",1,0.572532013291493,NA,NA,NA
"experimental",12,16,"ld","upper","scack","nw","nw","h","h",1,1.09877435758244,NA,NA,NA
"experimental",12,17,"ld","upper","sequence","w","w","g","g",1,0.717582709155977,NA,NA,NA
"experimental",12,18,"ld","upper","listless","w","w","g","g",1,0.687537944642827,NA,NA,NA
"experimental",12,19,"ld","upper","intrude","w","w","g","g",1,0.794164787163027,NA,NA,NA
"experimental",12,20,"ld","upper","humanize","w","w","g","g",1,0.600659116753377,NA,NA,NA
"experimental",12,21,"ld","upper","frader","nw","nw","h","h",1,0.759265650762245,NA,NA,NA
"experimental",12,22,"ld","upper","praiged","nw","nw","h","h",1,2.05510553671047,NA,NA,NA
"experimental",12,23,"ld","upper","aicline","nw","nw","h","h",1,1.97805287281517,NA,NA,NA
"experimental",12,24,"ld","upper","refebs","nw","nw","h","h",1,0.705367090879008,NA,NA,NA
"experimental",12,25,"ld","upper","galashes","nw","nw","h","h",1,0.722153039067052,NA,NA,NA
"experimental",12,26,"ld","upper","cemoir","nw","nw","h","h",1,0.995535191847011,NA,NA,NA
"experimental",12,27,"ld","upper","guffy","nw","nw","h","h",1,0.530984904849902,NA,NA,NA
"experimental",12,28,"ld","upper","unamufed","nw","nw","h","h",1,0.820980346994475,NA,NA,NA
"experimental",12,29,"ld","upper","managed","w","w","g","g",1,1.76218093011994,NA,NA,NA
"experimental",12,30,"ld","upper","halents","nw","nw","h","h",1,0.890240720822476,NA,NA,NA
"experimental",13,1,"hd","lower","imotope","nw","nw","h","h",1,1.51679367001634,NA,NA,NA
"experimental",13,2,"hd","lower","sheerio","nw","nw","h","h",1,0.854757200344466,NA,NA,NA
"experimental",13,3,"hd","lower","prohibit","w","w","g","g",1,1.90684676566161,NA,NA,NA
"experimental",13,4,"hd","lower","century","w","w","g","g",1,0.764884913689457,NA,NA,NA
"experimental",13,5,"hd","lower","peahem","nw","nw","h","h",1,1.71595331619028,NA,NA,NA
"experimental",13,6,"hd","lower","knowledge","w","w","g","g",1,1.07802268757951,NA,NA,NA
"experimental",13,7,"hd","lower","company","w","w","g","g",1,0.617323418962769,NA,NA,NA
"experimental",13,8,"hd","lower","migmarole","nw","nw","h","h",1,0.871438406175002,NA,NA,NA
"experimental",13,9,"hd","lower","preserve","w","w","g","g",1,1.07484419387765,NA,NA,NA
"experimental",13,10,"hd","lower","ethical","w","w","g","g",1,0.82215786864981,NA,NA,NA
"experimental",13,11,"hd","lower","huests","nw","nw","h","h",1,0.779505381011404,NA,NA,NA
"experimental",13,12,"hd","lower","lovud","nw","nw","h","h",1,0.825927990837954,NA,NA,NA
"experimental",13,13,"hd","lower","tiery","nw","nw","h","h",1,1.91004246484954,NA,NA,NA
"experimental",13,14,"hd","lower","latpin","nw","nw","h","h",1,0.712413808447309,NA,NA,NA
"experimental",13,15,"hd","lower","practice","w","w","g","g",1,0.931113191647455,NA,NA,NA
"experimental",13,16,"hd","lower","prominent","w","w","g","g",1,0.68460455420427,NA,NA,NA
"experimental",13,17,"hd","lower","sequence","w","w","g","g",1,0.647821564110927,NA,NA,NA
"experimental",13,18,"hd","lower","outlaved","nw","nw","h","h",1,0.876688806922175,NA,NA,NA
"experimental",13,19,"hd","lower","widely","w","w","g","g",1,0.855997205362655,NA,NA,NA
"experimental",13,20,"hd","lower","eaglot","nw","nw","h","h",1,0.827218706719577,NA,NA,NA
"experimental",13,21,"hd","lower","bulmed","nw","nw","h","h",1,0.84052098961547,NA,NA,NA
"experimental",13,22,"hd","lower","planar","w","w","g","g",1,0.917255804291926,NA,NA,NA
"experimental",13,23,"hd","lower","perform","w","w","g","g",1,1.01517152145971,NA,NA,NA
"experimental",13,24,"hd","lower","vintnel","nw","nw","h","h",1,0.853268168168142,NA,NA,NA
"experimental",13,25,"hd","lower","plashed","nw","nw","h","h",1,0.889247630140744,NA,NA,NA
"experimental",13,26,"hd","lower","statute","w","w","g","g",1,0.659985867794603,NA,NA,NA
"experimental",13,27,"hd","lower","cartles","nw","nw","h","h",1,0.783989381394349,NA,NA,NA
"experimental",13,28,"hd","lower","forgery","w","w","g","g",1,1.09443252917845,NA,NA,NA
"experimental",13,29,"hd","lower","stretches","w","w","g","g",1,0.937266127672046,NA,NA,NA
"experimental",13,30,"hd","lower","downtrund","nw","nw","h","h",1,2.64185637969058,NA,NA,NA
"experimental",14,1,"ld","upper","abraid","nw","nw","h","h",1,2.48519286233932,NA,NA,NA
"experimental",14,2,"ld","upper","rivet","w","w","g","h",0,0.688182397047058,NA,NA,NA
"experimental",14,3,"ld","upper","planofoad","nw","nw","h","h",1,0.747579479473643,NA,NA,NA
"experimental",14,4,"ld","upper","kiner","nw","nw","h","h",1,0.652467054896988,NA,NA,NA
"experimental",14,5,"ld","upper","markot","nw","nw","h","h",1,0.600558298523538,NA,NA,NA
"experimental",14,6,"ld","upper","ubefully","nw","nw","h","h",1,0.623078816919588,NA,NA,NA
"experimental",14,7,"ld","upper","orange","w","w","g","g",1,0.87640717974864,NA,NA,NA
"experimental",14,8,"ld","upper","talate","nw","nw","h","h",1,0.727769887191243,NA,NA,NA
"experimental",14,9,"ld","upper","naxis","nw","nw","h","h",1,0.537153839017265,NA,NA,NA
"experimental",14,10,"ld","upper","delegate","w","w","g","h",0,0.464965809718706,NA,NA,NA
"experimental",14,11,"ld","upper","donastic","nw","nw","h","h",1,0.380998940905556,NA,NA,NA
"experimental",14,12,"ld","upper","ameld","nw","nw","h","h",1,0.564209068659693,NA,NA,NA
"experimental",14,13,"ld","upper","ahead","w","w","g","g",1,0.644330654409714,NA,NA,NA
"experimental",14,14,"ld","upper","offonents","nw","nw","h","h",1,0.817229845095426,NA,NA,NA
"experimental",14,15,"ld","upper","glattery","nw","nw","h","h",1,0.53434752789326,NA,NA,NA
"experimental",14,16,"ld","upper","phonology","w","w","g","g",1,1.22355453437194,NA,NA,NA
"experimental",14,17,"ld","upper","balign","nw","nw","h","h",1,0.756939886836335,NA,NA,NA
"experimental",14,18,"ld","upper","lonnote","nw","nw","h","h",1,0.517191811813973,NA,NA,NA
"experimental",14,19,"ld","upper","boulder","w","w","g","g",1,1.42142980347853,NA,NA,NA
"experimental",14,20,"ld","upper","provide","w","w","g","g",1,0.546819719718769,NA,NA,NA
"experimental",14,21,"ld","upper","anemic","w","w","g","g",1,0.811440639896318,NA,NA,NA
"experimental",14,22,"ld","upper","footstep","w","w","g","g",1,0.55349516030401,NA,NA,NA
"experimental",14,23,"ld","upper","slears","nw","nw","h","h",1,0.913456100737676,NA,NA,NA
"experimental",14,24,"ld","upper","number","w","w","g","h",0,0.531507107545622,NA,NA,NA
"experimental",14,25,"ld","upper","pircus","nw","nw","h","h",1,0.996916463132948,NA,NA,NA
"experimental",14,26,"ld","upper","caloric","w","w","g","g",1,0.802332881954499,NA,NA,NA
"experimental",14,27,"ld","upper","colicky","w","w","g","h",0,1.20788724697195,NA,NA,NA
"experimental",14,28,"ld","upper","childhood","w","w","g","g",1,0.782841440988705,NA,NA,NA
"experimental",14,29,"ld","upper","visible","w","w","g","g",1,1.50206212152261,NA,NA,NA
"experimental",14,30,"ld","upper","leather","w","w","g","g",1,0.968047107337043,NA,NA,NA
"experimental",15,1,"ld","upper","create","w","w","g","g",1,1.57468904240523,NA,NA,NA
"experimental",15,2,"ld","upper","insole","w","w","g","g",1,1.14198919408955,NA,NA,NA
"experimental",15,3,"ld","upper","earnest","w","w","g","h",0,3.61468282423448,NA,NA,NA
"experimental",15,4,"ld","upper","nearsipe","nw","nw","h","h",1,1.35676813346799,NA,NA,NA
"experimental",15,5,"ld","upper","issue","w","w","g","g",1,0.804839152959175,NA,NA,NA
"experimental",15,6,"ld","upper","uncounted","w","w","g","g",1,0.890904491650872,NA,NA,NA
"experimental",15,7,"ld","upper","revising","w","w","g","g",1,2.86071212193929,NA,NA,NA
"experimental",15,8,"ld","upper","cills","nw","nw","h","h",1,0.912664344999939,NA,NA,NA
"experimental",15,9,"ld","upper","trooper","w","w","g","h",0,1.11468071117997,NA,NA,NA
"experimental",15,10,"ld","upper","bropic","nw","nw","h","h",1,1.51686068100389,NA,NA,NA
"experimental",15,11,"ld","upper","stuggard","nw","nw","h","h",1,1.51781090872828,NA,NA,NA
"experimental",15,12,"ld","upper","reloant","nw","nw","h","h",1,0.903251113602892,NA,NA,NA
"experimental",15,13,"ld","upper","submit","w","w","g","g",1,1.44113646436017,NA,NA,NA
"experimental",15,14,"ld","upper","remade","w","w","g","g",1,3.27804049674887,NA,NA,NA
"experimental",15,15,"ld","upper","surface","w","w","g","g",1,0.801341602578759,NA,NA,NA
"experimental",15,16,"ld","upper","blocking","w","w","g","g",1,0.743435665383004,NA,NA,NA
"experimental",15,17,"ld","upper","rualify","nw","nw","h","h",1,0.816086130682379,NA,NA,NA
"experimental",15,18,"ld","upper","bellicove","nw","nw","h","h",1,0.734151324490085,NA,NA,NA
"experimental",15,19,"ld","upper","ignoble","w","w","g","h",0,0.678860324784182,NA,NA,NA
"experimental",15,20,"ld","upper","plapping","nw","nw","h","h",1,0.993420421844348,NA,NA,NA
"experimental",15,21,"ld","upper","peanimate","nw","nw","h","h",1,0.735959413461387,NA,NA,NA
"experimental",15,22,"ld","upper","frigs","nw","nw","h","h",1,0.704566279426217,NA,NA,NA
"experimental",15,23,"ld","upper","frunted","nw","nw","h","h",1,0.650652626994997,NA,NA,NA
"experimental",15,24,"ld","upper","confined","w","w","g","g",1,0.846672114450485,NA,NA,NA
"experimental",15,25,"ld","upper","elbalm","nw","nw","h","h",1,0.779455575509928,NA,NA,NA
"experimental",15,26,"ld","upper","frequency","w","w","g","g",1,1.53882126533426,NA,NA,NA
"experimental",15,27,"ld","upper","afford","w","w","g","g",1,0.875501625938341,NA,NA,NA
"experimental",15,28,"ld","upper","blerapies","nw","nw","h","h",1,0.854026418412104,NA,NA,NA
"experimental",15,29,"ld","upper","gablus","nw","nw","h","h",1,0.985927870031446,NA,NA,NA
"experimental",15,30,"ld","upper","peadgear","nw","nw","h","h",1,0.928653405746445,NA,NA,NA
"experimental",16,1,"hd","lower","command","w","w","g","g",1,0.78636766737327,NA,NA,NA
"experimental",16,2,"hd","lower","trecious","nw","nw","h","g",0,0.609577613999136,NA,NA,NA
"experimental",16,3,"hd","lower","olerates","nw","nw","h","h",1,0.854673285619356,NA,NA,NA
"experimental",16,4,"hd","lower","outfit","w","w","g","g",1,0.738599102711305,NA,NA,NA
"experimental",16,5,"hd","lower","distrust","w","w","g","g",1,0.81128639401868,NA,NA,NA
"experimental",16,6,"hd","lower","ascending","w","w","g","g",1,0.664967319113202,NA,NA,NA
"experimental",16,7,"hd","lower","drobate","nw","nw","h","h",1,0.949339875951409,NA,NA,NA
"experimental",16,8,"hd","lower","trocess","nw","nw","h","h",1,1.13410212274175,NA,NA,NA
"experimental",16,9,"hd","lower","trake","nw","nw","h","h",1,0.65476384118665,NA,NA,NA
"experimental",16,10,"hd","lower","sodent","nw","nw","h","h",1,1.0748131031869,NA,NA,NA
"experimental",16,11,"hd","lower","potatoes","w","w","g","g",1,1.38133490143809,NA,NA,NA
"experimental",16,12,"hd","lower","addition","w","w","g","g",1,1.39661068783607,NA,NA,NA
"experimental",16,13,"hd","lower","mandate","w","w","g","g",1,0.931305772741325,NA,NA,NA
"experimental",16,14,"hd","lower","hindsight","w","w","g","g",1,1.36472161207348,NA,NA,NA
"experimental",16,15,"hd","lower","arrigns","nw","nw","h","h",1,0.724747450556606,NA,NA,NA
"experimental",16,16,"hd","lower","micron","w","w","g","h",0,0.598093984881416,NA,NA,NA
"experimental",16,17,"hd","lower","tusied","nw","nw","h","h",1,0.532808086485602,NA,NA,NA
"experimental",16,18,"hd","lower","shazer","nw","nw","h","h",1,0.606172128114849,NA,NA,NA
"experimental",16,19,"hd","lower","dumult","nw","nw","h","h",1,0.619334653834812,NA,NA,NA
"experimental",16,20,"hd","lower","design","w","w","g","g",1,0.64863807184156,NA,NA,NA
"experimental",16,21,"hd","lower","gelented","nw","nw","h","h",1,0.709334019920789,NA,NA,NA
"experimental",16,22,"hd","lower","parody","w","w","g","g",1,0.759370996849611,NA,NA,NA
"experimental",16,23,"hd","lower","crocodile","target","target","q","q",1,1.54234779358376,1,NA,NA
"experimental",16,24,"hd","lower","contund","aftertar1","nw","h","h",1,1.34334661928006,NA,NA,NA
"experimental",16,25,"hd","lower","budget","aftertar2","w","g","g",1,0.792968550580554,NA,NA,NA
"experimental",16,26,"hd","lower","located","aftertar3","w","g","g",1,0.8395131083671,NA,NA,NA
"experimental",16,27,"hd","lower","rational","w","w","g","g",1,0.627341862069443,NA,NA,NA
"experimental",16,28,"hd","lower","temelity","w","nw","h","h",1,1.09665324876551,NA,NA,NA
"experimental",16,29,"hd","lower","egpended","nw","nw","h","h",1,0.899303201003931,NA,NA,NA
"experimental",16,30,"hd","lower","tipoff","nw","w","g","h",0,0.67002212011721,NA,NA,NA
"experimental",17,1,"hd","lower","nameplate","w","w","g","g",1,3.04932931112126,NA,NA,NA
"experimental",17,2,"hd","lower","draze","nw","nw","h","h",1,1.06198201014195,NA,NA,NA
"experimental",17,3,"hd","lower","achieve","w","w","g","g",1,0.553961822297424,NA,NA,NA
"experimental",17,4,"hd","lower","snays","nw","nw","h","g",0,0.77804713754449,NA,NA,NA
"experimental",17,5,"hd","lower","scatter","w","w","g","g",1,0.809433027170599,NA,NA,NA
"experimental",17,6,"hd","lower","etber","nw","nw","h","h",1,0.863472551573068,NA,NA,NA
"experimental",17,7,"hd","lower","brudent","nw","nw","h","h",1,0.811508254497312,NA,NA,NA
"experimental",17,8,"hd","lower","actual","w","w","g","g",1,0.825492721400224,NA,NA,NA
"experimental",17,9,"hd","lower","louches","nw","nw","h","h",1,0.654039699933492,NA,NA,NA
"experimental",17,10,"hd","lower","ifkling","nw","nw","h","h",1,0.753977820510045,NA,NA,NA
"experimental",17,11,"hd","lower","party","w","w","g","g",1,0.952586286235601,NA,NA,NA
"experimental",17,12,"hd","lower","moozy","nw","nw","h","h",1,1.28067384718452,NA,NA,NA
"experimental",17,13,"hd","lower","dehydrate","w","w","g","g",1,0.884905499988236,NA,NA,NA
"experimental",17,14,"hd","lower","graveyard","w","w","g","g",1,0.66396638029255,NA,NA,NA
"experimental",17,15,"hd","lower","dredigest","nw","nw","h","g",0,0.659972586319782,NA,NA,NA
"experimental",17,16,"hd","lower","audience","w","w","g","g",1,0.663958834018558,NA,NA,NA
"experimental",17,17,"hd","lower","nimp","nw","nw","h","h",1,0.915109038120136,NA,NA,NA
"experimental",17,18,"hd","lower","caterpillar","target","target","q","q",1,1.46909845527261,1,NA,NA
"experimental",17,19,"hd","lower","baseline","aftertar1","w","g","g",1,1.24854691268411,NA,NA,NA
"experimental",17,20,"hd","lower","binder","aftertar2","w","g","g",1,0.653213231242262,NA,NA,NA
"experimental",17,21,"hd","lower","senior","aftertar3","w","g","g",1,0.713220354868099,NA,NA,NA
"experimental",17,22,"hd","lower","alber","w","nw","h","h",1,0.811242021853104,NA,NA,NA
"experimental",17,23,"hd","lower","intercede","nw","w","g","g",1,3.57654572941829,NA,NA,NA
"experimental",17,24,"hd","lower","mineluyer","w","nw","h","h",1,1.11993835633621,NA,NA,NA
"experimental",17,25,"hd","lower","medium","nw","w","g","g",1,1.50509753765073,NA,NA,NA
"experimental",17,26,"hd","lower","fraft","w","nw","h","h",1,1.23515437624883,NA,NA,NA
"experimental",17,27,"hd","lower","cooray","nw","nw","h","h",1,1.77589825855102,NA,NA,NA
"experimental",17,28,"hd","lower","unstatle","nw","nw","h","h",1,1.19926637515891,NA,NA,NA
"experimental",17,29,"hd","lower","chyme","nw","nw","h","h",1,0.661998310126364,NA,NA,NA
"experimental",17,30,"hd","lower","airline","nw","w","g","g",1,0.778040195000358,NA,NA,NA
"experimental",18,1,"hd","lower","omners","nw","nw","h","h",1,0.833351418725215,NA,NA,NA
"experimental",18,2,"hd","lower","lightels","nw","nw","h","g",0,1.8465881999582,NA,NA,NA
"experimental",18,3,"hd","lower","subpoena","w","w","g","g",1,1.06739903276321,NA,NA,NA
"experimental",18,4,"hd","lower","scrib","nw","nw","h","h",1,0.798704629996791,NA,NA,NA
"experimental",18,5,"hd","lower","trophy","w","w","g","g",1,0.788487266865559,NA,NA,NA
"experimental",18,6,"hd","lower","cookbook","w","w","g","g",1,0.779190248227678,NA,NA,NA
"experimental",18,7,"hd","lower","smabled","nw","nw","h","h",1,0.898451376822777,NA,NA,NA
"experimental",18,8,"hd","lower","sength","nw","nw","h","h",1,0.989209898747504,NA,NA,NA
"experimental",18,9,"hd","lower","unbridled","w","w","g","g",1,2.05994451418519,NA,NA,NA
"experimental",18,10,"hd","lower","incidonts","nw","nw","h","h",1,0.919996915501542,NA,NA,NA
"experimental",18,11,"hd","lower","elvisages","nw","nw","h","h",1,0.753381362301297,NA,NA,NA
"experimental",18,12,"hd","lower","painter","w","w","g","g",1,0.816478839144111,NA,NA,NA
"experimental",18,13,"hd","lower","selongs","nw","nw","h","h",1,0.735395253519528,NA,NA,NA
"experimental",18,14,"hd","lower","protest","w","w","g","g",1,0.951116572367027,NA,NA,NA
"experimental",18,15,"hd","lower","forbid","w","w","g","g",1,0.783166534733027,NA,NA,NA
"experimental",18,16,"hd","lower","maroon","w","w","g","g",1,1.09448988095392,NA,NA,NA
"experimental",18,17,"hd","lower","lizard","target","target","q","q",1,1.20117256580852,1,NA,NA
"experimental",18,18,"hd","lower","vorm","aftertar1","nw","h","h",1,1.16721399792004,NA,NA,NA
"experimental",18,19,"hd","lower","illness","aftertar2","w","g","h",0,0.814641168806702,NA,NA,NA
"experimental",18,20,"hd","lower","tining","aftertar3","nw","h","h",1,0.81054655648768,NA,NA,NA
"experimental",18,21,"hd","lower","expensive","nw","w","g","g",1,1.13664280483499,NA,NA,NA
"experimental",18,22,"hd","lower","chining","w","nw","h","h",1,1.79401929478627,NA,NA,NA
"experimental",18,23,"hd","lower","formation","nw","w","g","g",1,0.88096060580574,NA,NA,NA
"experimental",18,24,"hd","lower","prama","w","nw","h","h",1,0.924469143734314,NA,NA,NA
"experimental",18,25,"hd","lower","smallash","nw","nw","h","h",1,0.637898807879537,NA,NA,NA
"experimental",18,26,"hd","lower","deeper","nw","w","g","g",1,0.87453087233007,NA,NA,NA
"experimental",18,27,"hd","lower","rootsie","w","nw","h","h",1,0.709087105700746,NA,NA,NA
"experimental",18,28,"hd","lower","sputter","nw","w","g","h",0,0.655010151793249,NA,NA,NA
"experimental",18,29,"hd","lower","landing","w","w","g","h",0,0.587096336297691,NA,NA,NA
"experimental",18,30,"hd","lower","actively","w","w","g","g",1,0.729641666868702,NA,NA,NA
"experimental",19,1,"ld","upper","casino","w","w","g","g",1,0.795926692895591,NA,NA,NA
"experimental",19,2,"ld","upper","even","w","w","g","g",1,0.610519389854744,NA,NA,NA
"experimental",19,3,"ld","upper","surfaced","w","w","g","g",1,0.695696984068491,NA,NA,NA
"experimental",19,4,"ld","upper","purport","w","w","g","g",1,0.634389787097462,NA,NA,NA
"experimental",19,5,"ld","upper","truthful","w","w","g","g",1,0.630986414151266,NA,NA,NA
"experimental",19,6,"ld","upper","reddar","nw","nw","h","h",1,0.70035696378909,NA,NA,NA
"experimental",19,7,"ld","upper","addma","nw","nw","h","h",1,0.703098074882291,NA,NA,NA
"experimental",19,8,"ld","upper","foster","w","w","g","g",1,0.833120200550184,NA,NA,NA
"experimental",19,9,"ld","upper","subber","nw","nw","h","h",1,0.670515043195337,NA,NA,NA
"experimental",19,10,"ld","upper","chesume","nw","nw","h","h",1,0.664797678589821,NA,NA,NA
"experimental",19,11,"ld","upper","gelfry","nw","nw","h","h",1,0.691849889815785,NA,NA,NA
"experimental",19,12,"ld","upper","exclusion","w","w","g","g",1,0.782837818725966,NA,NA,NA
"experimental",19,13,"ld","upper","minister","w","w","g","g",1,0.766798952477984,NA,NA,NA
"experimental",19,14,"ld","upper","profats","nw","nw","h","h",1,0.639031655620784,NA,NA,NA
"experimental",19,15,"ld","upper","pracking","nw","nw","h","h",1,0.779785196995363,NA,NA,NA
"experimental",19,16,"ld","upper","egect","nw","nw","h","h",1,0.667249918216839,NA,NA,NA
"experimental",19,17,"ld","upper","emergence","w","w","g","g",1,0.918464718619362,NA,NA,NA
"experimental",19,18,"ld","upper","fivalve","nw","nw","h","h",1,0.695836439379491,NA,NA,NA
"experimental",19,19,"ld","upper","corg","nw","nw","h","h",1,0.617712807143107,NA,NA,NA
"experimental",19,20,"ld","upper","sengry","nw","nw","h","h",1,0.815012143924832,NA,NA,NA
"experimental",19,21,"ld","upper","yash","nw","nw","h","h",1,0.588991358410567,NA,NA,NA
"experimental",19,22,"ld","upper","shimble","nw","nw","h","h",1,1.10762071225327,NA,NA,NA
"experimental",19,23,"ld","upper","splatter","w","w","g","h",0,0.573621998191811,NA,NA,NA
"experimental",19,24,"ld","upper","ignore","w","w","g","g",1,0.669022388756275,NA,NA,NA
"experimental",19,25,"ld","upper","asclibed","nw","nw","h","h",1,0.680417273659259,NA,NA,NA
"experimental",19,26,"ld","upper","carnival","w","w","g","g",1,0.699778314912692,NA,NA,NA
"experimental",19,27,"ld","upper","tapling","nw","nw","h","h",1,0.910473206662573,NA,NA,NA
"experimental",19,28,"ld","upper","efficient","w","w","g","g",1,0.808510267990641,NA,NA,NA
"experimental",19,29,"ld","upper","grieving","w","w","g","g",1,0.773690820205957,NA,NA,NA
"experimental",19,30,"ld","upper","jiggling","w","w","g","g",1,0.60490133438725,NA,NA,NA
"experimental",20,1,"hd","lower","armada","w","w","g","g",1,3.26648019754793,NA,NA,NA
"experimental",20,2,"hd","lower","clattest","nw","nw","h","h",1,0.75051558658015,NA,NA,NA
"experimental",20,3,"hd","lower","surdens","nw","nw","h","h",1,2.00690079701599,NA,NA,NA
"experimental",20,4,"hd","lower","scabry","nw","nw","h","h",1,1.42079078429379,NA,NA,NA
"experimental",20,5,"hd","lower","hutting","nw","nw","h","h",1,1.00217984349001,NA,NA,NA
"experimental",20,6,"hd","lower","forecast","w","w","g","g",1,2.2883167208638,NA,NA,NA
"experimental",20,7,"hd","lower","geborn","nw","nw","h","h",1,0.874945917748846,NA,NA,NA
"experimental",20,8,"hd","lower","fisco","nw","nw","h","h",1,1.23032868024893,NA,NA,NA
"experimental",20,9,"hd","lower","buaint","nw","nw","h","h",1,0.714784850017168,NA,NA,NA
"experimental",20,10,"hd","lower","extruded","w","w","g","g",1,1.22079863247927,NA,NA,NA
"experimental",20,11,"hd","lower","shamrock","w","w","g","g",1,4.41020999231841,NA,NA,NA
"experimental",20,12,"hd","lower","attended","w","w","g","g",1,3.06434942956548,NA,NA,NA
"experimental",20,13,"hd","lower","handed","w","w","g","g",1,1.10054139478598,NA,NA,NA
"experimental",20,14,"hd","lower","telecast","w","w","g","g",1,1.90141253755428,NA,NA,NA
"experimental",20,15,"hd","lower","harder","w","w","g","g",1,1.84750401659403,NA,NA,NA
"experimental",20,16,"hd","lower","flamingo","target","target","q","g",0,1.4922721798066,NA,NA,NA
"experimental",20,17,"hd","lower","earmaff","aftertar1","nw","h","h",1,0.918005301035009,NA,NA,NA
"experimental",20,18,"hd","lower","gairs","aftertar2","nw","h","h",1,3.38306360354181,NA,NA,NA
"experimental",20,19,"hd","lower","germeated","aftertar3","nw","h","h",1,2.71878558641765,NA,NA,NA
"experimental",20,20,"hd","lower","ronic","nw","nw","h","h",1,1.80813325580675,NA,NA,NA
"experimental",20,21,"hd","lower","mitro","nw","nw","h","h",1,1.55807545117568,NA,NA,NA
"experimental",20,22,"hd","lower","machinery","nw","w","g","g",1,0.822176281595603,NA,NA,NA
"experimental",20,23,"hd","lower","venturous","w","w","g","h",0,0.859642059192993,NA,NA,NA
"experimental",20,24,"hd","lower","melodic","w","w","g","g",1,0.887529492843896,NA,NA,NA
"experimental",20,25,"hd","lower","gettle","w","nw","h","h",1,0.786264736088924,NA,NA,NA
"experimental",20,26,"hd","lower","aqueduct","nw","w","g","g",1,1.5760534099536,NA,NA,NA
"experimental",20,27,"hd","lower","manage","w","w","g","g",1,1.65535275300499,NA,NA,NA
"experimental",20,28,"hd","lower","defensa","w","nw","h","g",0,2.17942357924767,NA,NA,NA
"experimental",20,29,"hd","lower","paterways","nw","nw","h","h",1,3.09086253435817,NA,NA,NA
"experimental",20,30,"hd","lower","saturate","nw","w","g","g",1,2.34071809856687,NA,NA,NA
"experimental",21,1,"ld","upper","skiing","w","w","g","g",1,3.63670921197627,NA,NA,NA
"experimental",21,2,"ld","upper","thesis","w","w","g","g",1,0.626689259661362,NA,NA,NA
"experimental",21,3,"ld","upper","puyer","nw","nw","h","h",1,0.71197220007889,NA,NA,NA
"experimental",21,4,"ld","upper","withep","nw","nw","h","h",1,0.545176441548392,NA,NA,NA
"experimental",21,5,"ld","upper","mixture","w","w","g","g",1,0.705693995696492,NA,NA,NA
"experimental",21,6,"ld","upper","lanthers","nw","nw","h","h",1,1.74782488448545,NA,NA,NA
"experimental",21,7,"ld","upper","atabaster","nw","nw","h","h",1,1.14055992860813,NA,NA,NA
"experimental",21,8,"ld","upper","coverall","w","w","g","h",0,0.653247642330825,NA,NA,NA
"experimental",21,9,"ld","upper","pranny","nw","nw","h","h",1,0.569197462522425,NA,NA,NA
"experimental",21,10,"ld","upper","chone","nw","nw","h","h",1,0.720577677362598,NA,NA,NA
"experimental",21,11,"ld","upper","spider","target","target","q","g",0,0.729970080894418,NA,NA,NA
"experimental",21,12,"ld","upper","opert","aftertar1","nw","h","g",0,0.898423606413417,NA,NA,NA
"experimental",21,13,"ld","upper","fudden","aftertar2","nw","h","g",0,0.509109442704357,NA,NA,NA
"experimental",21,14,"ld","upper","hangar","aftertar3","w","g","h",0,0.335048124543391,NA,NA,NA
"experimental",21,15,"ld","upper","module","w","w","g","g",1,0.775868677068502,NA,NA,NA
"experimental",21,16,"ld","upper","spiud","w","nw","h","h",1,0.919134224765003,NA,NA,NA
"experimental",21,17,"ld","upper","column","nw","w","g","g",1,0.512527304468676,NA,NA,NA
"experimental",21,18,"ld","upper","checkout","w","w","g","g",1,0.714578987448476,NA,NA,NA
"experimental",21,19,"ld","upper","caution","w","w","g","g",1,0.652614962076768,NA,NA,NA
"experimental",21,20,"ld","upper","halms","w","nw","h","h",1,0.800618366920389,NA,NA,NA
"experimental",21,21,"ld","upper","daining","nw","nw","h","h",1,0.869799655745737,NA,NA,NA
"experimental",21,22,"ld","upper","organize","nw","w","g","g",1,1.14509946946055,NA,NA,NA
"experimental",21,23,"ld","upper","handle","w","w","g","g",1,0.632544570253231,NA,NA,NA
"experimental",21,24,"ld","upper","gremieres","w","nw","h","h",1,0.694017181755044,NA,NA,NA
"experimental",21,25,"ld","upper","divider","nw","w","g","g",1,0.577242402127013,NA,NA,NA
"experimental",21,26,"ld","upper","overflow","w","w","g","g",1,0.48925970424898,NA,NA,NA
"experimental",21,27,"ld","upper","extend","w","w","g","g",1,0.51597655878868,NA,NA,NA
"experimental",21,28,"ld","upper","walsams","w","nw","h","h",1,0.741933955345303,NA,NA,NA
"experimental",21,29,"ld","upper","derisury","nw","nw","h","g",0,0.510648884112015,NA,NA,NA
"experimental",21,30,"ld","upper","poughest","nw","nw","h","h",1,0.784017151687294,NA,NA,NA
"experimental",22,1,"ld","upper","dariner","nw","nw","h","g",0,1.42251616611611,NA,NA,NA
"experimental",22,2,"ld","upper","rillains","nw","nw","h","h",1,4.68319068301935,NA,NA,NA
"experimental",22,3,"ld","upper","decant","w","w","g","g",1,2.80646703671664,NA,NA,NA
"experimental",22,4,"ld","upper","plartly","nw","nw","h","h",1,1.51655732060317,NA,NA,NA
"experimental",22,5,"ld","upper","nelvet","nw","nw","h","h",1,1.42247390700504,NA,NA,NA
"experimental",22,6,"ld","upper","gures","nw","nw","h","h",1,0.627841425943188,NA,NA,NA
"experimental",22,7,"ld","upper","bettled","nw","nw","h","h",1,1.0972131829476,NA,NA,NA
"experimental",22,8,"ld","upper","contact","w","w","g","g",1,0.547060597105883,NA,NA,NA
"experimental",22,9,"ld","upper","threaded","w","w","g","g",1,1.6356424697442,NA,NA,NA
"experimental",22,10,"ld","upper","maiden","w","w","g","g",1,0.583172269980423,NA,NA,NA
"experimental",22,11,"ld","upper","ergonomic","w","w","g","h",0,0.934757441864349,NA,NA,NA
"experimental",22,12,"ld","upper","trembla","nw","nw","h","h",1,0.760144943371415,NA,NA,NA
"experimental",22,13,"ld","upper","oppose","w","w","g","g",1,0.568506223149598,NA,NA,NA
"experimental",22,14,"ld","upper","labitable","nw","nw","h","h",1,0.951794530265033,NA,NA,NA
"experimental",22,15,"ld","upper","sporidic","nw","nw","h","h",1,1.90391156403348,NA,NA,NA
"experimental",22,16,"ld","upper","slogan","w","w","g","g",1,2.66493743576575,NA,NA,NA
"experimental",22,17,"ld","upper","calming","w","w","g","g",1,0.70110827148892,NA,NA,NA
"experimental",22,18,"ld","upper","geadpan","nw","nw","h","h",1,1.11904940439854,NA,NA,NA
"experimental",22,19,"ld","upper","result","w","w","g","g",1,0.704366152058356,NA,NA,NA
"experimental",22,20,"ld","upper","etcess","nw","nw","h","h",1,0.842438650666736,NA,NA,NA
"experimental",22,21,"ld","upper","legalize","w","w","g","g",1,0.7752136598574,NA,NA,NA
"experimental",22,22,"ld","upper","spaceship","w","w","g","g",1,0.982486463966779,NA,NA,NA
"experimental",22,23,"ld","upper","destroy","w","w","g","g",1,3.54889796569478,NA,NA,NA
"experimental",22,24,"ld","upper","decantel","nw","nw","h","h",1,0.741662591113709,NA,NA,NA
"experimental",22,25,"ld","upper","personify","w","w","g","g",1,1.23034015065059,NA,NA,NA
"experimental",22,26,"ld","upper","nimono","nw","nw","h","h",1,1.15572433173656,NA,NA,NA
"experimental",22,27,"ld","upper","trises","nw","nw","h","g",0,0.859792682924308,NA,NA,NA
"experimental",22,28,"ld","upper","inforl","nw","nw","h","h",1,0.887810214539059,NA,NA,NA
"experimental",22,29,"ld","upper","pester","w","w","g","g",1,0.946535677765496,NA,NA,NA
"experimental",22,30,"ld","upper","fission","w","w","g","g",1,0.801118836272508,NA,NA,NA
"experimental",23,1,"hd","lower","joses","nw","nw","h","g",0,4.00847132923082,NA,NA,NA
"experimental",23,2,"hd","lower","angry","w","w","g","g",1,0.822478736517951,NA,NA,NA
"experimental",23,3,"hd","lower","glaims","nw","nw","h","h",1,0.995035627973266,NA,NA,NA
"experimental",23,4,"hd","lower","alomalous","nw","nw","h","h",1,0.697732367087156,NA,NA,NA
"experimental",23,5,"hd","lower","abhorrent","w","w","g","h",0,0.86033028003294,NA,NA,NA
"experimental",23,6,"hd","lower","lecked","nw","nw","h","h",1,1.32036064635031,NA,NA,NA
"experimental",23,7,"hd","lower","student","w","w","g","g",1,2.11376459267922,NA,NA,NA
"experimental",23,8,"hd","lower","index","w","w","g","g",1,1.9878180626547,NA,NA,NA
"experimental",23,9,"hd","lower","phraining","nw","nw","h","h",1,1.12159642530605,NA,NA,NA
"experimental",23,10,"hd","lower","intersect","w","w","g","g",1,1.58703415491618,NA,NA,NA
"experimental",23,11,"hd","lower","pender","nw","nw","h","g",0,1.31358046352398,NA,NA,NA
"experimental",23,12,"hd","lower","slimped","nw","nw","h","h",1,1.63549395895097,NA,NA,NA
"experimental",23,13,"hd","lower","lignpost","nw","nw","h","g",0,2.44032357900869,NA,NA,NA
"experimental",23,14,"hd","lower","inverted","w","w","g","g",1,1.76497637457214,NA,NA,NA
"experimental",23,15,"hd","lower","bumbo","nw","nw","h","g",0,2.38690134033095,NA,NA,NA
"experimental",23,16,"hd","lower","icepick","w","w","g","g",1,1.13067611109,NA,NA,NA
"experimental",23,17,"hd","lower","enacted","w","w","g","h",0,1.01212252187543,NA,NA,NA
"experimental",23,18,"hd","lower","metebing","nw","nw","h","h",1,2.17823398346081,NA,NA,NA
"experimental",23,19,"hd","lower","runabouk","nw","nw","h","g",0,3.03364874224644,NA,NA,NA
"experimental",23,20,"hd","lower","movie","w","w","g","g",1,1.32697118876968,NA,NA,NA
"experimental",23,21,"hd","lower","blueberry","w","w","g","g",1,1.35944917623419,NA,NA,NA
"experimental",23,22,"hd","lower","hanling","nw","nw","h","h",1,1.44750431855209,NA,NA,NA
"experimental",23,23,"hd","lower","hivinity","nw","nw","h","h",1,1.72421407932416,NA,NA,NA
"experimental",23,24,"hd","lower","bedding","w","w","g","h",0,1.87765110866167,NA,NA,NA
"experimental",23,25,"hd","lower","arbitrary","w","w","g","g",1,0.752934320596978,NA,NA,NA
"experimental",23,26,"hd","lower","farochial","nw","nw","h","h",1,2.43212197860703,NA,NA,NA
"experimental",23,27,"hd","lower","category","w","w","g","g",1,3.35744760057423,NA,NA,NA
"experimental",23,28,"hd","lower","sopes","nw","nw","h","h",1,1.18147616775241,NA,NA,NA
"experimental",23,29,"hd","lower","cabinet","w","w","g","g",1,1.91691199573688,NA,NA,NA
"experimental",23,30,"hd","lower","preclude","w","w","g","g",1,1.78180760052055,NA,NA,NA
"experimental",24,1,"ld","upper","tredits","nw","nw","h","h",1,5.6855421041837,NA,NA,NA
"experimental",24,2,"ld","upper","schides","nw","nw","h","h",1,1.78434858436231,NA,NA,NA
"experimental",24,3,"ld","upper","guitar","w","w","g","g",1,2.08611924375873,NA,NA,NA
"experimental",24,4,"ld","upper","unsmilung","nw","nw","h","g",0,0.864703501109034,NA,NA,NA
"experimental",24,5,"ld","upper","poars","nw","nw","h","h",1,0.628777164849453,NA,NA,NA
"experimental",24,6,"ld","upper","encrusted","w","w","g","g",1,1.82616132183466,NA,NA,NA
"experimental",24,7,"ld","upper","holdup","w","w","g","h",0,0.943525013397448,NA,NA,NA
"experimental",24,8,"ld","upper","corduroy","w","w","g","h",0,0.904212509747595,NA,NA,NA
"experimental",24,9,"ld","upper","bypassed","w","w","g","h",0,1.1703043510206,NA,NA,NA
"experimental",24,10,"ld","upper","sooled","nw","nw","h","g",0,1.38472137064673,NA,NA,NA
"experimental",24,11,"ld","upper","gonesty","nw","nw","h","h",1,3.35940359672531,NA,NA,NA
"experimental",24,12,"ld","upper","pripend","nw","nw","h","h",1,0.495442825369537,NA,NA,NA
"experimental",24,13,"ld","upper","standard","w","w","g","g",1,1.02622531435918,NA,NA,NA
"experimental",24,14,"ld","upper","retain","w","w","g","g",1,0.654456858406775,NA,NA,NA
"experimental",24,15,"ld","upper","ebuating","nw","nw","h","g",0,0.0183699373155832,NA,NA,NA
"experimental",24,16,"ld","upper","affluent","w","w","g","g",1,0.856189786456525,NA,NA,NA
"experimental",24,17,"ld","upper","digar","nw","nw","h","h",1,1.07604224153329,NA,NA,NA
"experimental",24,18,"ld","upper","cervical","w","w","g","h",0,1.09544191975147,NA,NA,NA
"experimental",24,19,"ld","upper","forfeit","w","w","g","g",1,0.649987950571813,NA,NA,NA
"experimental",24,20,"ld","upper","probable","w","w","g","g",1,0.822746176738292,NA,NA,NA
"experimental",24,21,"ld","upper","wrecber","nw","nw","h","g",0,1.20408724155277,NA,NA,NA
"experimental",24,22,"ld","upper","dazid","nw","nw","h","g",0,1.56227148557082,NA,NA,NA
"experimental",24,23,"ld","upper","gepealed","nw","nw","h","h",1,1.04230523237493,NA,NA,NA
"experimental",24,24,"ld","upper","senalize","nw","nw","h","h",1,1.09500363178086,NA,NA,NA
"experimental",24,25,"ld","upper","official","w","w","g","g",1,1.04074647254311,NA,NA,NA
"experimental",24,26,"ld","upper","target","w","w","g","g",1,2.15735976188444,NA,NA,NA
"experimental",24,27,"ld","upper","chonemic","nw","nw","h","g",0,2.73352739796974,NA,NA,NA
"experimental",24,28,"ld","upper","tragedy","w","w","g","h",0,1.00689174153376,NA,NA,NA
"experimental",24,29,"ld","upper","adok","nw","nw","h","g",0,2.09294259140734,NA,NA,NA
"experimental",24,30,"ld","upper","midday","w","w","g","h",0,1.34275680198334,NA,NA,NA
"experimental",25,1,"ld","upper","amplifier","w","w","g","g",1,1.25499324803241,NA,NA,NA
"experimental",25,2,"ld","upper","maintain","w","w","g","g",1,1.62748010992073,NA,NA,NA
"experimental",25,3,"ld","upper","mining","w","w","g","g",1,2.77682433812879,NA,NA,NA
"experimental",25,4,"ld","upper","miracle","w","w","g","g",1,2.59196459327359,NA,NA,NA
"experimental",25,5,"ld","upper","numbled","nw","nw","h","g",0,0.718685371801257,NA,NA,NA
"experimental",25,6,"ld","upper","rascaps","nw","nw","h","h",1,0.680049015092663,NA,NA,NA
"experimental",25,7,"ld","upper","otiates","nw","nw","h","h",1,0.675469327834435,NA,NA,NA
"experimental",25,8,"ld","upper","olgies","nw","nw","h","h",1,0.75101515033748,NA,NA,NA
"experimental",25,9,"ld","upper","mennel","nw","nw","h","h",1,0.646865903050639,NA,NA,NA
"experimental",25,10,"ld","upper","rapport","w","w","g","g",1,0.795546964043751,NA,NA,NA
"experimental",25,11,"ld","upper","flicking","w","w","g","g",1,0.969340540003032,NA,NA,NA
"experimental",25,12,"ld","upper","glapula","nw","nw","h","h",1,1.32081221579574,NA,NA,NA
"experimental",25,13,"ld","upper","dests","nw","nw","h","h",1,0.882029461208731,NA,NA,NA
"experimental",25,14,"ld","upper","racile","nw","nw","h","h",1,0.34137522871606,NA,NA,NA
"experimental",25,15,"ld","upper","reforest","w","w","g","g",1,1.29411377431825,NA,NA,NA
"experimental",25,16,"ld","upper","series","w","w","g","g",1,1.17684365657624,NA,NA,NA
"experimental",25,17,"ld","upper","heuls","nw","nw","h","h",1,1.68026000901591,NA,NA,NA
"experimental",25,18,"ld","upper","ottans","nw","nw","h","h",1,0.610710159875453,NA,NA,NA
"experimental",25,19,"ld","upper","amkles","nw","nw","h","h",1,1.50469547184184,NA,NA,NA
"experimental",25,20,"ld","upper","restock","w","w","g","g",1,1.69070194952656,NA,NA,NA
"experimental",25,21,"ld","upper","remain","w","w","g","g",1,0.564223255612887,NA,NA,NA
"experimental",25,22,"ld","upper","swatches","w","w","g","g",1,1.05245528265368,NA,NA,NA
"experimental",25,23,"ld","upper","undue","w","w","g","g",1,0.745255224755965,NA,NA,NA
"experimental",25,24,"ld","upper","elpousal","nw","nw","h","g",0,0.76218606159091,NA,NA,NA
"experimental",25,25,"ld","upper","dialogues","w","w","g","g",1,1.02629383455496,NA,NA,NA
"experimental",25,26,"ld","upper","favoting","nw","nw","h","h",1,0.670774937258102,NA,NA,NA
"experimental",25,27,"ld","upper","greft","nw","nw","h","h",1,0.817933762213215,NA,NA,NA
"experimental",25,28,"ld","upper","chemical","w","w","g","g",1,0.591325272340328,NA,NA,NA
"experimental",25,29,"ld","upper","volition","w","w","g","g",1,0.710106457350776,NA,NA,NA
"experimental",25,30,"ld","upper","grummer","nw","nw","h","h",1,0.728075360646471,NA,NA,NA
"experimental",26,1,"hd","lower","absent","w","w","g","g",1,2.65731176757254,NA,NA,NA
"experimental",26,2,"hd","lower","nopping","nw","nw","h","h",1,1.72531311982311,NA,NA,NA
"experimental",26,3,"hd","lower","oginous","nw","nw","h","h",1,1.26271520683076,NA,NA,NA
"experimental",26,4,"hd","lower","antonym","w","w","g","g",1,1.26684181531891,NA,NA,NA
"experimental",26,5,"hd","lower","surround","w","w","g","g",1,1.35078785638325,NA,NA,NA
"experimental",26,6,"hd","lower","harmful","w","w","g","g",1,0.974884038325399,NA,NA,NA
"experimental",26,7,"hd","lower","persona","w","w","g","g",1,1.33345404814463,NA,NA,NA
"experimental",26,8,"hd","lower","mosary","nw","nw","h","g",0,2.57351121876854,NA,NA,NA
"experimental",26,9,"hd","lower","neliefs","nw","nw","h","g",0,1.13315370609052,NA,NA,NA
"experimental",26,10,"hd","lower","atble","nw","nw","h","h",1,0.591274259495549,NA,NA,NA
"experimental",26,11,"hd","lower","fracture","w","w","g","h",0,0.622095083585009,NA,NA,NA
"experimental",26,12,"hd","lower","infancy","w","w","g","h",0,0.779424182954244,NA,NA,NA
"experimental",26,13,"hd","lower","allained","nw","nw","h","g",0,0.0508162303594872,NA,NA,NA
"experimental",26,14,"hd","lower","reses","nw","nw","h","g",0,0.286876890459098,NA,NA,NA
"experimental",26,15,"hd","lower","fragment","w","w","g","g",1,0.736793730407953,NA,NA,NA
"experimental",26,16,"hd","lower","perishing","w","w","g","g",1,0.369563004351221,NA,NA,NA
"experimental",26,17,"hd","lower","hackal","nw","nw","h","g",0,0.6645860808203,NA,NA,NA
"experimental",26,18,"hd","lower","tasher","nw","nw","h","g",0,3.26868401351385,NA,NA,NA
"experimental",26,19,"hd","lower","describe","w","w","g","h",0,0.496046527754515,NA,NA,NA
"experimental",26,20,"hd","lower","pepperoni","w","w","g","g",1,1.98682436835952,NA,NA,NA
"experimental",26,21,"hd","lower","encounter","w","w","g","h",0,2.33677350636572,NA,NA,NA
"experimental",26,22,"hd","lower","iflaid","nw","nw","h","g",0,1.16927111428231,NA,NA,NA
"experimental",26,23,"hd","lower","impirt","nw","nw","h","g",0,1.60863251774572,NA,NA,NA
"experimental",26,24,"hd","lower","butterfly","target","target","q","g",0,1.43869086552877,NA,NA,NA
"experimental",26,25,"hd","lower","fonducts","aftertar1","nw","h","g",0,1.85944434662815,NA,NA,NA
"experimental",26,26,"hd","lower","itfidels","aftertar2","nw","h","h",1,1.19149098859634,NA,NA,NA
"experimental",26,27,"hd","lower","stifle","aftertar3","w","g","h",0,1.02216149086598,NA,NA,NA
"experimental",26,28,"hd","lower","veclors","w","nw","h","g",0,1.60138023947366,NA,NA,NA
"experimental",26,29,"hd","lower","function","nw","w","g","h",0,1.44753148499876,NA,NA,NA
"experimental",26,30,"hd","lower","handbook","w","w","g","g",1,0.869034160976298,NA,NA,NA
"experimental",27,1,"hd","lower","capobly","nw","nw","h","h",1,0.688607101910748,NA,NA,NA
"experimental",27,2,"hd","lower","triplet","w","w","g","h",0,0.315134695498273,NA,NA,NA
"experimental",27,3,"hd","lower","inversion","w","w","g","g",1,0.245244358084165,NA,NA,NA
"experimental",27,4,"hd","lower","endgume","nw","nw","h","g",0,0.553865833673626,NA,NA,NA
"experimental",27,5,"hd","lower","infusion","w","w","g","g",1,1.52994472545106,NA,NA,NA
"experimental",27,6,"hd","lower","appain","nw","nw","h","g",0,0.339283701381646,NA,NA,NA
"experimental",27,7,"hd","lower","gazes","w","w","g","g",1,1.46000428067055,NA,NA,NA
"experimental",27,8,"hd","lower","oldest","w","w","g","g",1,1.03999425924849,NA,NA,NA
"experimental",27,9,"hd","lower","moyeur","nw","nw","h","h",1,0.988698260858655,NA,NA,NA
"experimental",27,10,"hd","lower","sorping","nw","nw","h","h",1,0.811499802744947,NA,NA,NA
"experimental",27,11,"hd","lower","causality","w","w","g","g",1,1.88847790949512,NA,NA,NA
"experimental",27,12,"hd","lower","martial","w","w","g","g",1,0.699271204764955,NA,NA,NA
"experimental",27,13,"hd","lower","traze","nw","nw","h","h",1,0.797944568446837,NA,NA,NA
"experimental",27,14,"hd","lower","plogging","nw","nw","h","h",1,1.2847126169363,NA,NA,NA
"experimental",27,15,"hd","lower","rocket","w","w","g","h",0,0.567340171779506,NA,NA,NA
"experimental",27,16,"hd","lower","publish","w","w","g","g",1,0.646761462441646,NA,NA,NA
"experimental",27,17,"hd","lower","ilterfere","nw","nw","h","h",1,2.59472441929393,NA,NA,NA
"experimental",27,18,"hd","lower","topefuls","nw","nw","h","g",0,0.76836767338682,NA,NA,NA
"experimental",27,19,"hd","lower","erithets","nw","nw","h","h",1,1.05637150083203,NA,NA,NA
"experimental",27,20,"hd","lower","accessory","w","w","g","g",1,2.13260041282047,NA,NA,NA
"experimental",27,21,"hd","lower","chappef","nw","nw","h","g",0,0.99794819066301,NA,NA,NA
"experimental",27,22,"hd","lower","hegacy","nw","nw","h","h",1,0.748679425334558,NA,NA,NA
"experimental",27,23,"hd","lower","sustain","w","w","g","g",1,2.35656076157466,NA,NA,NA
"experimental",27,24,"hd","lower","define","w","w","g","g",1,3.86854244535789,NA,NA,NA
"experimental",27,25,"hd","lower","unburnid","nw","nw","h","h",1,3.53596363950055,NA,NA,NA
"experimental",27,26,"hd","lower","wienegs","nw","nw","h","h",1,1.02464602864347,NA,NA,NA
"experimental",27,27,"hd","lower","uncle","w","w","g","g",1,1.26203362667002,NA,NA,NA
"experimental",27,28,"hd","lower","miurnal","nw","nw","h","h",1,0.753285977407359,NA,NA,NA
"experimental",27,29,"hd","lower","culinary","w","w","g","g",1,0.80112577881664,NA,NA,NA
"experimental",27,30,"hd","lower","rabbit","target","target","q","g",0,0.831142471171916,NA,NA,NA
"experimental",28,1,"hd","lower","dounger","nw","nw","h","h",1,0.813394824974239,NA,NA,NA
"experimental",28,2,"hd","lower","coupling","w","w","g","h",0,0.0983508602948859,NA,NA,NA
"experimental",28,3,"hd","lower","emission","w","w","g","h",0,0.708111824351363,NA,NA,NA
"experimental",28,4,"hd","lower","erony","nw","nw","h","g",0,0.215483333799057,NA,NA,NA
"experimental",28,5,"hd","lower","grested","nw","nw","h","g",0,1.01305644970853,NA,NA,NA
"experimental",28,6,"hd","lower","sliding","w","w","g","g",1,1.8192042541923,NA,NA,NA
"experimental",28,7,"hd","lower","noblin","nw","nw","h","g",0,1.59254927921575,NA,NA,NA
"experimental",28,8,"hd","lower","fetching","w","w","g","g",1,1.36728010338265,NA,NA,NA
"experimental",28,9,"hd","lower","thacked","nw","nw","h","g",0,1.51076056901366,NA,NA,NA
"experimental",28,10,"hd","lower","monkey","target","target","q","h",0,0.0566730502760038,NA,NA,NA
"experimental",28,11,"hd","lower","dreaded","aftertar1","w","g","g",1,0.699907205300406,NA,NA,NA
"experimental",28,12,"hd","lower","digest","aftertar2","w","g","g",1,0.662458935170434,NA,NA,NA
"experimental",28,13,"hd","lower","analysis","aftertar3","w","g","g",1,1.97848602931481,NA,NA,NA
"experimental",28,14,"hd","lower","ulcer","w","w","g","g",1,0.729833040502854,NA,NA,NA
"experimental",28,15,"hd","lower","mullet","w","w","g","g",1,0.851263573975302,NA,NA,NA
"experimental",28,16,"hd","lower","integral","w","w","g","g",1,0.671279934234917,NA,NA,NA
"experimental",28,17,"hd","lower","prame","w","nw","h","h",1,0.914640263305046,NA,NA,NA
"experimental",28,18,"hd","lower","hinsome","nw","nw","h","h",1,0.644714005524293,NA,NA,NA
"experimental",28,19,"hd","lower","glamorous","nw","w","g","g",1,0.912517041550018,NA,NA,NA
"experimental",28,20,"hd","lower","birn","w","nw","h","g",0,4.16255733871367,NA,NA,NA
"experimental",28,21,"hd","lower","cessation","nw","w","g","g",1,0.690545892342925,NA,NA,NA
"experimental",28,22,"hd","lower","hatred","w","w","g","g",1,0.613307590014301,NA,NA,NA
"experimental",28,23,"hd","lower","dileting","w","nw","h","h",1,1.95415108301677,NA,NA,NA
"experimental",28,24,"hd","lower","vergas","nw","nw","h","h",1,0.746509416727349,NA,NA,NA
"experimental",28,25,"hd","lower","maximized","nw","w","g","h",0,2.77060952270404,NA,NA,NA
"experimental",28,26,"hd","lower","cegalia","w","nw","h","g",0,2.49856879690196,NA,NA,NA
"experimental",28,27,"hd","lower","gumdrep","nw","nw","h","h",1,1.18122864980251,NA,NA,NA
"experimental",28,28,"hd","lower","antique","nw","w","g","h",0,0.981596002704464,NA,NA,NA
"experimental",28,29,"hd","lower","lutton","w","nw","h","g",0,0.291997193242423,NA,NA,NA
"experimental",28,30,"hd","lower","guivers","nw","nw","h","g",0,0.478699739906006,NA,NA,NA
"experimental",29,1,"ld","upper","jinds","nw","nw","h","h",1,2.22587094083428,NA,NA,NA
"experimental",29,2,"ld","upper","squadroim","nw","nw","h","h",1,1.65536452515516,NA,NA,NA
"experimental",29,3,"ld","upper","rarely","w","w","g","h",0,0.171286575030535,NA,NA,NA
"experimental",29,4,"ld","upper","ausht","nw","nw","h","g",0,0.466652856441215,NA,NA,NA
"experimental",29,5,"ld","upper","expounded","w","w","g","h",0,0.518720084684901,NA,NA,NA
"experimental",29,6,"ld","upper","pamine","nw","nw","h","h",1,0.415165786165744,NA,NA,NA
"experimental",29,7,"ld","upper","unversed","w","w","g","h",0,0.341111108893529,NA,NA,NA
"experimental",29,8,"ld","upper","dontrite","nw","nw","h","h",1,0.341793292784132,NA,NA,NA
"experimental",29,9,"ld","upper","shockwave","w","w","g","g",1,1.36657739360817,NA,NA,NA
"experimental",29,10,"ld","upper","bloves","nw","nw","h","g",0,0.678493273677304,NA,NA,NA
"experimental",29,11,"ld","upper","golemic","nw","nw","h","h",1,0.855915101710707,NA,NA,NA
"experimental",29,12,"ld","upper","giving","w","w","g","g",1,0.939944151905365,NA,NA,NA
"experimental",29,13,"ld","upper","static","w","w","g","g",1,0.853412754833698,NA,NA,NA
"experimental",29,14,"ld","upper","yellep","nw","nw","h","h",1,1.28910968406126,NA,NA,NA
"experimental",29,15,"ld","upper","catacomb","w","w","g","g",1,0.62764793925453,NA,NA,NA
"experimental",29,16,"ld","upper","deakers","nw","nw","h","g",0,1.7449908030685,NA,NA,NA
"experimental",29,17,"ld","upper","flooted","nw","nw","h","h",1,2.05776786478236,NA,NA,NA
"experimental",29,18,"ld","upper","togglo","nw","nw","h","h",1,2.27781108987983,NA,NA,NA
"experimental",29,19,"ld","upper","inducing","w","w","g","h",0,2.64130218070932,NA,NA,NA
"experimental",29,20,"ld","upper","nogwhell","nw","nw","h","h",1,3.87698401743546,NA,NA,NA
"experimental",29,21,"ld","upper","equitable","w","w","g","h",0,1.05639383778907,NA,NA,NA
"experimental",29,22,"ld","upper","ezulated","nw","nw","h","g",0,3.08449800068047,NA,NA,NA
"experimental",29,23,"ld","upper","frogmy","nw","nw","h","h",1,1.62317872967105,NA,NA,NA
"experimental",29,24,"ld","upper","mortgage","w","w","g","h",0,1.71567410370335,NA,NA,NA
"experimental",29,25,"ld","upper","retreat","w","w","g","g",1,1.21367192431353,NA,NA,NA
"experimental",29,26,"ld","upper","artifact","w","w","g","h",0,0.555647661560215,NA,NA,NA
"experimental",29,27,"ld","upper","reprint","w","w","g","g",1,0.755721615045331,NA,NA,NA
"experimental",29,28,"ld","upper","rodeo","w","w","g","h",0,2.44257750234101,NA,NA,NA
"experimental",29,29,"ld","upper","other","w","w","g","g",1,1.85594770172611,NA,NA,NA
"experimental",29,30,"ld","upper","apop","nw","nw","h","g",0,1.8365673419321,NA,NA,NA
"experimental",30,1,"hd","lower","sefine","nw","nw","h","h",1,1.761084304424,NA,NA,NA
"experimental",30,2,"hd","lower","goblet","w","w","g","g",1,1.14512059907429,NA,NA,NA
"experimental",30,3,"hd","lower","mystery","w","w","g","g",1,1.28982084570453,NA,NA,NA
"experimental",30,4,"hd","lower","courier","w","w","g","h",0,3.32359830278438,NA,NA,NA
"experimental",30,5,"hd","lower","elpired","nw","nw","h","h",1,2.25305083522107,NA,NA,NA
"experimental",30,6,"hd","lower","egcused","nw","nw","h","h",1,0.905041997088119,NA,NA,NA
"experimental",30,7,"hd","lower","system","w","w","g","g",1,1.27512008592021,NA,NA,NA
"experimental",30,8,"hd","lower","fillings","w","w","g","g",1,1.00648062012624,NA,NA,NA
"experimental",30,9,"hd","lower","irfirm","nw","nw","h","h",1,0.843655111268163,NA,NA,NA
"experimental",30,10,"hd","lower","parent","w","w","g","g",1,0.672254611970857,NA,NA,NA
"experimental",30,11,"hd","lower","atsless","nw","nw","h","h",1,2.60359160182998,NA,NA,NA
"experimental",30,12,"hd","lower","blassed","nw","nw","h","h",1,0.848466016585007,NA,NA,NA
"experimental",30,13,"hd","lower","aefated","nw","nw","h","h",1,0.733240941073745,NA,NA,NA
"experimental",30,14,"hd","lower","chiffol","nw","nw","h","h",1,0.647229030029848,NA,NA,NA
"experimental",30,15,"hd","lower","begut","nw","nw","h","h",1,0.0204825941473246,NA,NA,NA
"experimental",30,16,"hd","lower","bullet","w","w","g","h",0,0.977666201302782,NA,NA,NA
"experimental",30,17,"hd","lower","dealer","w","w","g","h",0,2.63307099894155,NA,NA,NA
"experimental",30,18,"hd","lower","troven","nw","nw","h","h",1,1.57340647629462,NA,NA,NA
"experimental",30,19,"hd","lower","educate","w","w","g","h",0,1.84483444411308,NA,NA,NA
"experimental",30,20,"hd","lower","outflow","w","w","g","g",1,2.18555206537712,NA,NA,NA
"experimental",30,21,"hd","lower","solidity","w","w","g","g",1,1.93630503315944,NA,NA,NA
"experimental",30,22,"hd","lower","resume","w","w","g","g",1,1.36103902675677,NA,NA,NA
"experimental",30,23,"hd","lower","trallion","nw","nw","h","g",0,1.27216133999173,NA,NA,NA
"experimental",30,24,"hd","lower","erlighten","nw","nw","h","g",0,1.28343789908104,NA,NA,NA
"experimental",30,25,"hd","lower","filny","nw","nw","h","g",0,1.36677148402669,NA,NA,NA
"experimental",30,26,"hd","lower","slowning","nw","nw","h","g",0,1.78286166512407,NA,NA,NA
"experimental",30,27,"hd","lower","exit","w","w","g","g",1,2.23826917936094,NA,NA,NA
"experimental",30,28,"hd","lower","jaguar","target","target","q","g",0,1.81902404897846,NA,NA,NA
"experimental",30,29,"hd","lower","airmen","aftertar1","w","g","h",0,2.49556266015861,NA,NA,NA
"experimental",30,30,"hd","lower","graiking","aftertar2","nw","h","g",0,1.69705320172943,NA,NA,NA
"experimental",31,1,"ld","upper","mounting","w","w","g","g",1,3.74022276059259,NA,NA,NA
"experimental",31,2,"ld","upper","neuran","nw","nw","h","h",1,1.58081209508236,NA,NA,NA
"experimental",31,3,"ld","upper","menarthe","nw","nw","h","g",0,1.94825230585411,NA,NA,NA
"experimental",31,4,"ld","upper","tuckel","nw","nw","h","h",1,0.428941070102155,NA,NA,NA
"experimental",31,5,"ld","upper","oppose","w","w","g","g",1,0.698323391843587,NA,NA,NA
"experimental",31,6,"ld","upper","posing","w","w","g","g",1,0.757015047827736,NA,NA,NA
"experimental",31,7,"ld","upper","army","w","w","g","g",1,1.11626844876446,NA,NA,NA
"experimental",31,8,"ld","upper","fashing","nw","nw","h","h",1,1.974183441489,NA,NA,NA
"experimental",31,9,"ld","upper","joadbed","nw","nw","h","h",1,1.11747645761352,NA,NA,NA
"experimental",31,10,"ld","upper","disuse","w","w","g","g",1,2.27086730359588,NA,NA,NA
"experimental",31,11,"ld","upper","irregular","w","w","g","g",1,1.26618740172125,NA,NA,NA
"experimental",31,12,"ld","upper","seartfelt","nw","nw","h","h",1,1.62217869644519,NA,NA,NA
"experimental",31,13,"ld","upper","nores","nw","nw","h","h",1,1.83465964207426,NA,NA,NA
"experimental",31,14,"ld","upper","bailmenz","nw","nw","h","h",1,1.82240749965422,NA,NA,NA
"experimental",31,15,"ld","upper","outrank","w","w","g","g",1,1.31684377742931,NA,NA,NA
"experimental",31,16,"ld","upper","fullity","nw","nw","h","h",1,2.8068229194032,NA,NA,NA
"experimental",31,17,"ld","upper","dominion","w","w","g","h",0,2.46088991232682,NA,NA,NA
"experimental",31,18,"ld","upper","classify","w","w","g","g",1,0.720934163662605,NA,NA,NA
"experimental",31,19,"ld","upper","arpired","nw","nw","h","h",1,1.64130580297206,NA,NA,NA
"experimental",31,20,"ld","upper","athcan","nw","nw","h","h",1,1.46996416465845,NA,NA,NA
"experimental",31,21,"ld","upper","tibs","nw","nw","h","h",1,1.6093288884731,NA,NA,NA
"experimental",31,22,"ld","upper","daylight","w","w","g","g",1,3.03142681508325,NA,NA,NA
"experimental",31,23,"ld","upper","servant","w","w","g","g",1,1.28479834261816,NA,NA,NA
"experimental",31,24,"ld","upper","deserve","w","w","g","g",1,2.83862868428696,NA,NA,NA
"experimental",31,25,"ld","upper","plunging","w","w","g","g",1,1.67531447811052,NA,NA,NA
"experimental",31,26,"ld","upper","ireology","nw","nw","h","h",1,1.84675482183229,NA,NA,NA
"experimental",31,27,"ld","upper","assent","w","w","g","g",1,1.2747418662766,NA,NA,NA
"experimental",31,28,"ld","upper","omission","w","w","g","g",1,1.29416539077647,NA,NA,NA
"experimental",31,29,"ld","upper","octopus","target","target","q","g",0,0.74485889414791,NA,NA,NA
"experimental",31,30,"ld","upper","pimorous","aftertar1","nw","h","h",1,0.879455877351575,NA,NA,NA
"experimental",32,1,"ld","upper","alchemist","w","w","g","g",1,4.46728976257145,NA,NA,NA
"experimental",32,2,"ld","upper","snorls","nw","nw","h","g",0,2.30252153903712,NA,NA,NA
"experimental",32,3,"ld","upper","urgency","w","w","g","h",0,1.96056270552799,NA,NA,NA
"experimental",32,4,"ld","upper","tinker","w","w","g","g",1,1.36847362318076,NA,NA,NA
"experimental",32,5,"ld","upper","porghum","nw","nw","h","g",0,1.66393498773687,NA,NA,NA
"experimental",32,6,"ld","upper","entropy","w","w","g","g",1,0.739900081651285,NA,NA,NA
"experimental",32,7,"ld","upper","unwose","nw","nw","h","g",0,1.20461125532165,NA,NA,NA
"experimental",32,8,"ld","upper","rejoiced","w","w","g","g",1,1.29071402363479,NA,NA,NA
"experimental",32,9,"ld","upper","record","w","w","g","g",1,0.724479104857892,NA,NA,NA
"experimental",32,10,"ld","upper","arrive","w","w","g","g",1,2.01377727044746,NA,NA,NA
"experimental",32,11,"ld","upper","thrapping","nw","nw","h","g",0,1.49983687396161,NA,NA,NA
"experimental",32,12,"ld","upper","agony","w","w","g","g",1,2.30250101315323,NA,NA,NA
"experimental",32,13,"ld","upper","aligning","w","w","g","g",1,1.84883729356807,NA,NA,NA
"experimental",32,14,"ld","upper","prawls","nw","nw","h","g",0,0.748012334108353,NA,NA,NA
"experimental",32,15,"ld","upper","realize","w","w","g","g",1,1.47669242916163,NA,NA,NA
"experimental",32,16,"ld","upper","fallint","nw","nw","h","h",1,1.16039517812897,NA,NA,NA
"experimental",32,17,"ld","upper","snocks","nw","nw","h","g",0,3.448489862727,NA,NA,NA
"experimental",32,18,"ld","upper","currowing","nw","nw","h","g",0,1.84524948953185,NA,NA,NA
"experimental",32,19,"ld","upper","efcorted","nw","nw","h","h",1,1.96200706379022,NA,NA,NA
"experimental",32,20,"ld","upper","warden","w","w","g","g",1,1.07304878265131,NA,NA,NA
"experimental",32,21,"ld","upper","lifetime","w","w","g","g",1,2.06035382440314,NA,NA,NA
"experimental",32,22,"ld","upper","veirs","nw","nw","h","g",0,2.34444898006041,NA,NA,NA
"experimental",32,23,"ld","upper","arrow","w","w","g","g",1,0.769117170013487,NA,NA,NA
"experimental",32,24,"ld","upper","padicals","nw","nw","h","g",0,1.12856798188295,NA,NA,NA
"experimental",32,25,"ld","upper","ludictous","nw","nw","h","g",0,2.21795941959135,NA,NA,NA
"experimental",32,26,"ld","upper","reconcile","w","w","g","g",1,1.27837796660606,NA,NA,NA
"experimental",32,27,"ld","upper","phambled","nw","nw","h","g",0,1.19376785273198,NA,NA,NA
"experimental",32,28,"ld","upper","obviously","w","w","g","h",0,0.432390022440813,NA,NA,NA
"experimental",32,29,"ld","upper","rangel","nw","nw","h","h",1,0.565756358206272,NA,NA,NA
"experimental",32,30,"ld","upper","mandlers","nw","nw","h","h",1,0.613836433389224,NA,NA,NA
"experimental",33,1,"hd","lower","companion","w","w","g","h",0,1.01989519165363,NA,NA,NA
"experimental",33,2,"hd","lower","preight","nw","nw","h","g",0,3.35309098148718,NA,NA,NA
"experimental",33,3,"hd","lower","tucker","w","w","g","h",0,0.401074765948579,NA,NA,NA
"experimental",33,4,"hd","lower","sonkers","nw","nw","h","h",1,1.07114319573157,NA,NA,NA
"experimental",33,5,"hd","lower","elalt","nw","nw","h","h",1,1.93863804149441,NA,NA,NA
"experimental",33,6,"hd","lower","laser","w","w","g","h",0,0.79533264960628,NA,NA,NA
"experimental",33,7,"hd","lower","presence","w","w","g","h",0,1.41703575477004,NA,NA,NA
"experimental",33,8,"hd","lower","cayward","nw","nw","h","h",1,1.39900587743614,NA,NA,NA
"experimental",33,9,"hd","lower","pammed","nw","nw","h","h",1,1.07778875285294,NA,NA,NA
"experimental",33,10,"hd","lower","garment","w","w","g","h",0,1.20111068629194,NA,NA,NA
"experimental",33,11,"hd","lower","awful","w","w","g","h",0,1.05518794211093,NA,NA,NA
"experimental",33,12,"hd","lower","misobeyed","nw","nw","h","h",1,1.91524939902592,NA,NA,NA
"experimental",33,13,"hd","lower","unmarked","w","w","g","h",0,2.02045301278122,NA,NA,NA
"experimental",33,14,"hd","lower","legalosm","nw","nw","h","g",0,0.929777499870397,NA,NA,NA
"experimental",33,15,"hd","lower","beggarlan","nw","nw","h","h",1,0.867178379558027,NA,NA,NA
"experimental",33,16,"hd","lower","owner","w","w","g","h",0,1.41380654997192,NA,NA,NA
"experimental",33,17,"hd","lower","loneliest","w","w","g","h",0,1.49867957632523,NA,NA,NA
"experimental",33,18,"hd","lower","pocket","w","w","g","g",1,1.27763299760409,NA,NA,NA
"experimental",33,19,"hd","lower","demon","w","w","g","g",1,0.977859084145166,NA,NA,NA
"experimental",33,20,"hd","lower","catgup","nw","nw","h","g",0,0.601306285941973,NA,NA,NA
"experimental",33,21,"hd","lower","glocked","nw","nw","h","g",0,0.517720655305311,NA,NA,NA
"experimental",33,22,"hd","lower","atch","nw","nw","h","g",0,0.854995059082285,NA,NA,NA
"experimental",33,23,"hd","lower","levels","w","w","g","h",0,0.731085421401076,NA,NA,NA
"experimental",33,24,"hd","lower","loached","nw","nw","h","h",1,1.02049104613252,NA,NA,NA
"experimental",33,25,"hd","lower","slending","nw","nw","h","g",0,0.705842506606132,NA,NA,NA
"experimental",33,26,"hd","lower","fatho","nw","nw","h","g",0,1.28388373344205,NA,NA,NA
"experimental",33,27,"hd","lower","disperse","w","w","g","g",1,0.549926674808376,NA,NA,NA
"experimental",33,28,"hd","lower","itself","w","w","g","g",1,1.14257689856458,NA,NA,NA
"experimental",33,29,"hd","lower","diatonic","w","w","g","g",1,1.15845185972285,NA,NA,NA
"experimental",33,30,"hd","lower","ganter","nw","nw","h","g",0,1.23840259760618,NA,NA,NA
"experimental",34,1,"ld","upper","bingu","nw","nw","h","h",1,1.33996256487444,NA,NA,NA
"experimental",34,2,"ld","upper","turning","w","w","g","g",1,2.56373697333038,NA,NA,NA
"experimental",34,3,"ld","upper","nollow","nw","nw","h","g",0,0.507716701016761,NA,NA,NA
"experimental",34,4,"ld","upper","reborn","w","w","g","g",1,0.517694092355669,NA,NA,NA
"experimental",34,5,"ld","upper","cripet","nw","nw","h","g",0,1.35791275335941,NA,NA,NA
"experimental",34,6,"ld","upper","igiom","nw","nw","h","h",1,2.3339288601419,NA,NA,NA
"experimental",34,7,"ld","upper","ucility","nw","nw","h","h",1,0.943968734703958,NA,NA,NA
"experimental",34,8,"ld","upper","mestowal","nw","nw","h","h",1,0.696524660219438,NA,NA,NA
"experimental",34,9,"ld","upper","desert","w","w","g","h",0,1.49046831659507,NA,NA,NA
"experimental",34,10,"ld","upper","brongs","nw","nw","h","h",1,0.997102705412544,NA,NA,NA
"experimental",34,11,"ld","upper","buttress","w","w","g","h",0,1.36380790837575,NA,NA,NA
"experimental",34,12,"ld","upper","miability","nw","nw","h","h",1,0.907782504567876,NA,NA,NA
"experimental",34,13,"ld","upper","roughly","w","w","g","h",0,2.02985507564154,NA,NA,NA
"experimental",34,14,"ld","upper","ofsters","nw","nw","h","h",1,0.867260784842074,NA,NA,NA
"experimental",34,15,"ld","upper","hubris","w","w","g","h",0,0.846512133372016,NA,NA,NA
"experimental",34,16,"ld","upper","sludding","nw","nw","h","h",1,1.33029215631541,NA,NA,NA
"experimental",34,17,"ld","upper","susher","nw","nw","h","h",1,1.32350654003676,NA,NA,NA
"experimental",34,18,"ld","upper","crazy","w","w","g","h",0,0.396892616990954,NA,NA,NA
"experimental",34,19,"ld","upper","shillac","nw","nw","h","h",1,1.01961235702038,NA,NA,NA
"experimental",34,20,"ld","upper","dorth","nw","nw","h","g",0,1.33704396511894,NA,NA,NA
"experimental",34,21,"ld","upper","treason","w","w","g","g",1,1.04175012803171,NA,NA,NA
"experimental",34,22,"ld","upper","finstrel","nw","nw","h","h",1,2.06252232391853,NA,NA,NA
"experimental",34,23,"ld","upper","railway","w","w","g","h",0,2.90556782193016,NA,NA,NA
"experimental",34,24,"ld","upper","pressures","w","w","g","g",1,0.706418438698165,NA,NA,NA
"experimental",34,25,"ld","upper","picnic","w","w","g","g",1,0.868446456617676,NA,NA,NA
"experimental",34,26,"ld","upper","gewer","nw","nw","h","g",0,0.639806205872446,NA,NA,NA
"experimental",34,27,"ld","upper","brother","w","w","g","h",0,1.1892126154853,NA,NA,NA
"experimental",34,28,"ld","upper","collision","w","w","g","h",0,0.603831271640956,NA,NA,NA
"experimental",34,29,"ld","upper","serving","w","w","g","g",1,1.28985374746844,NA,NA,NA
"experimental",34,30,"ld","upper","bother","w","w","g","g",1,0.603662234963849,NA,NA,NA
"experimental",35,1,"ld","upper","portify","nw","nw","h","g",0,4.2502949333284,NA,NA,NA
"experimental",35,2,"ld","upper","gymnasium","w","w","g","g",1,0.734994998783804,NA,NA,NA
"experimental",35,3,"ld","upper","cobalt","w","w","g","g",1,1.84687344927806,NA,NA,NA
"experimental",35,4,"ld","upper","prillway","nw","nw","h","h",1,1.90747944591567,NA,NA,NA
"experimental",35,5,"ld","upper","inside","w","w","g","g",1,0.685463019181043,NA,NA,NA
"experimental",35,6,"ld","upper","religious","w","w","g","g",1,0.936226853751577,NA,NA,NA
"experimental",35,7,"ld","upper","odacles","nw","nw","h","h",1,0.720956198871136,NA,NA,NA
"experimental",35,8,"ld","upper","teliever","nw","nw","h","h",1,0.882293581031263,NA,NA,NA
"experimental",35,9,"ld","upper","penalize","w","w","g","h",0,0.277735928888433,NA,NA,NA
"experimental",35,10,"ld","upper","sunhess","nw","nw","h","h",1,0.481037577963434,NA,NA,NA
"experimental",35,11,"ld","upper","whirling","w","w","g","h",0,0.371603820705786,NA,NA,NA
"experimental",35,12,"ld","upper","pillage","w","w","g","g",1,0.353738452424295,NA,NA,NA
"experimental",35,13,"ld","upper","pleamed","nw","nw","h","g",0,0.26562052522786,NA,NA,NA
"experimental",35,14,"ld","upper","purpose","w","w","g","g",1,0.254085883265361,NA,NA,NA
"experimental",35,15,"ld","upper","facienda","nw","nw","h","g",0,0.298571513500065,NA,NA,NA
"experimental",35,16,"ld","upper","rander","nw","nw","h","h",1,0.277542442316189,NA,NA,NA
"experimental",35,17,"ld","upper","haurded","nw","nw","h","h",1,0.38479411683511,NA,NA,NA
"experimental",35,18,"ld","upper","eugenifs","nw","nw","h","g",0,0.519492522114888,NA,NA,NA
"experimental",35,19,"ld","upper","roaned","nw","nw","h","h",1,0.368813809473068,NA,NA,NA
"experimental",35,20,"ld","upper","bookend","w","w","g","h",0,0.343615870573558,NA,NA,NA
"experimental",35,21,"ld","upper","havel","nw","nw","h","h",1,0.320212437305599,NA,NA,NA
"experimental",35,22,"ld","upper","ipiocy","nw","nw","h","h",1,0.304719016188756,NA,NA,NA
"experimental",35,23,"ld","upper","exploit","w","w","g","g",1,0.618698653299361,NA,NA,NA
"experimental",35,24,"ld","upper","drauns","nw","nw","h","h",1,0.727412193431519,NA,NA,NA
"experimental",35,25,"ld","upper","dabble","w","w","g","h",0,0.840765489148907,NA,NA,NA
"experimental",35,26,"ld","upper","vivid","w","w","g","g",1,0.653446260374039,NA,NA,NA
"experimental",35,27,"ld","upper","uncorked","w","w","g","g",1,0.641459445236251,NA,NA,NA
"experimental",35,28,"ld","upper","rainfall","w","w","g","g",1,0.550198944518343,NA,NA,NA
"experimental",35,29,"ld","upper","digested","w","w","g","g",1,0.574814008781686,NA,NA,NA
"experimental",35,30,"ld","upper","pived","nw","nw","h","h",1,0.454153195954859,NA,NA,NA
"experimental",36,1,"hd","lower","gigoho","nw","nw","h","h",1,7.25002175790723,NA,NA,NA
"experimental",36,2,"hd","lower","aviation","w","w","g","g",1,1.57271704811137,NA,NA,NA
"experimental",36,3,"hd","lower","ready","w","w","g","g",1,1.18043176247738,NA,NA,NA
"experimental",36,4,"hd","lower","blipover","nw","nw","h","g",0,0.67662783304695,NA,NA,NA
"experimental",36,5,"hd","lower","thaken","nw","nw","h","g",0,0.519852630561218,NA,NA,NA
"experimental",36,6,"hd","lower","nostril","w","w","g","g",1,0.689190882141702,NA,NA,NA
"experimental",36,7,"hd","lower","lawsuit","w","w","g","g",1,1.30794248566963,NA,NA,NA
"experimental",36,8,"hd","lower","gunrunker","nw","nw","h","g",0,0.749999420950189,NA,NA,NA
"experimental",36,9,"hd","lower","derived","w","w","g","g",1,0.358678248128854,NA,NA,NA
"experimental",36,10,"hd","lower","frowsed","nw","nw","h","g",0,0.638718937756494,NA,NA,NA
"experimental",36,11,"hd","lower","poyride","nw","nw","h","g",0,0.947429761174135,NA,NA,NA
"experimental",36,12,"hd","lower","butler","w","w","g","h",0,1.73918710905127,NA,NA,NA
"experimental",36,13,"hd","lower","partner","w","w","g","h",0,1.9878313440131,NA,NA,NA
"experimental",36,14,"hd","lower","saucer","w","w","g","h",0,0.538493454805575,NA,NA,NA
"experimental",36,15,"hd","lower","implode","w","w","g","g",1,3.13126290985383,NA,NA,NA
"experimental",36,16,"hd","lower","compose","w","w","g","g",1,0.876650471822359,NA,NA,NA
"experimental",36,17,"hd","lower","ifling","nw","nw","h","h",1,0.97511797293555,NA,NA,NA
"experimental",36,18,"hd","lower","quickel","nw","nw","h","g",0,1.50242011703085,NA,NA,NA
"experimental",36,19,"hd","lower","rewrite","w","w","g","g",1,0.983951348112896,NA,NA,NA
"experimental",36,20,"hd","lower","grolific","nw","nw","h","g",0,0.478530099615455,NA,NA,NA
"experimental",36,21,"hd","lower","mogus","nw","nw","h","g",0,0.897901403834112,NA,NA,NA
"experimental",36,22,"hd","lower","giraffe","target","target","q","g",0,0.25255881762132,NA,NA,NA
"experimental",36,23,"hd","lower","razelle","aftertar1","nw","h","g",0,0.575512492563576,NA,NA,NA
"experimental",36,24,"hd","lower","euphoric","aftertar2","w","g","g",1,0.622732593445107,NA,NA,NA
"experimental",36,25,"hd","lower","rawhide","aftertar3","w","g","h",0,0.644436302245595,NA,NA,NA
"experimental",36,26,"hd","lower","clarms","w","nw","h","g",0,0.672866162611172,NA,NA,NA
"experimental",36,27,"hd","lower","tritical","nw","nw","h","g",0,1.02841252845246,NA,NA,NA
"experimental",36,28,"hd","lower","pypecast","nw","nw","h","g",0,1.32176455645822,NA,NA,NA
"experimental",36,29,"hd","lower","superstar","nw","w","g","g",1,1.23520991683472,NA,NA,NA
"experimental",36,30,"hd","lower","smolvers","w","nw","h","h",1,0.375890410272405,NA,NA,NA
"experimental",37,1,"hd","lower","pretzel","w","w","g","g",1,1.01494000153616,NA,NA,NA
"experimental",37,2,"hd","lower","enabled","w","w","g","g",1,1.80498192866798,NA,NA,NA
"experimental",37,3,"hd","lower","obtuse","w","w","g","g",1,1.25098647456616,NA,NA,NA
"experimental",37,4,"hd","lower","harfing","nw","nw","h","h",1,1.42308636312373,NA,NA,NA
"experimental",37,5,"hd","lower","combat","w","w","g","h",0,1.34846058324911,NA,NA,NA
"experimental",37,6,"hd","lower","elderly","w","w","g","h",0,2.44432190060616,NA,NA,NA
"experimental",37,7,"hd","lower","gradielts","nw","nw","h","g",0,1.05692237941548,NA,NA,NA
"experimental",37,8,"hd","lower","prison","w","w","g","h",0,1.42099453392439,NA,NA,NA
"experimental",37,9,"hd","lower","optional","w","w","g","h",0,1.20242011698429,NA,NA,NA
"experimental",37,10,"hd","lower","hasks","nw","nw","h","g",0,1.47921379259787,NA,NA,NA
