"procedure","block","trial","PMdemand","context","stim","role","word_type","correct_key","response","correct","reaction_time","pressedQ","pressedQ_blank","pressedQ_fix"
"LDTpractice",1,1,NA,"lower","turative","","nw","h","h",1,1.07653053849936,NA,NA,NA
"LDTpractice",2,1,NA,"lower","julled","","nw","h","h",1,0.782553355209529,NA,NA,NA
"LDTpractice",3,1,NA,"lower","summary","","w","g","g",1,0.533936405554414,NA,NA,NA
"LDTpractice",4,1,NA,"lower","lumbigo","","nw","h","h",1,0.589498969726264,NA,NA,NA
"LDTpractice",5,1,NA,"lower","grocus","","nw","h","h",1,0.69348608981818,NA,NA,NA
"LDTpractice",6,1,NA,"lower","umpire","","w","g","h",0,0.639195496216416,NA,NA,NA
"LDTpractice",7,1,NA,"lower","slumber","","w","g","g",1,0.564704586751759,NA,NA,NA
"LDTpractice",8,1,NA,"lower","grutch","","nw","h","h",1,0.667832054197788,NA,NA,NA
"LDTpractice",9,1,NA,"lower","reputable","","w","g","g",1,0.446940696798265,NA,NA,NA
"LDTpractice",10,1,NA,"lower","alolition","","nw","h","h",1,0.667563111521304,NA,NA,NA
"LDTpractice",11,1,NA,"lower","unscrew","","w","g","g",1,0.631031516939402,NA,NA,NA
"LDTpractice",12,1,NA,"lower","crinklo","","nw","h","h",1,0.586552066728473,NA,NA,NA
"LDTpractice",13,1,NA,"lower","picture","","w","g","g",1,0.465721136890352,NA,NA,NA
"LDTpractice",14,1,NA,"lower","hiring","","w","g","g",1,0.645766945555806,NA,NA,NA
"LDTpractice",1,2,NA,"upper","raestro","","nw","h","h",1,0.546186147257686,NA,NA,NA
"LDTpractice",2,2,NA,"upper","curlecs","","nw","h","h",1,0.667635251767933,NA,NA,NA
"LDTpractice",3,2,NA,"upper","grimace","","w","g","g",1,0.509868258610368,NA,NA,NA
"LDTpractice",4,2,NA,"upper","trotch","","nw","h","h",1,0.66382990218699,NA,NA,NA
"LDTpractice",5,2,NA,"upper","treeps","","nw","h","h",1,0.659798472188413,NA,NA,NA
"LDTpractice",6,2,NA,"upper","infinity","","w","g","g",1,0.432118338532746,NA,NA,NA
"LDTpractice",7,2,NA,"upper","overshoot","","w","g","g",1,0.525800498202443,NA,NA,NA
"LDTpractice",8,2,NA,"upper","latador","","nw","h","h",1,0.527055566199124,NA,NA,NA
"LDTpractice",9,2,NA,"upper","busted","","w","g","g",1,0.463991570286453,NA,NA,NA
"LDTpractice",10,2,NA,"upper","hasking","","nw","h","g",0,0.515960076823831,NA,NA,NA
"LDTpractice",11,2,NA,"upper","sponsor","","w","g","g",1,0.50879490096122,NA,NA,NA
"LDTpractice",12,2,NA,"upper","lurshing","","nw","h","h",1,0.543634658679366,NA,NA,NA
"LDTpractice",13,2,NA,"upper","revival","","w","g","g",1,0.480497918091714,NA,NA,NA
"LDTpractice",14,2,NA,"upper","tricycle","","w","g","g",1,0.498900751583278,NA,NA,NA
"experimental",1,1,"ld","upper","shockwave","w","w","g","h",0,0.66624888125807,NA,NA,NA
"experimental",1,2,"ld","upper","kilotin","nw","nw","h","h",1,0.614884968847036,NA,NA,NA
"experimental",1,3,"ld","upper","presently","w","w","g","g",1,0.493539093993604,NA,NA,NA
"experimental",1,4,"ld","upper","slooch","nw","nw","h","h",1,0.664839873090386,NA,NA,NA
"experimental",1,5,"ld","upper","anterior","w","w","g","g",1,0.980473166331649,NA,NA,NA
"experimental",1,6,"ld","upper","esdings","nw","nw","h","h",1,0.548478350974619,NA,NA,NA
"experimental",1,7,"ld","upper","ounside","nw","nw","h","h",1,0.669762347824872,NA,NA,NA
"experimental",1,8,"ld","upper","duplex","w","w","g","g",1,0.553684256970882,NA,NA,NA
"experimental",1,9,"ld","upper","buzzer","w","w","g","g",1,0.47226994857192,NA,NA,NA
"experimental",1,10,"ld","upper","migmarole","nw","nw","h","h",1,0.581193125806749,NA,NA,NA
"experimental",1,11,"ld","upper","urgent","w","w","g","g",1,0.485111000947654,NA,NA,NA
"experimental",1,12,"ld","upper","appain","nw","nw","h","g",0,0.504876360297203,NA,NA,NA
"experimental",1,13,"ld","upper","tragedy","w","w","g","g",1,0.507224707864225,NA,NA,NA
"experimental",1,14,"ld","upper","regards","w","w","g","g",1,0.495002736337483,NA,NA,NA
"experimental",1,15,"ld","upper","smallash","nw","nw","h","h",1,0.569211723282933,NA,NA,NA
"experimental",1,16,"ld","upper","trewl","nw","nw","h","h",1,0.489172315225005,NA,NA,NA
"experimental",1,17,"ld","upper","ausht","nw","nw","h","h",1,0.596507489681244,NA,NA,NA
"experimental",1,18,"ld","upper","define","w","w","g","g",1,0.523912463337183,NA,NA,NA
"experimental",1,19,"ld","upper","sweeping","w","w","g","g",1,0.42985752504319,NA,NA,NA
"experimental",1,20,"ld","upper","shivering","w","w","g","g",1,0.403851237148046,NA,NA,NA
"experimental",1,21,"ld","upper","comply","w","w","g","g",1,0.386458675377071,NA,NA,NA
"experimental",1,22,"ld","upper","riosk","nw","nw","h","h",1,0.569731800816953,NA,NA,NA
"experimental",1,23,"ld","upper","brudent","nw","nw","h","g",0,0.448454444296658,NA,NA,NA
"experimental",1,24,"ld","upper","forbid","w","w","g","h",0,0.422653410583735,NA,NA,NA
"experimental",1,25,"ld","upper","borrent","nw","nw","h","h",1,0.515633481554687,NA,NA,NA
"experimental",1,26,"ld","upper","adok","nw","nw","h","h",1,0.526282845064998,NA,NA,NA
"experimental",1,27,"ld","upper","duries","nw","nw","h","h",1,0.720291661098599,NA,NA,NA
"experimental",1,28,"ld","upper","splinging","nw","nw","h","h",1,0.674294537864625,NA,NA,NA
"experimental",1,29,"ld","upper","ethical","w","w","g","g",1,0.462294904515147,NA,NA,NA
"experimental",1,30,"ld","upper","embrace","w","w","g","g",1,0.394919971004128,NA,NA,NA
"experimental",2,1,"ld","upper","shillac","nw","nw","h","h",1,0.617079073563218,NA,NA,NA
"experimental",2,2,"ld","upper","gablus","nw","nw","h","h",1,0.542544094845653,NA,NA,NA
"experimental",2,3,"ld","upper","arrigns","nw","nw","h","h",1,0.808052545413375,NA,NA,NA
"experimental",2,4,"ld","upper","rational","w","w","g","g",1,0.455485903657973,NA,NA,NA
"experimental",2,5,"ld","upper","committed","w","w","g","g",1,0.452328011393547,NA,NA,NA
"experimental",2,6,"ld","upper","rejoiced","w","w","g","g",1,0.5289840484038,NA,NA,NA
"experimental",2,7,"ld","upper","destroy","w","w","g","g",1,0.394949248991907,NA,NA,NA
"experimental",2,8,"ld","upper","undue","w","w","g","g",1,0.530199273489416,NA,NA,NA
"experimental",2,9,"ld","upper","nelvet","nw","nw","h","h",1,0.523292475380003,NA,NA,NA
"experimental",2,10,"ld","upper","category","w","w","g","g",1,0.445399179123342,NA,NA,NA
"experimental",2,11,"ld","upper","protest","w","w","g","g",1,0.394491352140903,NA,NA,NA
"experimental",2,12,"ld","upper","pender","nw","nw","h","h",1,0.5298569817096,NA,NA,NA
"experimental",2,13,"ld","upper","admire","w","w","g","g",1,0.379759848117828,NA,NA,NA
"experimental",2,14,"ld","upper","afternoon","w","w","g","g",1,0.435739260166883,NA,NA,NA
"experimental",2,15,"ld","upper","culer","nw","nw","h","h",1,0.481085608713329,NA,NA,NA
"experimental",2,16,"ld","upper","lindo","nw","nw","h","h",1,0.581055483780801,NA,NA,NA
"experimental",2,17,"ld","upper","image","w","w","g","g",1,0.365076941438019,NA,NA,NA
"experimental",2,18,"ld","upper","loached","nw","nw","h","g",0,0.437682834453881,NA,NA,NA
"experimental",2,19,"ld","upper","chemical","w","w","g","g",1,0.402092995122075,NA,NA,NA
"experimental",2,20,"ld","upper","fabstand","nw","nw","h","h",1,0.51368598267436,NA,NA,NA
"experimental",2,21,"ld","upper","peems","nw","nw","h","h",1,0.603362068533897,NA,NA,NA
"experimental",2,22,"ld","upper","afford","w","w","g","g",1,0.521931761875749,NA,NA,NA
"experimental",2,23,"ld","upper","elephant","target","target","q","g",0,0.427918176166713,1,1,NA
"experimental",2,24,"ld","upper","peags","aftertar1","nw","h","h",1,0.561877816915512,NA,NA,NA
"experimental",2,25,"ld","upper","omners","aftertar2","nw","h","h",1,0.602593875490129,NA,NA,NA
"experimental",2,26,"ld","upper","elpousal","aftertar3","nw","h","h",1,0.617186228744686,NA,NA,NA
"experimental",2,27,"ld","upper","otiates","nw","nw","h","h",1,0.583239025436342,NA,NA,NA
"experimental",2,28,"ld","upper","itself","nw","w","g","g",1,0.485976992174983,NA,NA,NA
"experimental",2,29,"ld","upper","standard","w","w","g","g",1,0.472413927316666,NA,NA,NA
"experimental",2,30,"ld","upper","collision","w","w","g","g",1,0.629611341282725,NA,NA,NA
"experimental",3,1,"hd","lower","clooped","nw","nw","h","h",1,0.715239092707634,NA,NA,NA
"experimental",3,2,"hd","lower","edasion","nw","nw","h","h",1,0.573931660503149,NA,NA,NA
"experimental",3,3,"hd","lower","audience","w","w","g","g",1,0.485924169421196,NA,NA,NA
"experimental",3,4,"hd","lower","cassette","w","w","g","h",0,0.912352677434683,NA,NA,NA
"experimental",3,5,"hd","lower","recollect","w","w","g","g",1,0.387799466960132,NA,NA,NA
"experimental",3,6,"hd","lower","elormity","nw","nw","h","h",1,0.530152185820043,NA,NA,NA
"experimental",3,7,"hd","lower","pammed","nw","nw","h","h",1,0.75611693970859,NA,NA,NA
"experimental",3,8,"hd","lower","forecast","w","w","g","g",1,0.444729385897517,NA,NA,NA
"experimental",3,9,"hd","lower","olgies","nw","nw","h","h",1,0.522102303802967,NA,NA,NA
"experimental",3,10,"hd","lower","persona","w","w","g","g",1,0.524035012349486,NA,NA,NA
"experimental",3,11,"hd","lower","cemoir","nw","nw","h","h",1,0.622067048214376,NA,NA,NA
"experimental",3,12,"hd","lower","tiery","nw","nw","h","h",1,0.683990073390305,NA,NA,NA
"experimental",3,13,"hd","lower","sequence","w","w","g","g",1,0.404829514212906,NA,NA,NA
"experimental",3,14,"hd","lower","removable","w","w","g","g",1,0.525108671747148,NA,NA,NA
"experimental",3,15,"hd","lower","alticles","nw","nw","h","h",1,0.551057608798146,NA,NA,NA
"experimental",3,16,"hd","lower","unlined","w","w","g","g",1,0.415581806562841,NA,NA,NA
"experimental",3,17,"hd","lower","column","w","w","g","g",1,0.502300421707332,NA,NA,NA
"experimental",3,18,"hd","lower","despise","w","w","g","g",1,0.416916561312973,NA,NA,NA
"experimental",3,19,"hd","lower","pocket","w","w","g","g",1,0.431539702229202,NA,NA,NA
"experimental",3,20,"hd","lower","draze","nw","nw","h","g",0,0.428269824944437,NA,NA,NA
"experimental",3,21,"hd","lower","veclors","nw","nw","h","h",1,0.650239068083465,NA,NA,NA
"experimental",3,22,"hd","lower","remain","w","w","g","g",1,0.463633884675801,NA,NA,NA
"experimental",3,23,"hd","lower","curricula","w","w","g","h",0,0.708914551883936,NA,NA,NA
"experimental",3,24,"hd","lower","sullen","w","w","g","g",1,0.590530975721776,NA,NA,NA
"experimental",3,25,"hd","lower","natch","nw","nw","h","h",1,0.606635870411992,NA,NA,NA
"experimental",3,26,"hd","lower","geborn","nw","nw","h","h",1,0.588309402577579,NA,NA,NA
"experimental",3,27,"hd","lower","godomy","nw","nw","h","h",1,0.667733653448522,NA,NA,NA
"experimental",3,28,"hd","lower","preserve","w","w","g","g",1,0.447646408341825,NA,NA,NA
"experimental",3,29,"hd","lower","sarlock","nw","nw","h","h",1,0.748848230578005,NA,NA,NA
"experimental",3,30,"hd","lower","walsams","nw","nw","h","h",1,0.558248441666365,NA,NA,NA
"experimental",4,1,"hd","lower","blassed","nw","nw","h","h",1,0.701675121672451,NA,NA,NA
"experimental",4,2,"hd","lower","advantage","w","w","g","g",1,0.472407589666545,NA,NA,NA
"experimental",4,3,"hd","lower","cogantly","nw","nw","h","h",1,0.580328643321991,NA,NA,NA
"experimental",4,4,"hd","lower","gestalion","nw","nw","h","h",1,0.548280945047736,NA,NA,NA
"experimental",4,5,"hd","lower","eightiech","nw","nw","h","h",1,0.501574185676873,NA,NA,NA
"experimental",4,6,"hd","lower","laser","w","w","g","g",1,0.53628113027662,NA,NA,NA
"experimental",4,7,"hd","lower","deadly","w","w","g","g",1,0.537544348277152,NA,NA,NA
"experimental",4,8,"hd","lower","hutting","nw","nw","h","g",0,0.46685818489641,NA,NA,NA
"experimental",4,9,"hd","lower","sonkers","nw","nw","h","h",1,0.4875233406201,NA,NA,NA
"experimental",4,10,"hd","lower","minister","w","w","g","g",1,0.594885983504355,NA,NA,NA
"experimental",4,11,"hd","lower","rabbit","target","target","q","q",1,0.5199085008353,1,NA,NA
"experimental",4,12,"hd","lower","manage","aftertar1","w","g","g",1,0.56188596598804,NA,NA,NA
"experimental",4,13,"hd","lower","earterner","aftertar2","nw","h","h",1,0.643261035904288,NA,NA,NA
"experimental",4,14,"hd","lower","shamrock","aftertar3","w","g","g",1,0.737205799669027,NA,NA,NA
"experimental",4,15,"hd","lower","become","w","w","g","g",1,0.474391006864607,NA,NA,NA
"experimental",4,16,"hd","lower","drauns","w","nw","h","h",1,0.550590957514942,NA,NA,NA
"experimental",4,17,"hd","lower","envelop","nw","w","g","g",1,0.462982807308435,NA,NA,NA
"experimental",4,18,"hd","lower","roodies","w","nw","h","h",1,0.571652133949101,NA,NA,NA
"experimental",4,19,"hd","lower","supplier","nw","w","g","g",1,0.475672335363925,NA,NA,NA
"experimental",4,20,"hd","lower","irfirm","w","nw","h","h",1,0.591551208868623,NA,NA,NA
"experimental",4,21,"hd","lower","penalize","nw","w","g","g",1,0.501975034363568,NA,NA,NA
"experimental",4,22,"hd","lower","bamboo","w","w","g","g",1,0.624519230797887,NA,NA,NA
"experimental",4,23,"hd","lower","ralliep","w","nw","h","h",1,0.574563118629158,NA,NA,NA
"experimental",4,24,"hd","lower","shimble","nw","nw","h","g",0,0.406498108059168,NA,NA,NA
"experimental",4,25,"hd","lower","fillings","nw","w","g","g",1,0.573115474544466,NA,NA,NA
"experimental",4,26,"hd","lower","roaned","w","nw","h","h",1,0.653133149258792,NA,NA,NA
"experimental",4,27,"hd","lower","purpose","nw","w","g","g",1,0.401789037510753,NA,NA,NA
"experimental",4,28,"hd","lower","courier","w","w","g","g",1,0.600514470599592,NA,NA,NA
"experimental",4,29,"hd","lower","priant","w","nw","h","h",1,0.59811088629067,NA,NA,NA
"experimental",4,30,"hd","lower","listless","nw","w","g","g",1,0.701367240399122,NA,NA,NA
"experimental",5,1,"hd","lower","wrecber","nw","nw","h","h",1,0.559949334710836,NA,NA,NA
"experimental",5,2,"hd","lower","felevance","nw","nw","h","h",1,0.543440270237625,NA,NA,NA
"experimental",5,3,"hd","lower","contain","w","w","g","g",1,0.45669901650399,NA,NA,NA
"experimental",5,4,"hd","lower","endgume","nw","nw","h","h",1,0.42975218128413,NA,NA,NA
"experimental",5,5,"hd","lower","huzzles","nw","nw","h","h",1,0.539402803406119,NA,NA,NA
"experimental",5,6,"hd","lower","guitar","w","w","g","g",1,0.476899029687047,NA,NA,NA
"experimental",5,7,"hd","lower","razelle","nw","nw","h","h",1,0.640648573637009,NA,NA,NA
"experimental",5,8,"hd","lower","arrival","w","w","g","g",1,0.430015691556036,NA,NA,NA
"experimental",5,9,"hd","lower","boulder","w","w","g","g",1,0.49206005781889,NA,NA,NA
"experimental",5,10,"hd","lower","balign","nw","nw","h","h",1,0.583332596346736,NA,NA,NA
"experimental",5,11,"hd","lower","erithets","nw","nw","h","h",1,0.503314920701087,NA,NA,NA
"experimental",5,12,"hd","lower","mortgage","w","w","g","g",1,0.545884604565799,NA,NA,NA
"experimental",5,13,"hd","lower","quittint","nw","nw","h","h",1,0.5313725406304,NA,NA,NA
"experimental",5,14,"hd","lower","gorilla","target","target","q","g",0,0.508411257527769,1,1,NA
"experimental",5,15,"hd","lower","couple","aftertar1","w","g","g",1,0.478976019658148,NA,NA,NA
"experimental",5,16,"hd","lower","jinds","aftertar2","nw","h","h",1,0.482935007661581,NA,NA,NA
"experimental",5,17,"hd","lower","trooper","aftertar3","w","g","g",1,0.454793775454164,NA,NA,NA
"experimental",5,18,"hd","lower","snorls","w","nw","h","h",1,0.643453008495271,NA,NA,NA
"experimental",5,19,"hd","lower","athcan","nw","nw","h","h",1,0.640736410394311,NA,NA,NA
"experimental",5,20,"hd","lower","omission","nw","w","g","g",1,0.454040674492717,NA,NA,NA
"experimental",5,21,"hd","lower","combat","w","w","g","g",1,0.402715699747205,NA,NA,NA
"experimental",5,22,"hd","lower","acoustic","w","w","g","g",1,0.481363606639206,NA,NA,NA
"experimental",5,23,"hd","lower","tinker","w","w","g","g",1,0.389334948733449,NA,NA,NA
"experimental",5,24,"hd","lower","slooping","w","nw","h","g",0,0.428743116557598,NA,NA,NA
"experimental",5,25,"hd","lower","slending","nw","nw","h","g",0,0.377725418657064,NA,NA,NA
"experimental",5,26,"hd","lower","aviation","nw","w","g","g",1,0.458719862625003,NA,NA,NA
"experimental",5,27,"hd","lower","congraks","w","nw","h","h",1,0.542314693331718,NA,NA,NA
"experimental",5,28,"hd","lower","unmarked","nw","w","g","g",1,0.591603729873896,NA,NA,NA
"experimental",5,29,"hd","lower","inversion","w","w","g","g",1,0.477774679660797,NA,NA,NA
"experimental",5,30,"hd","lower","frigs","w","nw","h","h",1,0.473608022555709,NA,NA,NA
"experimental",6,1,"ld","upper","digar","nw","nw","h","h",1,0.638671192340553,NA,NA,NA
"experimental",6,2,"ld","upper","misest","nw","nw","h","h",1,0.611017137765884,NA,NA,NA
"experimental",6,3,"ld","upper","garment","w","w","g","g",1,0.513684173114598,NA,NA,NA
"experimental",6,4,"ld","upper","wimpid","nw","nw","h","h",1,0.452295109629631,NA,NA,NA
"experimental",6,5,"ld","upper","apology","w","w","g","g",1,0.425023491494358,NA,NA,NA
"experimental",6,6,"ld","upper","scrobby","nw","nw","h","h",1,0.61497853975743,NA,NA,NA
"experimental",6,7,"ld","upper","exemplify","w","w","g","g",1,0.469567839987576,NA,NA,NA
"experimental",6,8,"ld","upper","reason","w","w","g","g",1,0.513529627583921,NA,NA,NA
"experimental",6,9,"ld","upper","happen","w","w","g","g",1,0.404199564829469,NA,NA,NA
"experimental",6,10,"ld","upper","fracture","w","w","g","g",1,0.442847992293537,NA,NA,NA
"experimental",6,11,"ld","upper","zears","nw","nw","h","h",1,0.576174060814083,NA,NA,NA
"experimental",6,12,"ld","upper","command","w","w","g","g",1,0.415098251774907,NA,NA,NA
"experimental",6,13,"ld","upper","entertain","w","w","g","g",1,0.437769162468612,NA,NA,NA
"experimental",6,14,"ld","upper","urique","nw","nw","h","h",1,0.643091097474098,NA,NA,NA
"experimental",6,15,"ld","upper","emission","w","w","g","g",1,0.560442245565355,NA,NA,NA
"experimental",6,16,"ld","upper","contund","nw","nw","h","h",1,0.617217619903386,NA,NA,NA
"experimental",6,17,"ld","upper","assent","w","w","g","h",0,0.631055363453925,NA,NA,NA
"experimental",6,18,"ld","upper","arrive","w","w","g","g",1,0.468992524780333,NA,NA,NA
"experimental",6,19,"ld","upper","mandlers","nw","nw","h","h",1,0.561010617762804,NA,NA,NA
"experimental",6,20,"ld","upper","landing","w","w","g","g",1,0.504887830466032,NA,NA,NA
"experimental",6,21,"ld","upper","slightly","w","w","g","g",1,0.49820258654654,NA,NA,NA
"experimental",6,22,"ld","upper","pimorous","nw","nw","h","h",1,0.413443542085588,NA,NA,NA
"experimental",6,23,"ld","upper","lavilion","nw","nw","h","h",1,0.548612369224429,NA,NA,NA
"experimental",6,24,"ld","upper","ganter","nw","nw","h","h",1,0.67047892510891,NA,NA,NA
"experimental",6,25,"ld","upper","unrealon","nw","nw","h","h",1,0.586555385962129,NA,NA,NA
"experimental",6,26,"ld","upper","grested","nw","nw","h","h",1,0.521769671700895,NA,NA,NA
"experimental",6,27,"ld","upper","prama","nw","nw","h","g",0,0.56374623067677,NA,NA,NA
"experimental",6,28,"ld","upper","probable","w","w","g","g",1,0.476478560827672,NA,NA,NA
"experimental",6,29,"ld","upper","marvel","w","w","g","g",1,0.552351917140186,NA,NA,NA
"experimental",6,30,"ld","upper","allained","nw","nw","h","h",1,0.60908654332161,NA,NA,NA
"experimental",7,1,"ld","upper","churnad","nw","nw","h","h",1,0.58259307872504,NA,NA,NA
"experimental",7,2,"ld","upper","deakers","nw","nw","h","h",1,0.518585517071187,NA,NA,NA
"experimental",7,3,"ld","upper","fission","w","w","g","g",1,0.792536246590316,NA,NA,NA
"experimental",7,4,"ld","upper","bullet","w","w","g","g",1,0.487833635881543,NA,NA,NA
"experimental",7,5,"ld","upper","inducing","w","w","g","g",1,0.619155460037291,NA,NA,NA
"experimental",7,6,"ld","upper","suspect","w","w","g","g",1,0.416270614601672,NA,NA,NA
"experimental",7,7,"ld","upper","pepperoni","w","w","g","g",1,0.702810660004616,NA,NA,NA
"experimental",7,8,"ld","upper","begut","nw","nw","h","h",1,0.569456217810512,NA,NA,NA
"experimental",7,9,"ld","upper","trembla","nw","nw","h","h",1,0.585418037138879,NA,NA,NA
"experimental",7,10,"ld","upper","rarren","nw","nw","h","h",1,0.512745738960803,NA,NA,NA
"experimental",7,11,"ld","upper","theery","nw","nw","h","h",1,0.451372070237994,NA,NA,NA
"experimental",7,12,"ld","upper","static","w","w","g","g",1,0.470796043053269,NA,NA,NA
"experimental",7,13,"ld","upper","pexts","nw","nw","h","h",1,0.450772909447551,NA,NA,NA
"experimental",7,14,"ld","upper","fomrade","nw","nw","h","h",1,0.551841196604073,NA,NA,NA
"experimental",7,15,"ld","upper","lutton","nw","nw","h","h",1,0.489100174047053,NA,NA,NA
"experimental",7,16,"ld","upper","fallint","nw","nw","h","h",1,0.499102082103491,NA,NA,NA
"experimental",7,17,"ld","upper","dontrite","nw","nw","h","h",1,0.454515474848449,NA,NA,NA
"experimental",7,18,"ld","upper","earnest","w","w","g","g",1,0.618248116225004,NA,NA,NA
"experimental",7,19,"ld","upper","angry","w","w","g","g",1,0.488113445229828,NA,NA,NA
"experimental",7,20,"ld","upper","hackal","nw","nw","h","h",1,0.482758729718626,NA,NA,NA
"experimental",7,21,"ld","upper","glaims","nw","nw","h","g",0,0.446106399409473,NA,NA,NA
"experimental",7,22,"ld","upper","regiment","w","w","g","g",1,0.859563455916941,NA,NA,NA
"experimental",7,23,"ld","upper","permeable","w","w","g","g",1,0.568116632290184,NA,NA,NA
"experimental",7,24,"ld","upper","renown","w","w","g","g",1,0.656124426051974,NA,NA,NA
"experimental",7,25,"ld","upper","arrested","w","w","g","g",1,0.540717333555222,NA,NA,NA
"experimental",7,26,"ld","upper","stranded","w","w","g","g",1,0.717042007483542,NA,NA,NA
"experimental",7,27,"ld","upper","record","w","w","g","g",1,0.455729190260172,NA,NA,NA
"experimental",7,28,"ld","upper","stuggard","nw","nw","h","h",1,0.580258011817932,NA,NA,NA
"experimental",7,29,"ld","upper","dreaded","w","w","g","g",1,0.54822963103652,NA,NA,NA
"experimental",7,30,"ld","upper","halents","nw","nw","h","h",1,0.485641643404961,NA,NA,NA
"experimental",8,1,"ld","upper","antwers","nw","nw","h","h",1,0.519987884908915,NA,NA,NA
"experimental",8,2,"ld","upper","rantho","nw","nw","h","h",1,0.426773281767964,NA,NA,NA
"experimental",8,3,"ld","upper","crundle","nw","nw","h","h",1,0.559775773435831,NA,NA,NA
"experimental",8,4,"ld","upper","neliefs","nw","nw","h","h",1,0.438527696765959,NA,NA,NA
"experimental",8,5,"ld","upper","matter","w","w","g","g",1,0.515219049528241,NA,NA,NA
"experimental",8,6,"ld","upper","unspoken","w","w","g","g",1,0.517874674871564,NA,NA,NA
"experimental",8,7,"ld","upper","racile","nw","nw","h","h",1,0.488408951088786,NA,NA,NA
"experimental",8,8,"ld","upper","rudder","w","w","g","h",0,0.514948597177863,NA,NA,NA
"experimental",8,9,"ld","upper","parlayid","nw","nw","h","h",1,0.453004444018006,NA,NA,NA
"experimental",8,10,"ld","upper","explosion","w","w","g","g",1,0.472980791702867,NA,NA,NA
"experimental",8,11,"ld","upper","pastnoss","nw","nw","h","h",1,0.436303708702326,NA,NA,NA
"experimental",8,12,"ld","upper","prison","w","w","g","g",1,0.456811000593007,NA,NA,NA
"experimental",8,13,"ld","upper","ifling","nw","nw","h","h",1,0.467838875949383,NA,NA,NA
"experimental",8,14,"ld","upper","bookend","w","w","g","h",0,0.575830260291696,NA,NA,NA
"experimental",8,15,"ld","upper","derived","w","w","g","g",1,0.471756208688021,NA,NA,NA
"experimental",8,16,"ld","upper","culinary","w","w","g","g",1,0.539732417091727,NA,NA,NA
"experimental",8,17,"ld","upper","sunhess","nw","nw","h","h",1,0.605048773810267,NA,NA,NA
"experimental",8,18,"ld","upper","micron","w","w","g","g",1,0.747764610685408,NA,NA,NA
"experimental",8,19,"ld","upper","fuintets","nw","nw","h","h",1,0.508365980349481,NA,NA,NA
"experimental",8,20,"ld","upper","restock","w","w","g","g",1,0.527024778537452,NA,NA,NA
"experimental",8,21,"ld","upper","dusmy","nw","nw","h","h",1,0.567413033917546,NA,NA,NA
"experimental",8,22,"ld","upper","paranoid","w","w","g","g",1,0.439390668645501,NA,NA,NA
"experimental",8,23,"ld","upper","perishing","w","w","g","g",1,0.579965222626925,NA,NA,NA
"experimental",8,24,"ld","upper","miurnal","nw","nw","h","h",1,0.547274596057832,NA,NA,NA
"experimental",8,25,"ld","upper","plogging","nw","nw","h","h",1,0.635948257520795,NA,NA,NA
"experimental",8,26,"ld","upper","drobate","nw","nw","h","h",1,0.512573687359691,NA,NA,NA
"experimental",8,27,"ld","upper","except","w","w","g","g",1,0.474536495283246,NA,NA,NA
"experimental",8,28,"ld","upper","sustain","w","w","g","g",1,0.421855938620865,NA,NA,NA
"experimental",8,29,"ld","upper","overwork","w","w","g","g",1,0.443179114721715,NA,NA,NA
"experimental",8,30,"ld","upper","airbis","nw","nw","h","h",1,0.574676309712231,NA,NA,NA
"experimental",9,1,"hd","lower","rander","nw","nw","h","h",1,0.694017034024,NA,NA,NA
"experimental",9,2,"hd","lower","unwose","nw","nw","h","h",1,0.536615876480937,NA,NA,NA
"experimental",9,3,"hd","lower","thesis","w","w","g","g",1,0.513298717327416,NA,NA,NA
"experimental",9,4,"hd","lower","opert","nw","nw","h","h",1,0.58724691066891,NA,NA,NA
"experimental",9,5,"hd","lower","hemoter","nw","nw","h","h",1,0.441934611648321,NA,NA,NA
"experimental",9,6,"hd","lower","professor","w","w","g","g",1,0.462644741870463,NA,NA,NA
"experimental",9,7,"hd","lower","veranpah","nw","nw","h","h",1,0.505657834000885,NA,NA,NA
"experimental",9,8,"hd","lower","gremieres","nw","nw","h","h",1,0.595615539699793,NA,NA,NA
"experimental",9,9,"hd","lower","pariah","w","w","g","g",1,0.658097279258072,NA,NA,NA
"experimental",9,10,"hd","lower","phonology","w","w","g","g",1,0.758094321005046,NA,NA,NA
"experimental",9,11,"hd","lower","leuter","nw","nw","h","h",1,0.582140916027129,NA,NA,NA
"experimental",9,12,"hd","lower","digest","w","w","g","g",1,0.477391941472888,NA,NA,NA
"experimental",9,13,"hd","lower","lignpost","nw","nw","h","h",1,0.544720391742885,NA,NA,NA
"experimental",9,14,"hd","lower","joses","nw","nw","h","h",1,0.601340919733047,NA,NA,NA
"experimental",9,15,"hd","lower","illness","w","w","g","g",1,0.480001383461058,NA,NA,NA
"experimental",9,16,"hd","lower","obviously","w","w","g","g",1,0.499293148517609,NA,NA,NA
"experimental",9,17,"hd","lower","spider","target","target","q","g",0,0.421999616548419,1,1,NA
"experimental",9,18,"hd","lower","terrify","aftertar1","w","g","g",1,0.554327788762748,NA,NA,NA
"experimental",9,19,"hd","lower","mixture","aftertar2","w","g","g",1,0.402299456298351,NA,NA,NA
"experimental",9,20,"hd","lower","moisture","aftertar3","w","g","g",1,0.408906522206962,NA,NA,NA
"experimental",9,21,"hd","lower","chining","w","nw","h","h",1,0.65490738954395,NA,NA,NA
"experimental",9,22,"hd","lower","chrik","nw","nw","h","h",1,0.561644490808249,NA,NA,NA
"experimental",9,23,"hd","lower","markot","nw","nw","h","h",1,0.721866382285953,NA,NA,NA
"experimental",9,24,"hd","lower","etuip","nw","nw","h","h",1,0.500031158328056,NA,NA,NA
"experimental",9,25,"hd","lower","movie","nw","w","g","g",1,0.494837325066328,NA,NA,NA
"experimental",9,26,"hd","lower","twenties","w","w","g","g",1,0.520597610622644,NA,NA,NA
"experimental",9,27,"hd","lower","visible","w","w","g","g",1,0.39475969132036,NA,NA,NA
"experimental",9,28,"hd","lower","kiner","w","nw","h","h",1,0.496305797249079,NA,NA,NA
"experimental",9,29,"hd","lower","inside","nw","w","g","g",1,0.50696602743119,NA,NA,NA
"experimental",9,30,"hd","lower","cabinet","w","w","g","g",1,0.565052009187639,NA,NA,NA
"experimental",10,1,"hd","lower","atabaster","nw","nw","h","h",1,0.485452084802091,NA,NA,NA
"experimental",10,2,"hd","lower","fallacy","w","w","g","h",0,0.399910057894886,NA,NA,NA
"experimental",10,3,"hd","lower","ready","w","w","g","g",1,0.431456997059286,NA,NA,NA
"experimental",10,4,"hd","lower","usage","w","w","g","g",1,0.419821509160101,NA,NA,NA
"experimental",10,5,"hd","lower","nomma","nw","nw","h","h",1,0.545061173848808,NA,NA,NA
"experimental",10,6,"hd","lower","facienda","nw","nw","h","h",1,0.545674218796194,NA,NA,NA
"experimental",10,7,"hd","lower","border","w","w","g","g",1,0.450551356188953,NA,NA,NA
"experimental",10,8,"hd","lower","dricked","nw","nw","h","h",1,0.511030660942197,NA,NA,NA
"experimental",10,9,"hd","lower","pigned","nw","nw","h","h",1,0.641015616245568,NA,NA,NA
"experimental",10,10,"hd","lower","newstrint","nw","nw","h","h",1,0.517705944366753,NA,NA,NA
"experimental",10,11,"hd","lower","mosary","nw","nw","h","h",1,0.471601967699826,NA,NA,NA
"experimental",10,12,"hd","lower","overflow","w","w","g","g",1,0.45101619604975,NA,NA,NA
"experimental",10,13,"hd","lower","elderly","w","w","g","g",1,0.510329476557672,NA,NA,NA
"experimental",10,14,"hd","lower","dorte","nw","nw","h","h",1,0.463421084918082,NA,NA,NA
"experimental",10,15,"hd","lower","halter","w","w","g","h",0,0.451591813005507,NA,NA,NA
"experimental",10,16,"hd","lower","cutout","w","w","g","g",1,0.448804886080325,NA,NA,NA
"experimental",10,17,"hd","lower","blipover","nw","nw","h","h",1,0.589813492260873,NA,NA,NA
"experimental",10,18,"hd","lower","virulent","w","w","g","g",1,0.780450105667114,NA,NA,NA
"experimental",10,19,"hd","lower","attended","w","w","g","g",1,0.451719794422388,NA,NA,NA
"experimental",10,20,"hd","lower","cobalt","w","w","g","g",1,0.640357595868409,NA,NA,NA
"experimental",10,21,"hd","lower","criminal","w","w","g","g",1,0.501004907302558,NA,NA,NA
"experimental",10,22,"hd","lower","clattest","nw","nw","h","h",1,0.638853507116437,NA,NA,NA
"experimental",10,23,"hd","lower","dislokes","nw","nw","h","h",1,0.683451280929148,NA,NA,NA
"experimental",10,24,"hd","lower","describe","w","w","g","g",1,0.494607924483716,NA,NA,NA
"experimental",10,25,"hd","lower","plymie","nw","nw","h","h",1,0.673246836289763,NA,NA,NA
"experimental",10,26,"hd","lower","butled","nw","nw","h","h",1,0.70050819311291,NA,NA,NA
"experimental",10,27,"hd","lower","gigoho","nw","nw","h","h",1,0.479204817675054,NA,NA,NA
"experimental",10,28,"hd","lower","octopus","target","target","q","q",1,0.714494442567229,1,NA,NA
"experimental",10,29,"hd","lower","igiom","aftertar1","nw","h","h",1,0.66853716224432,NA,NA,NA
"experimental",10,30,"hd","lower","hubris","aftertar2","w","g","g",1,0.624490856193006,NA,NA,NA
"experimental",11,1,"ld","upper","lenie","nw","nw","h","h",1,0.509405531920493,NA,NA,NA
"experimental",11,2,"ld","upper","coverall","w","w","g","g",1,0.703364543616772,NA,NA,NA
"experimental",11,3,"ld","upper","exclusion","w","w","g","g",1,0.401295221410692,NA,NA,NA
"experimental",11,4,"ld","upper","tasher","nw","nw","h","h",1,0.582723776809871,NA,NA,NA
"experimental",11,5,"ld","upper","vorm","nw","nw","h","h",1,0.70982853602618,NA,NA,NA
"experimental",11,6,"ld","upper","vaporize","w","w","g","h",0,0.504364734515548,NA,NA,NA
"experimental",11,7,"ld","upper","formation","w","w","g","g",1,0.482159569859505,NA,NA,NA
"experimental",11,8,"ld","upper","phraining","nw","nw","h","h",1,0.669352142140269,NA,NA,NA
"experimental",11,9,"ld","upper","profats","nw","nw","h","h",1,0.584556574001908,NA,NA,NA
"experimental",11,10,"ld","upper","humanize","w","w","g","g",1,0.423636516556144,NA,NA,NA
"experimental",11,11,"ld","upper","elbalm","nw","nw","h","h",1,0.549154783599079,NA,NA,NA
"experimental",11,12,"ld","upper","halms","nw","nw","h","h",1,0.525773332454264,NA,NA,NA
"experimental",11,13,"ld","upper","footstep","w","w","g","g",1,0.487157505005598,NA,NA,NA
"experimental",11,14,"ld","upper","ghists","nw","nw","h","h",1,0.481638285331428,NA,NA,NA
"experimental",11,15,"ld","upper","rivet","w","w","g","g",1,0.74099937826395,NA,NA,NA
"experimental",11,16,"ld","upper","smabled","nw","nw","h","h",1,0.565645133145154,NA,NA,NA
"experimental",11,17,"ld","upper","dumult","nw","nw","h","h",1,0.565583556890488,NA,NA,NA
"experimental",11,18,"ld","upper","hindsight","w","w","g","g",1,0.532578106038272,NA,NA,NA
"experimental",11,19,"ld","upper","confined","w","w","g","g",1,0.382026094011962,NA,NA,NA
"experimental",11,20,"ld","upper","dentures","w","w","g","h",0,0.477216872386634,NA,NA,NA
"experimental",11,21,"ld","upper","harmful","w","w","g","g",1,0.392520913854241,NA,NA,NA
"experimental",11,22,"ld","upper","extruded","w","w","g","g",1,0.415238005109131,NA,NA,NA
"experimental",11,23,"ld","upper","nature","w","w","g","g",1,0.389165915548801,NA,NA,NA
"experimental",11,24,"ld","upper","earmaff","nw","nw","h","h",1,0.571863725781441,NA,NA,NA
"experimental",11,25,"ld","upper","actively","w","w","g","g",1,0.427130061201751,NA,NA,NA
"experimental",11,26,"ld","upper","unamufed","nw","nw","h","h",1,0.608398640528321,NA,NA,NA
"experimental",11,27,"ld","upper","talate","nw","nw","h","h",1,0.533485751599073,NA,NA,NA
"experimental",11,28,"ld","upper","glattery","nw","nw","h","h",1,0.614779021590948,NA,NA,NA
"experimental",11,29,"ld","upper","bedding","w","w","g","g",1,0.516720120795071,NA,NA,NA
"experimental",11,30,"ld","upper","volder","nw","nw","h","h",1,0.565495418384671,NA,NA,NA
"experimental",12,1,"ld","upper","legalize","w","w","g","g",1,0.542333709076047,NA,NA,NA
"experimental",12,2,"ld","upper","antique","w","w","g","g",1,0.453792558051646,NA,NA,NA
"experimental",12,3,"ld","upper","sopes","nw","nw","h","h",1,0.498984966427088,NA,NA,NA
"experimental",12,4,"ld","upper","nores","nw","nw","h","h",1,0.556529138237238,NA,NA,NA
"experimental",12,5,"ld","upper","trecious","nw","nw","h","h",1,0.716681303456426,NA,NA,NA
"experimental",12,6,"ld","upper","turntable","w","w","g","g",1,0.574653973802924,NA,NA,NA
"experimental",12,7,"ld","upper","uncorked","w","w","g","g",1,0.789877905510366,NA,NA,NA
"experimental",12,8,"ld","upper","snife","nw","nw","h","h",1,0.588518278673291,NA,NA,NA
"experimental",12,9,"ld","upper","require","w","w","g","g",1,0.419130889698863,NA,NA,NA
"experimental",12,10,"ld","upper","nimono","nw","nw","h","h",1,0.480511501431465,NA,NA,NA
"experimental",12,11,"ld","upper","prillway","nw","nw","h","h",1,0.523767276667058,NA,NA,NA
"experimental",12,12,"ld","upper","encrusted","w","w","g","g",1,0.476178226061165,NA,NA,NA
"experimental",12,13,"ld","upper","terming","w","w","g","g",1,0.519428266212344,NA,NA,NA
"experimental",12,14,"ld","upper","galashes","nw","nw","h","h",1,0.528832221403718,NA,NA,NA
"experimental",12,15,"ld","upper","volition","w","w","g","g",1,0.514019219204783,NA,NA,NA
"experimental",12,16,"ld","upper","lasprey","nw","nw","h","h",1,0.563876930624247,NA,NA,NA
"experimental",12,17,"ld","upper","chight","nw","nw","h","h",1,0.64369086176157,NA,NA,NA
"experimental",12,18,"ld","upper","epic","w","w","g","g",1,0.456176524050534,NA,NA,NA
"experimental",12,19,"ld","upper","deserve","w","w","g","g",1,0.404062528163195,NA,NA,NA
"experimental",12,20,"ld","upper","dests","nw","nw","h","h",1,0.528711181133986,NA,NA,NA
"experimental",12,21,"ld","upper","ecistle","nw","nw","h","h",1,0.530078836716712,NA,NA,NA
"experimental",12,22,"ld","upper","gonesty","nw","nw","h","h",1,0.547057268209755,NA,NA,NA
"experimental",12,23,"ld","upper","brials","nw","nw","h","h",1,0.852266072295606,NA,NA,NA
"experimental",12,24,"ld","upper","postal","w","w","g","h",0,0.520737665705383,NA,NA,NA
"experimental",12,25,"ld","upper","govern","w","w","g","g",1,0.489833353087306,NA,NA,NA
"experimental",12,26,"ld","upper","ladybug","target","target","q","g",0,0.588326305150986,1,1,NA
"experimental",12,27,"ld","upper","ascending","aftertar1","w","g","g",1,0.530947846360505,NA,NA,NA
"experimental",12,28,"ld","upper","cegalia","aftertar2","nw","h","h",1,0.532278979197145,NA,NA,NA
"experimental",12,29,"ld","upper","hasks","aftertar3","nw","h","h",1,0.693497559987009,NA,NA,NA
"experimental",12,30,"ld","upper","entitle","nw","w","g","g",1,0.448237419128418,NA,NA,NA
"experimental",13,1,"hd","lower","index","w","w","g","g",1,0.436251791194081,NA,NA,NA
"experimental",13,2,"hd","lower","lofty","w","w","g","g",1,0.520902774296701,NA,NA,NA
"experimental",13,3,"hd","lower","stooping","w","w","g","g",1,0.474231632426381,NA,NA,NA
"experimental",13,4,"hd","lower","addition","w","w","g","g",1,0.37352767214179,NA,NA,NA
"experimental",13,5,"hd","lower","maintain","w","w","g","g",1,0.396846038289368,NA,NA,NA
"experimental",13,6,"hd","lower","owner","w","w","g","g",1,0.411544338800013,NA,NA,NA
"experimental",13,7,"hd","lower","roughly","w","w","g","g",1,0.393507038243115,NA,NA,NA
"experimental",13,8,"hd","lower","dehydrate","w","w","g","g",1,0.43216029368341,NA,NA,NA
"experimental",13,9,"hd","lower","finstrel","nw","nw","h","g",0,0.388478918001056,NA,NA,NA
"experimental",13,10,"hd","lower","mitro","nw","nw","h","h",1,0.603081052191556,NA,NA,NA
"experimental",13,11,"hd","lower","caloric","w","w","g","g",1,0.54424287378788,NA,NA,NA
"experimental",13,12,"hd","lower","tusied","nw","nw","h","h",1,0.537170363590121,NA,NA,NA
"experimental",13,13,"hd","lower","mabit","nw","nw","h","h",1,0.546503988094628,NA,NA,NA
"experimental",13,14,"hd","lower","fisco","nw","nw","h","h",1,0.619373391382396,NA,NA,NA
"experimental",13,15,"hd","lower","sliding","w","w","g","g",1,0.48858945351094,NA,NA,NA
"experimental",13,16,"hd","lower","otoist","nw","nw","h","h",1,0.515255270525813,NA,NA,NA
"experimental",13,17,"hd","lower","harder","w","w","g","g",1,0.469258750788867,NA,NA,NA
"experimental",13,18,"hd","lower","mullet","w","w","g","g",1,0.624564808793366,NA,NA,NA
"experimental",13,19,"hd","lower","donastic","nw","nw","h","h",1,0.532921604812145,NA,NA,NA
"experimental",13,20,"hd","lower","intrude","w","w","g","g",1,0.494223072193563,NA,NA,NA
"experimental",13,21,"hd","lower","saturate","w","w","g","g",1,0.496807462535799,NA,NA,NA
"experimental",13,22,"hd","lower","ottans","nw","nw","h","h",1,0.499499307945371,NA,NA,NA
"experimental",13,23,"hd","lower","louches","nw","nw","h","h",1,0.542089216411114,NA,NA,NA
"experimental",13,24,"hd","lower","latirizes","nw","nw","h","h",1,0.494762770831585,NA,NA,NA
"experimental",13,25,"hd","lower","kickoff","w","w","g","g",1,0.529422628693283,NA,NA,NA
"experimental",13,26,"hd","lower","thacked","nw","nw","h","h",1,0.546739426441491,NA,NA,NA
"experimental",13,27,"hd","lower","dileting","nw","nw","h","h",1,0.602539844810963,NA,NA,NA
"experimental",13,28,"hd","lower","elalt","nw","nw","h","h",1,0.49734534882009,NA,NA,NA
"experimental",13,29,"hd","lower","hanling","nw","nw","h","h",1,0.443014005199075,NA,NA,NA
"experimental",13,30,"hd","lower","elpired","nw","nw","h","h",1,0.471648450940847,NA,NA,NA
"experimental",14,1,"hd","lower","standard","w","w","g","g",1,0.507529569789767,NA,NA,NA
"experimental",14,2,"hd","lower","chiffol","nw","nw","h","h",1,0.452279715798795,NA,NA,NA
"experimental",14,3,"hd","lower","expounded","w","w","g","g",1,0.623381881974638,NA,NA,NA
"experimental",14,4,"hd","lower","unversed","w","w","g","h",0,0.573212064802647,NA,NA,NA
"experimental",14,5,"hd","lower","attract","w","w","g","g",1,0.413073481991887,NA,NA,NA
"experimental",14,6,"hd","lower","crimb","nw","nw","h","g",0,0.522996667772532,NA,NA,NA
"experimental",14,7,"hd","lower","consonant","w","w","g","h",0,0.57236539106816,NA,NA,NA
"experimental",14,8,"hd","lower","theles","nw","nw","h","h",1,0.515596657060087,NA,NA,NA
"experimental",14,9,"hd","lower","flieves","nw","nw","h","h",1,0.493572901003063,NA,NA,NA
"experimental",14,10,"hd","lower","senalize","nw","nw","h","h",1,0.616165994666517,NA,NA,NA
"experimental",14,11,"hd","lower","machinery","w","w","g","g",1,0.518160822801292,NA,NA,NA
"experimental",14,12,"hd","lower","ordinary","w","w","g","g",1,0.440030578523874,NA,NA,NA
"experimental",14,13,"hd","lower","togglo","nw","nw","h","h",1,0.444687128067017,NA,NA,NA
"experimental",14,14,"hd","lower","ugifies","nw","nw","h","h",1,0.528339007869363,NA,NA,NA
"experimental",14,15,"hd","lower","misobeyed","nw","nw","h","g",0,0.697525369003415,NA,NA,NA
"experimental",14,16,"hd","lower","bother","w","w","g","g",1,0.524223664775491,NA,NA,NA
"experimental",14,17,"hd","lower","cooray","nw","nw","h","h",1,0.517510348930955,NA,NA,NA
"experimental",14,18,"hd","lower","flooted","nw","nw","h","h",1,0.686839180067182,NA,NA,NA
"experimental",14,19,"hd","lower","jaguar","target","target","q","q",1,0.801502527669072,1,NA,NA
"experimental",14,20,"hd","lower","susher","aftertar1","nw","h","h",1,0.623201076872647,NA,NA,NA
"experimental",14,21,"hd","lower","puggers","aftertar2","nw","h","h",1,0.628529531881213,NA,NA,NA
"experimental",14,22,"hd","lower","overcoat","aftertar3","w","g","g",1,0.688981066457927,NA,NA,NA
"experimental",14,23,"hd","lower","nollow","w","nw","h","h",1,0.467546388506889,NA,NA,NA
"experimental",14,24,"hd","lower","defensa","nw","nw","h","h",1,0.646711415611207,NA,NA,NA
"experimental",14,25,"hd","lower","nauling","nw","nw","h","h",1,0.499442864209414,NA,NA,NA
"experimental",14,26,"hd","lower","solidity","nw","w","g","g",1,0.966047732159495,NA,NA,NA
"experimental",14,27,"hd","lower","achieve","w","w","g","g",1,0.412869434803724,NA,NA,NA
"experimental",14,28,"hd","lower","rearrange","w","w","g","g",1,0.531156420707703,NA,NA,NA
"experimental",14,29,"hd","lower","mopping","w","w","g","g",1,0.653101153671741,NA,NA,NA
"experimental",14,30,"hd","lower","companion","w","w","g","g",1,0.425443356856704,NA,NA,NA
"experimental",15,1,"hd","lower","refebs","nw","nw","h","h",1,0.566067111678421,NA,NA,NA
"experimental",15,2,"hd","lower","apop","nw","nw","h","h",1,0.462011171504855,NA,NA,NA
"experimental",15,3,"hd","lower","moozy","nw","nw","h","h",1,0.658070716075599,NA,NA,NA
"experimental",15,4,"hd","lower","fetching","w","w","g","g",1,0.565982293337584,NA,NA,NA
"experimental",15,5,"hd","lower","grenavier","nw","nw","h","h",1,0.493997293524444,NA,NA,NA
"experimental",15,6,"hd","lower","massacre","w","w","g","g",1,0.520661600865424,NA,NA,NA
"experimental",15,7,"hd","lower","twarfs","nw","nw","h","h",1,0.505095196887851,NA,NA,NA
"experimental",15,8,"hd","lower","expired","w","w","g","g",1,0.467882341705263,NA,NA,NA
"experimental",15,9,"hd","lower","gumdrep","nw","nw","h","h",1,0.454248645342887,NA,NA,NA
"experimental",15,10,"hd","lower","thrapping","nw","nw","h","h",1,0.562187507748604,NA,NA,NA
"experimental",15,11,"hd","lower","nameplate","w","w","g","g",1,0.634161640889943,NA,NA,NA
"experimental",15,12,"hd","lower","number","w","w","g","g",1,0.39876003190875,NA,NA,NA
"experimental",15,13,"hd","lower","phambled","nw","nw","h","h",1,0.49348717648536,NA,NA,NA
"experimental",15,14,"hd","lower","dialect","w","w","g","g",1,0.608161390759051,NA,NA,NA
"experimental",15,15,"hd","lower","schides","nw","nw","h","h",1,0.566045076586306,NA,NA,NA
"experimental",15,16,"hd","lower","chicken","target","target","q","q",1,0.574049077928066,1,NA,NA
"experimental",15,17,"hd","lower","arrow","aftertar1","w","g","g",1,0.460482028312981,NA,NA,NA
"experimental",15,18,"hd","lower","agony","aftertar2","w","g","g",1,0.512138729915023,NA,NA,NA
"experimental",15,19,"hd","lower","surfaced","aftertar3","w","g","g",1,0.441143477335572,NA,NA,NA
"experimental",15,20,"hd","lower","trocess","w","nw","h","h",1,0.518449386581779,NA,NA,NA
"experimental",15,21,"hd","lower","fivalve","nw","nw","h","h",1,0.520330781117082,NA,NA,NA
"experimental",15,22,"hd","lower","official","nw","w","g","g",1,0.48159029148519,NA,NA,NA
"experimental",15,23,"hd","lower","sheerio","w","nw","h","h",1,0.684901944361627,NA,NA,NA
"experimental",15,24,"hd","lower","iolize","nw","nw","h","h",1,0.59158561937511,NA,NA,NA
"experimental",15,25,"hd","lower","season","nw","w","g","g",1,0.446095834486187,NA,NA,NA
"experimental",15,26,"hd","lower","offonents","w","nw","h","h",1,0.466982242651284,NA,NA,NA
"experimental",15,27,"hd","lower","other","nw","w","g","h",0,0.462780269794166,NA,NA,NA
"experimental",15,28,"hd","lower","tipoff","w","w","g","g",1,0.594730533659458,NA,NA,NA
"experimental",15,29,"hd","lower","typical","w","w","g","g",1,0.448418223299086,NA,NA,NA
"experimental",15,30,"hd","lower","mantos","w","nw","h","h",1,0.613035569898784,NA,NA,NA
"experimental",16,1,"ld","upper","intercede","w","w","g","g",1,0.63559238333255,NA,NA,NA
"experimental",16,2,"ld","upper","acorn","w","w","g","g",1,0.544267323799431,NA,NA,NA
"experimental",16,3,"ld","upper","target","w","w","g","g",1,0.391962502151728,NA,NA,NA
"experimental",16,4,"ld","upper","pranny","nw","nw","h","h",1,0.582548104226589,NA,NA,NA
"experimental",16,5,"ld","upper","birn","nw","nw","h","h",1,0.629785203374922,NA,NA,NA
"experimental",16,6,"ld","upper","crudios","nw","nw","h","h",1,0.515175584703684,NA,NA,NA
"experimental",16,7,"ld","upper","gaioty","nw","nw","h","h",1,0.517266458831728,NA,NA,NA
"experimental",16,8,"ld","upper","baseline","w","w","g","g",1,0.446410357020795,NA,NA,NA
"experimental",16,9,"ld","upper","gettle","nw","nw","h","h",1,0.531153100542724,NA,NA,NA
"experimental",16,10,"ld","upper","sength","nw","nw","h","h",1,0.651208591647446,NA,NA,NA
"experimental",16,11,"ld","upper","hangar","w","w","g","h",0,0.479486438445747,NA,NA,NA
"experimental",16,12,"ld","upper","telecast","w","w","g","h",0,0.491375776939094,NA,NA,NA
"experimental",16,13,"ld","upper","mitten","w","w","g","h",0,0.57438382320106,NA,NA,NA
"experimental",16,14,"ld","upper","treenery","nw","nw","h","h",1,0.564681042917073,NA,NA,NA
"experimental",16,15,"ld","upper","cessation","w","w","g","h",0,0.492743734270334,NA,NA,NA
"experimental",16,16,"ld","upper","subpoena","w","w","g","g",1,1.14323628414422,NA,NA,NA
"experimental",16,17,"ld","upper","apticle","nw","nw","h","h",1,0.57599778380245,NA,NA,NA
"experimental",16,18,"ld","upper","unstatle","nw","nw","h","h",1,0.695254896767437,NA,NA,NA
"experimental",16,19,"ld","upper","student","w","w","g","g",1,0.393820050172508,NA,NA,NA
"experimental",16,20,"ld","upper","painter","w","w","g","g",1,0.464513156563044,NA,NA,NA
"experimental",16,21,"ld","upper","potent","w","w","g","g",1,0.484445434994996,NA,NA,NA
"experimental",16,22,"ld","upper","scrib","nw","nw","h","h",1,0.583073010668159,NA,NA,NA
"experimental",16,23,"ld","upper","unsmilung","nw","nw","h","h",1,0.606417334638536,NA,NA,NA
"experimental",16,24,"ld","upper","mineluyer","nw","nw","h","h",1,0.475407919846475,NA,NA,NA
"experimental",16,25,"ld","upper","strenuous","w","w","g","g",1,0.630726956762373,NA,NA,NA
"experimental",16,26,"ld","upper","cartles","nw","nw","h","h",1,0.54799781460315,NA,NA,NA
"experimental",16,27,"ld","upper","metebing","nw","nw","h","h",1,0.556629350408912,NA,NA,NA
"experimental",16,28,"ld","upper","statute","w","w","g","g",1,0.564610411413014,NA,NA,NA
"experimental",16,29,"ld","upper","intersect","w","w","g","g",1,0.516679976135492,NA,NA,NA
"experimental",16,30,"ld","upper","runabouk","nw","nw","h","h",1,0.622620026580989,NA,NA,NA
"experimental",17,1,"ld","upper","superstar","w","w","g","g",1,0.506239488720894,NA,NA,NA
"experimental",17,2,"ld","upper","ounwit","nw","nw","h","h",1,0.452474706806242,NA,NA,NA
"experimental",17,3,"ld","upper","binder","w","w","g","g",1,0.649107455275953,NA,NA,NA
"experimental",17,4,"ld","upper","robbery","w","w","g","g",1,0.430101716890931,NA,NA,NA
"experimental",17,5,"ld","upper","chyme","nw","nw","h","g",0,0.483256471343338,NA,NA,NA
"experimental",17,6,"ld","upper","unburnid","nw","nw","h","h",1,0.534580540843308,NA,NA,NA
"experimental",17,7,"ld","upper","causality","w","w","g","g",1,0.44736659899354,NA,NA,NA
"experimental",17,8,"ld","upper","seldom","w","w","g","g",1,0.450935302302241,NA,NA,NA
"experimental",17,9,"ld","upper","capobly","nw","nw","h","h",1,0.566822929307818,NA,NA,NA
"experimental",17,10,"ld","upper","brouhuha","nw","nw","h","h",1,0.526820731349289,NA,NA,NA
"experimental",17,11,"ld","upper","frowsed","nw","nw","h","h",1,0.536124172620475,NA,NA,NA
"experimental",17,12,"ld","upper","cookbook","w","w","g","g",1,0.800745200365782,NA,NA,NA
"experimental",17,13,"ld","upper","giving","w","w","g","g",1,0.39869000390172,NA,NA,NA
"experimental",17,14,"ld","upper","traze","nw","nw","h","h",1,0.621349263004959,NA,NA,NA
"experimental",17,15,"ld","upper","slowning","nw","nw","h","h",1,0.674669729545712,NA,NA,NA
"experimental",17,16,"ld","upper","collute","nw","nw","h","h",1,0.77398098167032,NA,NA,NA
"experimental",17,17,"ld","upper","gelented","nw","nw","h","h",1,0.548422811552882,NA,NA,NA
"experimental",17,18,"ld","upper","goblet","w","w","g","g",1,0.564927648752928,NA,NA,NA
"experimental",17,19,"ld","upper","scack","nw","nw","h","h",1,0.580901845358312,NA,NA,NA
"experimental",17,20,"ld","upper","rootsie","nw","nw","h","h",1,0.628241874277592,NA,NA,NA
"experimental",17,21,"ld","upper","violate","w","w","g","g",1,0.433600091375411,NA,NA,NA
"experimental",17,22,"ld","upper","prame","nw","nw","h","h",1,0.582868359982967,NA,NA,NA
"experimental",17,23,"ld","upper","uncle","w","w","g","g",1,0.590240903198719,NA,NA,NA
"experimental",17,24,"ld","upper","pamine","nw","nw","h","h",1,0.59684163145721,NA,NA,NA
"experimental",17,25,"ld","upper","patio","w","w","g","g",1,0.475490021519363,NA,NA,NA
"experimental",17,26,"ld","upper","graciap","nw","nw","h","h",1,0.485657943412662,NA,NA,NA
"experimental",17,27,"ld","upper","accessory","w","w","g","g",1,0.416234090924263,NA,NA,NA
"experimental",17,28,"ld","upper","comment","w","w","g","g",1,0.478754767216742,NA,NA,NA
"experimental",17,29,"ld","upper","located","w","w","g","g",1,0.465621227398515,NA,NA,NA
"experimental",17,30,"ld","upper","hatred","w","w","g","g",1,0.525722019374371,NA,NA,NA
"experimental",18,1,"ld","upper","gazes","w","w","g","g",1,0.495611857622862,NA,NA,NA
"experimental",18,2,"ld","upper","outset","w","w","g","g",1,0.410188152454794,NA,NA,NA
"experimental",18,3,"ld","upper","gackpedal","nw","nw","h","h",1,0.440175463445485,NA,NA,NA
"experimental",18,4,"ld","upper","fictional","w","w","g","g",1,0.443836530670524,NA,NA,NA
"experimental",18,5,"ld","upper","peahem","nw","nw","h","h",1,0.440433238632977,NA,NA,NA
"experimental",18,6,"ld","upper","frose","nw","nw","h","g",0,0.685063129290938,NA,NA,NA
"experimental",18,7,"ld","upper","blueberry","w","w","g","g",1,0.463754924014211,NA,NA,NA
"experimental",18,8,"ld","upper","mamps","nw","nw","h","h",1,0.459771185182035,NA,NA,NA
"experimental",18,9,"ld","upper","educate","w","w","g","g",1,0.399763965047896,NA,NA,NA
"experimental",18,10,"ld","upper","scarlet","w","w","g","g",1,0.414343339391053,NA,NA,NA
"experimental",18,11,"ld","upper","lecked","nw","nw","h","h",1,0.604327366687357,NA,NA,NA
"experimental",18,12,"ld","upper","miability","nw","nw","h","h",1,0.618317539803684,NA,NA,NA
"experimental",18,13,"ld","upper","expected","w","w","g","g",1,0.479701953940094,NA,NA,NA
"experimental",18,14,"ld","upper","chappef","nw","nw","h","h",1,0.497979523614049,NA,NA,NA
"experimental",18,15,"ld","upper","seighing","nw","nw","h","h",1,0.564578717574477,NA,NA,NA
"experimental",18,16,"ld","upper","stable","w","w","g","g",1,0.404567210935056,NA,NA,NA
"experimental",18,17,"ld","upper","whirlpool","w","w","g","g",1,0.610532678663731,NA,NA,NA
"experimental",18,18,"ld","upper","atble","nw","nw","h","h",1,0.519231765531003,NA,NA,NA
"experimental",18,19,"ld","upper","tining","nw","nw","h","h",1,0.576607206836343,NA,NA,NA
"experimental",18,20,"ld","upper","planar","w","w","g","h",0,0.496495657600462,NA,NA,NA
"experimental",18,21,"ld","upper","trallion","nw","nw","h","h",1,0.627707006409764,NA,NA,NA
"experimental",18,22,"ld","upper","stifle","w","w","g","g",1,0.512192157097161,NA,NA,NA
"experimental",18,23,"ld","upper","hecture","nw","nw","h","g",0,0.443090674467385,NA,NA,NA
"experimental",18,24,"ld","upper","hotplate","w","w","g","g",1,0.57472852896899,NA,NA,NA
"experimental",18,25,"ld","upper","horks","nw","nw","h","h",1,0.606011052615941,NA,NA,NA
"experimental",18,26,"ld","upper","asthmatic","w","w","g","h",0,0.756055363453925,NA,NA,NA
"experimental",18,27,"ld","upper","grefab","nw","nw","h","h",1,0.451913881115615,NA,NA,NA
"experimental",18,28,"ld","upper","crazy","w","w","g","g",1,0.463955349288881,NA,NA,NA
"experimental",18,29,"ld","upper","sputter","w","w","g","g",1,0.643939883448184,NA,NA,NA
"experimental",18,30,"ld","upper","podes","nw","nw","h","h",1,0.480533534660935,NA,NA,NA
"experimental",19,1,"hd","lower","euphoric","w","w","g","g",1,0.48338234052062,NA,NA,NA
"experimental",19,2,"hd","lower","medium","w","w","g","g",1,0.382648195140064,NA,NA,NA
"experimental",19,3,"hd","lower","lawsuit","w","w","g","g",1,0.405974408611655,NA,NA,NA
"experimental",19,4,"hd","lower","monopoly","w","w","g","g",1,0.499996747821569,NA,NA,NA
"experimental",19,5,"hd","lower","heaviest","w","w","g","g",1,0.438608288764954,NA,NA,NA
"experimental",19,6,"hd","lower","impirt","nw","nw","h","h",1,0.579270981252193,NA,NA,NA
"experimental",19,7,"hd","lower","corduroy","w","w","g","g",1,0.618585879914463,NA,NA,NA
"experimental",19,8,"hd","lower","handbook","w","w","g","g",1,0.415053277276456,NA,NA,NA
"experimental",19,9,"hd","lower","surround","w","w","g","g",1,0.413889667019248,NA,NA,NA
"experimental",19,10,"hd","lower","stelled","nw","nw","h","g",0,0.553747040219605,NA,NA,NA
"experimental",19,11,"hd","lower","chraps","nw","nw","h","h",1,0.457798935472965,NA,NA,NA
"experimental",19,12,"hd","lower","butcher","w","w","g","g",1,0.502335738390684,NA,NA,NA
"experimental",19,13,"hd","lower","ronic","nw","nw","h","h",1,0.552837885916233,NA,NA,NA
"experimental",19,14,"hd","lower","hangar","w","w","g","h",0,0.624702751636505,NA,NA,NA
"experimental",19,15,"hd","lower","venturous","w","w","g","h",0,1.13397570606321,NA,NA,NA
"experimental",19,16,"hd","lower","pypecast","nw","nw","h","h",1,0.542781646363437,NA,NA,NA
"experimental",19,17,"hd","lower","foster","w","w","g","g",1,0.551338927820325,NA,NA,NA
"experimental",19,18,"hd","lower","hostade","nw","nw","h","h",1,0.495357402600348,NA,NA,NA
"experimental",19,19,"hd","lower","intended","w","w","g","g",1,0.464926683343947,NA,NA,NA
"experimental",19,20,"hd","lower","mogus","nw","nw","h","h",1,0.452885516919196,NA,NA,NA
"experimental",19,21,"hd","lower","miteous","nw","nw","h","h",1,0.552874107845128,NA,NA,NA
"experimental",19,22,"hd","lower","chone","nw","nw","h","h",1,0.544840826652944,NA,NA,NA
"experimental",19,23,"hd","lower","sooled","nw","nw","h","h",1,0.57743426039815,NA,NA,NA
"experimental",19,24,"hd","lower","aicline","nw","nw","h","h",1,0.584763639606535,NA,NA,NA
"experimental",19,25,"hd","lower","ifkling","nw","nw","h","h",1,0.455428251996636,NA,NA,NA
"experimental",19,26,"hd","lower","cripet","nw","nw","h","h",1,0.619423194788396,NA,NA,NA
"experimental",19,27,"hd","lower","pressures","w","w","g","g",1,0.447867659851909,NA,NA,NA
"experimental",19,28,"hd","lower","giraffe","target","target","q","g",0,0.453392916359007,1,1,NA
"experimental",19,29,"hd","lower","gelfry","aftertar1","nw","h","h",1,0.576421874575317,NA,NA,NA
"experimental",19,30,"hd","lower","fonducts","aftertar2","nw","h","h",1,0.551722269505262,NA,NA,NA
"experimental",20,1,"hd","lower","setwixt","nw","nw","h","h",1,0.486416779458523,NA,NA,NA
"experimental",20,2,"hd","lower","greft","nw","nw","h","h",1,0.504891452379525,NA,NA,NA
"experimental",20,3,"hd","lower","sording","nw","nw","h","h",1,0.426784148439765,NA,NA,NA
"experimental",20,4,"hd","lower","condensed","w","w","g","g",1,0.505567281506956,NA,NA,NA
"experimental",20,5,"hd","lower","geadpan","nw","nw","h","h",1,0.48249582387507,NA,NA,NA
"experimental",20,6,"hd","lower","ezulated","nw","nw","h","h",1,0.509857996366918,NA,NA,NA
"experimental",20,7,"hd","lower","emergence","w","w","g","g",1,0.527767918072641,NA,NA,NA
"experimental",20,8,"hd","lower","fards","nw","nw","h","h",1,0.513015889562666,NA,NA,NA
"experimental",20,9,"hd","lower","incorrect","w","w","g","g",1,0.43508365470916,NA,NA,NA
"experimental",20,10,"hd","lower","warden","w","w","g","g",1,0.583842411637306,NA,NA,NA
"experimental",20,11,"hd","lower","catacomb","w","w","g","h",0,0.494360713288188,NA,NA,NA
"experimental",20,12,"hd","lower","slears","nw","nw","h","h",1,0.536956054158509,NA,NA,NA
"experimental",20,13,"hd","lower","abraid","nw","nw","h","h",1,0.648752183653414,NA,NA,NA
"experimental",20,14,"hd","lower","ahead","w","w","g","g",1,0.517324413172901,NA,NA,NA
"experimental",20,15,"hd","lower","fidelity","w","w","g","g",1,0.502554574981332,NA,NA,NA
"experimental",20,16,"hd","lower","carbled","nw","nw","h","h",1,0.48852214217186,NA,NA,NA
"experimental",20,17,"hd","lower","orange","w","w","g","g",1,0.451249219477177,NA,NA,NA
"experimental",20,18,"hd","lower","railroad","w","w","g","g",1,0.487167767249048,NA,NA,NA
"experimental",20,19,"hd","lower","asclibed","nw","nw","h","h",1,0.601793082430959,NA,NA,NA
"experimental",20,20,"hd","lower","delegate","w","w","g","g",1,0.551744002848864,NA,NA,NA
"experimental",20,21,"hd","lower","lonnote","nw","nw","h","h",1,0.543746038340032,NA,NA,NA
"experimental",20,22,"hd","lower","calcify","w","w","g","g",1,0.464419585652649,NA,NA,NA
"experimental",20,23,"hd","lower","breiled","nw","nw","h","h",1,0.588370073586702,NA,NA,NA
"experimental",20,24,"hd","lower","prawls","nw","nw","h","g",0,0.531062848865986,NA,NA,NA
"experimental",20,25,"hd","lower","hodels","nw","nw","h","h",1,0.499329068697989,NA,NA,NA
"experimental",20,26,"hd","lower","teamwork","w","w","g","g",1,0.470017285086215,NA,NA,NA
"experimental",20,27,"hd","lower","repayment","w","w","g","g",1,0.640140569768846,NA,NA,NA
"experimental",20,28,"hd","lower","swatches","w","w","g","g",1,0.46876463200897,NA,NA,NA
"experimental",20,29,"hd","lower","flamingo","target","target","q","g",0,0.560589545406401,1,1,NA
"experimental",20,30,"hd","lower","uncarled","aftertar1","nw","h","h",1,0.55322786886245,NA,NA,NA
"experimental",21,1,"ld","upper","guivers","nw","nw","h","h",1,0.528688543476164,NA,NA,NA
"experimental",21,2,"ld","upper","cheathe","nw","nw","h","h",1,0.618013884872198,NA,NA,NA
"experimental",21,3,"ld","upper","imprives","nw","nw","h","h",1,0.631387995555997,NA,NA,NA
"experimental",21,4,"ld","upper","serfume","nw","nw","h","h",1,0.62867290712893,NA,NA,NA
"experimental",21,5,"ld","upper","burning","w","w","g","g",1,0.521932667121291,NA,NA,NA
"experimental",21,6,"ld","upper","maunches","nw","nw","h","h",1,0.515265231952071,NA,NA,NA
"experimental",21,7,"ld","upper","warmer","w","w","g","g",1,0.445232259109616,NA,NA,NA
"experimental",21,8,"ld","upper","colicky","w","w","g","h",0,0.457005388103426,NA,NA,NA
"experimental",21,9,"ld","upper","amms","nw","nw","h","h",1,0.524904926307499,NA,NA,NA
"experimental",21,10,"ld","upper","paying","w","w","g","g",1,0.510178554803133,NA,NA,NA
"experimental",21,11,"ld","upper","reconcile","w","w","g","g",1,0.472162491641939,NA,NA,NA
"experimental",21,12,"ld","upper","sunshine","w","w","g","g",1,0.395495888777077,NA,NA,NA
"experimental",21,13,"ld","upper","mestowal","nw","nw","h","h",1,0.522125244140625,NA,NA,NA
"experimental",21,14,"ld","upper","serving","w","w","g","g",1,0.459469341672957,NA,NA,NA
"experimental",21,15,"ld","upper","bropic","nw","nw","h","h",1,0.575434844009578,NA,NA,NA
"experimental",21,16,"ld","upper","emotion","w","w","g","g",1,0.374777608551085,NA,NA,NA
"experimental",21,17,"ld","upper","thorifies","nw","nw","h","h",1,0.678108640015125,NA,NA,NA
"experimental",21,18,"ld","upper","bettled","nw","nw","h","h",1,0.585537567734718,NA,NA,NA
"experimental",21,19,"ld","upper","gerby","nw","nw","h","h",1,0.526827673427761,NA,NA,NA
"experimental",21,20,"ld","upper","ements","nw","nw","h","h",1,0.503376798704267,NA,NA,NA
"experimental",21,21,"ld","upper","uncounted","w","w","g","g",1,0.577963693998754,NA,NA,NA
"experimental",21,22,"ld","upper","glamorous","w","w","g","g",1,0.40165350958705,NA,NA,NA
"experimental",21,23,"ld","upper","eugenifs","nw","nw","h","h",1,0.479646717198193,NA,NA,NA
"experimental",21,24,"ld","upper","gallon","w","w","g","g",1,0.386828131973743,NA,NA,NA
"experimental",21,25,"ld","upper","ubefully","nw","nw","h","h",1,0.473505396395922,NA,NA,NA
"experimental",21,26,"ld","upper","acidic","w","w","g","g",1,0.508890283294022,NA,NA,NA
"experimental",21,27,"ld","upper","forgive","w","w","g","g",1,0.430797467939556,NA,NA,NA
"experimental",21,28,"ld","upper","contact","w","w","g","g",1,0.388076258823276,NA,NA,NA
"experimental",21,29,"ld","upper","rainfall","w","w","g","g",1,0.37881628330797,NA,NA,NA
"experimental",21,30,"ld","upper","efcorted","nw","nw","h","h",1,0.521121913567185,NA,NA,NA
"experimental",22,1,"ld","upper","region","w","w","g","g",1,0.562956003472209,NA,NA,NA
"experimental",22,2,"ld","upper","chrayed","nw","nw","h","h",1,0.474954549223185,NA,NA,NA
"experimental",22,3,"ld","upper","prominent","w","w","g","g",1,0.534309786744416,NA,NA,NA
"experimental",22,4,"ld","upper","gures","nw","nw","h","h",1,0.454021054320037,NA,NA,NA
"experimental",22,5,"ld","upper","jungle","w","w","g","g",1,0.530885968357325,NA,NA,NA
"experimental",22,6,"ld","upper","fuestion","nw","nw","h","h",1,0.531187209300697,NA,NA,NA
"experimental",22,7,"ld","upper","ofsters","nw","nw","h","h",1,0.436502020806074,NA,NA,NA
"experimental",22,8,"ld","upper","funtair","nw","nw","h","h",1,0.505142586305737,NA,NA,NA
"experimental",22,9,"ld","upper","schinter","nw","nw","h","h",1,0.491054916754365,NA,NA,NA
"experimental",22,10,"ld","upper","deficit","w","w","g","g",1,0.43773505371064,NA,NA,NA
"experimental",22,11,"ld","upper","artifact","w","w","g","g",1,0.481169520877302,NA,NA,NA
"experimental",22,12,"ld","upper","golemic","nw","nw","h","h",1,0.524442501366138,NA,NA,NA
"experimental",22,13,"ld","upper","surface","w","w","g","g",1,0.533788803964853,NA,NA,NA
"experimental",22,14,"ld","upper","blocking","w","w","g","g",1,0.527789651416242,NA,NA,NA
"experimental",22,15,"ld","upper","dredigest","nw","nw","h","h",1,0.85602403152734,NA,NA,NA
"experimental",22,16,"ld","upper","mounting","w","w","g","g",1,0.627919202670455,NA,NA,NA
"experimental",22,17,"ld","upper","army","w","w","g","g",1,0.425189807079732,NA,NA,NA
"experimental",22,18,"ld","upper","vinegar","w","w","g","g",1,0.486548987217247,NA,NA,NA
"experimental",22,19,"ld","upper","infested","w","w","g","g",1,0.497237891890109,NA,NA,NA
"experimental",22,20,"ld","upper","slogan","w","w","g","g",1,0.59588840790093,NA,NA,NA
"experimental",22,21,"ld","upper","fuack","nw","nw","h","h",1,0.562520744279027,NA,NA,NA
"experimental",22,22,"ld","upper","pracking","nw","nw","h","h",1,0.610465366393328,NA,NA,NA
"experimental",22,23,"ld","upper","bluads","nw","nw","h","h",1,0.480451131239533,NA,NA,NA
"experimental",22,24,"ld","upper","bellicove","nw","nw","h","h",1,0.515749993734062,NA,NA,NA
"experimental",22,25,"ld","upper","coyote","target","target","q","g",0,0.572755977511406,1,1,NA
"experimental",22,26,"ld","upper","grieving","aftertar1","w","g","g",1,0.500033573247492,NA,NA,NA
"experimental",22,27,"ld","upper","ireology","aftertar2","nw","h","h",1,0.702643437311053,NA,NA,NA
"experimental",22,28,"ld","upper","brother","aftertar3","w","g","g",1,0.480665138922632,NA,NA,NA
"experimental",22,29,"ld","upper","lovud","w","nw","h","h",1,0.53992982301861,NA,NA,NA
"experimental",22,30,"ld","upper","graveyard","nw","w","g","g",1,0.508629490621388,NA,NA,NA
"experimental",23,1,"hd","lower","scabry","nw","nw","h","h",1,0.774138544686139,NA,NA,NA
"experimental",23,2,"hd","lower","bureaug","nw","nw","h","h",1,0.452286657877266,NA,NA,NA
"experimental",23,3,"hd","lower","fudden","nw","nw","h","h",1,0.440100002102554,NA,NA,NA
"experimental",23,4,"hd","lower","charcoal","w","w","g","g",1,0.509419718757272,NA,NA,NA
"experimental",23,5,"hd","lower","ulcer","w","w","g","h",0,0.455994813703001,NA,NA,NA
"experimental",23,6,"hd","lower","lightels","nw","nw","h","h",1,0.667905100621283,NA,NA,NA
"experimental",23,7,"hd","lower","seasoning","w","w","g","g",1,0.399247812107205,NA,NA,NA
"experimental",23,8,"hd","lower","relaying","w","w","g","g",1,0.445794896222651,NA,NA,NA
"experimental",23,9,"hd","lower","rebool","nw","nw","h","h",1,0.569554618559778,NA,NA,NA
"experimental",23,10,"hd","lower","outlaved","nw","nw","h","h",1,0.737781115807593,NA,NA,NA
"experimental",23,11,"hd","lower","alarm","w","w","g","g",1,0.553441574797034,NA,NA,NA
"experimental",23,12,"hd","lower","perform","w","w","g","g",1,0.433326619677246,NA,NA,NA
"experimental",23,13,"hd","lower","brimitive","nw","nw","h","h",1,0.502730550244451,NA,NA,NA
"experimental",23,14,"hd","lower","erlighten","nw","nw","h","h",1,0.576693835668266,NA,NA,NA
"experimental",23,15,"hd","lower","brimitar","nw","nw","h","h",1,0.519989696331322,NA,NA,NA
"experimental",23,16,"hd","lower","exit","w","w","g","g",1,0.44927968736738,NA,NA,NA
"experimental",23,17,"hd","lower","noblin","nw","nw","h","h",1,0.501939718611538,NA,NA,NA
"experimental",23,18,"hd","lower","vergas","nw","nw","h","h",1,0.487918454222381,NA,NA,NA
"experimental",23,19,"hd","lower","rowel","nw","nw","h","h",1,0.577654605731368,NA,NA,NA
"experimental",23,20,"hd","lower","parent","w","w","g","g",1,0.633880021050572,NA,NA,NA
"experimental",23,21,"hd","lower","railway","w","w","g","g",1,0.469504754059017,NA,NA,NA
"experimental",23,22,"hd","lower","divider","w","w","g","g",1,0.440834389068186,NA,NA,NA
"experimental",23,23,"hd","lower","hardest","w","w","g","g",1,0.373563591390848,NA,NA,NA
"experimental",23,24,"hd","lower","sequence","w","w","g","g",1,0.444847105070949,NA,NA,NA
"experimental",23,25,"hd","lower","sludding","nw","nw","h","h",1,0.609417665749788,NA,NA,NA
"experimental",23,26,"hd","lower","usually","w","w","g","g",1,0.383529881946742,NA,NA,NA
"experimental",23,27,"hd","lower","plashed","nw","nw","h","h",1,0.534738102927804,NA,NA,NA
"experimental",23,28,"hd","lower","expensive","w","w","g","g",1,0.39028334338218,NA,NA,NA
"experimental",23,29,"hd","lower","maximized","w","w","g","g",1,0.395794413052499,NA,NA,NA
"experimental",23,30,"hd","lower","troven","nw","nw","h","h",1,0.507887858897448,NA,NA,NA
"experimental",24,1,"hd","lower","favoting","nw","nw","h","h",1,0.542212066240609,NA,NA,NA
"experimental",24,2,"hd","lower","scrooner","nw","nw","h","h",1,0.614844521507621,NA,NA,NA
"experimental",24,3,"hd","lower","oginous","nw","nw","h","h",1,0.588848798535764,NA,NA,NA
"experimental",24,4,"hd","lower","upstairs","w","w","g","g",1,0.515461128205061,NA,NA,NA
"experimental",24,5,"hd","lower","carony","nw","nw","h","h",1,0.540541962720454,NA,NA,NA
"experimental",24,6,"hd","lower","temelity","nw","nw","h","h",1,0.54907388985157,NA,NA,NA
"experimental",24,7,"hd","lower","bentler","nw","nw","h","h",1,0.85369470063597,NA,NA,NA
"experimental",24,8,"hd","lower","ephically","nw","nw","h","h",1,0.617766674607992,NA,NA,NA
"experimental",24,9,"hd","lower","sodent","nw","nw","h","h",1,0.590997325256467,NA,NA,NA
"experimental",24,10,"hd","lower","lanthers","nw","nw","h","h",1,0.621645372360945,NA,NA,NA
"experimental",24,11,"hd","lower","result","w","w","g","g",1,0.458960130810738,NA,NA,NA
"experimental",24,12,"hd","lower","outfit","w","w","g","g",1,0.503002813085914,NA,NA,NA
"experimental",24,13,"hd","lower","senior","w","w","g","g",1,0.424951048567891,NA,NA,NA
"experimental",24,14,"hd","lower","bloodless","w","w","g","g",1,0.39737849123776,NA,NA,NA
"experimental",24,15,"hd","lower","mustled","nw","nw","h","h",1,0.64491000957787,NA,NA,NA
"experimental",24,16,"hd","lower","jiggling","w","w","g","g",1,0.608550467528403,NA,NA,NA
"experimental",24,17,"hd","lower","pripend","nw","nw","h","h",1,0.486498579382896,NA,NA,NA
"experimental",24,18,"hd","lower","stagger","w","w","g","g",1,0.441115104593337,NA,NA,NA
"experimental",24,19,"hd","lower","rillains","nw","nw","h","h",1,0.493910966441035,NA,NA,NA
"experimental",24,20,"hd","lower","crocodile","target","target","q","q",1,0.767428247258067,1,NA,NA
"experimental",24,21,"hd","lower","forfeit","aftertar1","w","g","g",1,0.566952420398593,NA,NA,NA
"experimental",24,22,"hd","lower","extend","aftertar2","w","g","g",1,0.422797088511288,NA,NA,NA
"experimental",24,23,"hd","lower","dialogues","aftertar3","w","g","g",1,0.508463475853205,NA,NA,NA
"experimental",24,24,"hd","lower","absent","w","w","g","g",1,0.557477230206132,NA,NA,NA
"experimental",24,25,"hd","lower","sponto","w","nw","h","g",0,0.429359783418477,NA,NA,NA
"experimental",24,26,"hd","lower","castaway","nw","w","g","g",1,0.562728111632168,NA,NA,NA
"experimental",24,27,"hd","lower","potatoes","w","w","g","g",1,0.434633906930685,NA,NA,NA
"experimental",24,28,"hd","lower","etber","w","nw","h","h",1,0.559299463406205,NA,NA,NA
"experimental",24,29,"hd","lower","yash","nw","nw","h","h",1,0.535188153386116,NA,NA,NA
"experimental",24,30,"hd","lower","design","nw","w","g","g",1,0.551825198344886,NA,NA,NA
"experimental",25,1,"hd","lower","levels","w","w","g","g",1,0.479724290780723,NA,NA,NA
"experimental",25,2,"hd","lower","personify","w","w","g","g",1,0.466085162013769,NA,NA,NA
"experimental",25,3,"hd","lower","knowledge","w","w","g","g",1,0.357998696155846,NA,NA,NA
"experimental",25,4,"hd","lower","paterways","nw","nw","h","h",1,1.06199764832854,NA,NA,NA
"experimental",25,5,"hd","lower","alchemist","w","w","g","g",1,0.601963624358177,NA,NA,NA
"experimental",25,6,"hd","lower","splatter","w","w","g","g",1,0.455891884863377,NA,NA,NA
"experimental",25,7,"hd","lower","correct","w","w","g","g",1,0.355906010605395,NA,NA,NA
"experimental",25,8,"hd","lower","peanimate","nw","nw","h","h",1,0.539878509938717,NA,NA,NA
"experimental",25,9,"hd","lower","imotope","nw","nw","h","h",1,0.588540615513921,NA,NA,NA
"experimental",25,10,"hd","lower","dariner","nw","nw","h","h",1,0.506281746551394,NA,NA,NA
"experimental",25,11,"hd","lower","pregs","nw","nw","h","h",1,0.538949735462666,NA,NA,NA
"experimental",25,12,"hd","lower","decantel","nw","nw","h","g",0,0.923688735812902,NA,NA,NA
"experimental",25,13,"hd","lower","diatonic","w","w","g","g",1,0.789762903004885,NA,NA,NA
"experimental",25,14,"hd","lower","catgup","nw","nw","h","h",1,0.5488496189937,NA,NA,NA
"experimental",25,15,"hd","lower","attrove","nw","nw","h","h",1,0.677384817972779,NA,NA,NA
"experimental",25,16,"hd","lower","spigat","nw","nw","h","h",1,0.496643259190023,NA,NA,NA
"experimental",25,17,"hd","lower","bengths","nw","nw","h","h",1,0.563383717089891,NA,NA,NA
"experimental",25,18,"hd","lower","veirs","nw","nw","h","h",1,0.427263778634369,NA,NA,NA
"experimental",25,19,"hd","lower","befriend","w","w","g","g",1,0.607780764810741,NA,NA,NA
"experimental",25,20,"hd","lower","melodic","w","w","g","g",1,0.542610802687705,NA,NA,NA
"experimental",25,21,"hd","lower","vibrate","w","w","g","g",1,0.470316714607179,NA,NA,NA
"experimental",25,22,"hd","lower","gunrunker","nw","nw","h","h",1,0.497478160075843,NA,NA,NA
"experimental",25,23,"hd","lower","cayward","nw","nw","h","h",1,0.7801718050614,NA,NA,NA
"experimental",25,24,"hd","lower","squirrel","target","target","q","g",0,0.56347396876663,1,1,NA
"experimental",25,25,"hd","lower","optional","aftertar1","w","g","g",1,0.411484573036432,NA,NA,NA
"experimental",25,26,"hd","lower","compose","aftertar2","w","g","g",1,0.457423139363527,NA,NA,NA
"experimental",25,27,"hd","lower","threaded","aftertar3","w","g","g",1,0.357409194111824,NA,NA,NA
"experimental",25,28,"hd","lower","fravity","w","nw","h","g",0,0.36539176478982,NA,NA,NA
"experimental",25,29,"hd","lower","anonymous","nw","w","g","g",1,0.476492445915937,NA,NA,NA
"experimental",25,30,"hd","lower","revising","w","w","g","g",1,0.448686562478542,NA,NA,NA
"experimental",26,1,"ld","upper","pleamed","nw","nw","h","h",1,0.540968770161271,NA,NA,NA
"experimental",26,2,"ld","upper","etcess","nw","nw","h","h",1,0.436360757797956,NA,NA,NA
"experimental",26,3,"ld","upper","triangle","w","w","g","g",1,0.505042675882578,NA,NA,NA
"experimental",26,4,"ld","upper","wrestle","w","w","g","g",1,0.379387071356177,NA,NA,NA
"experimental",26,5,"ld","upper","exploit","w","w","g","g",1,0.362411053851247,NA,NA,NA
"experimental",26,6,"ld","upper","seartfelt","nw","nw","h","h",1,0.650694551877677,NA,NA,NA
"experimental",26,7,"ld","upper","nogwhell","nw","nw","h","h",1,0.51842101290822,NA,NA,NA
"experimental",26,8,"ld","upper","oleandur","nw","nw","h","h",1,0.487765721045434,NA,NA,NA
"experimental",26,9,"ld","upper","greakable","nw","nw","h","h",1,0.730462903156877,NA,NA,NA
"experimental",26,10,"ld","upper","colored","w","w","g","g",1,0.595829547382891,NA,NA,NA
"experimental",26,11,"ld","upper","contusiok","nw","nw","h","h",1,0.64241496566683,NA,NA,NA
"experimental",26,12,"ld","upper","befin","nw","nw","h","h",1,0.639012880623341,NA,NA,NA
"experimental",26,13,"ld","upper","calming","w","w","g","g",1,0.387590290047228,NA,NA,NA
"experimental",26,14,"ld","upper","glates","nw","nw","h","h",1,0.586259277537465,NA,NA,NA
"experimental",26,15,"ld","upper","plunging","w","w","g","g",1,0.423989373259246,NA,NA,NA
"experimental",26,16,"ld","upper","enabled","w","w","g","g",1,0.4851900851354,NA,NA,NA
"experimental",26,17,"ld","upper","resent","w","w","g","g",1,0.455867434851825,NA,NA,NA
"experimental",26,18,"ld","upper","odacles","nw","nw","h","h",1,0.435800534673035,NA,NA,NA
"experimental",26,19,"ld","upper","coupling","w","w","g","g",1,0.408508088439703,NA,NA,NA
"experimental",26,20,"ld","upper","disease","w","w","g","g",1,0.374438336119056,NA,NA,NA
"experimental",26,21,"ld","upper","iflaid","nw","nw","h","h",1,0.461820707656443,NA,NA,NA
"experimental",26,22,"ld","upper","ragtam","nw","nw","h","h",1,0.48176505882293,NA,NA,NA
"experimental",26,23,"ld","upper","religious","w","w","g","g",1,0.509078030474484,NA,NA,NA
"experimental",26,24,"ld","upper","coster","nw","nw","h","g",0,0.647034690715373,NA,NA,NA
"experimental",26,25,"ld","upper","sazer","nw","nw","h","h",1,0.778756759129465,NA,NA,NA
"experimental",26,26,"ld","upper","yellep","nw","nw","h","h",1,0.570120274089277,NA,NA,NA
"experimental",26,27,"ld","upper","encounter","w","w","g","g",1,0.377304044552147,NA,NA,NA
"experimental",26,28,"ld","upper","larger","w","w","g","g",1,0.367504975758493,NA,NA,NA
"experimental",26,29,"ld","upper","equitable","w","w","g","g",1,0.366444295272231,NA,NA,NA
"experimental",26,30,"ld","upper","rodeo","w","w","g","g",1,0.446680204942822,NA,NA,NA
"experimental",27,1,"ld","upper","checkout","w","w","g","g",1,0.404488732106984,NA,NA,NA
"experimental",27,2,"ld","upper","failure","w","w","g","g",1,0.369478130713105,NA,NA,NA
"experimental",27,3,"ld","upper","spiud","nw","nw","h","h",1,0.480706492438912,NA,NA,NA
"experimental",27,4,"ld","upper","huffle","nw","nw","h","g",0,0.412016121670604,NA,NA,NA
"experimental",27,5,"ld","upper","cavern","w","w","g","g",1,0.51401408854872,NA,NA,NA
"experimental",27,6,"ld","upper","detrabe","nw","nw","h","h",1,0.587988240644336,NA,NA,NA
"experimental",27,7,"ld","upper","system","w","w","g","g",1,0.37063751462847,NA,NA,NA
"experimental",27,8,"ld","upper","snocks","nw","nw","h","h",1,0.481947977095842,NA,NA,NA
"experimental",27,9,"ld","upper","aligning","w","w","g","g",1,0.421235045418143,NA,NA,NA
"experimental",27,10,"ld","upper","resonant","w","w","g","g",1,0.394619334489107,NA,NA,NA
"experimental",27,11,"ld","upper","filny","nw","nw","h","h",1,0.43229491636157,NA,NA,NA
"experimental",27,12,"ld","upper","prohibit","w","w","g","g",1,0.438505058176816,NA,NA,NA
"experimental",27,13,"ld","upper","ufionize","nw","nw","h","h",1,0.490202508866787,NA,NA,NA
"experimental",27,14,"ld","upper","stretches","w","w","g","g",1,0.428831556811929,NA,NA,NA
"experimental",27,15,"ld","upper","ipiocy","nw","nw","h","h",1,0.418129370547831,NA,NA,NA
"experimental",27,16,"ld","upper","sorping","nw","nw","h","h",1,0.655429881997406,NA,NA,NA
"experimental",27,17,"ld","upper","batire","nw","nw","h","h",1,0.50744656380266,NA,NA,NA
"experimental",27,18,"ld","upper","neuran","nw","nw","h","h",1,0.901432861573994,NA,NA,NA
"experimental",27,19,"ld","upper","eaglot","nw","nw","h","h",1,0.511405853554606,NA,NA,NA
"experimental",27,20,"ld","upper","vintnel","nw","nw","h","h",1,0.552509177476168,NA,NA,NA
"experimental",27,21,"ld","upper","burrowing","w","w","g","h",0,0.671376006677747,NA,NA,NA
"experimental",27,22,"ld","upper","single","w","w","g","g",1,0.402388198301196,NA,NA,NA
"experimental",27,23,"ld","upper","huests","nw","nw","h","h",1,0.481077760457993,NA,NA,NA
"experimental",27,24,"ld","upper","worps","nw","nw","h","h",1,0.44502398557961,NA,NA,NA
"experimental",27,25,"ld","upper","dominion","w","w","g","h",0,0.425650118850172,NA,NA,NA
"experimental",27,26,"ld","upper","rocket","w","w","g","g",1,0.446880931034684,NA,NA,NA
"experimental",27,27,"ld","upper","scatter","w","w","g","g",1,0.451542612165213,NA,NA,NA
"experimental",27,28,"ld","upper","practice","w","w","g","g",1,0.38351146876812,NA,NA,NA
"experimental",27,29,"ld","upper","nimp","nw","nw","h","h",1,0.438832256942987,NA,NA,NA
"experimental",27,30,"ld","upper","digested","w","w","g","g",1,0.41149725113064,NA,NA,NA
"experimental",28,1,"ld","upper","frunted","nw","nw","h","h",1,0.537010990083218,NA,NA,NA
"experimental",28,2,"ld","upper","ilcurring","nw","nw","h","h",1,0.521606675349176,NA,NA,NA
"experimental",28,3,"ld","upper","corg","nw","nw","h","h",1,0.586961064487696,NA,NA,NA
"experimental",28,4,"ld","upper","shazer","nw","nw","h","h",1,0.497618819586933,NA,NA,NA
"experimental",28,5,"ld","upper","farochial","nw","nw","h","h",1,0.444283562712371,NA,NA,NA
"experimental",28,6,"ld","upper","fomes","nw","nw","h","h",1,0.440898077562451,NA,NA,NA
"experimental",28,7,"ld","upper","mennel","nw","nw","h","h",1,0.532629118300974,NA,NA,NA
"experimental",28,8,"ld","upper","issue","w","w","g","g",1,0.701876451261342,NA,NA,NA
"experimental",28,9,"ld","upper","volume","w","w","g","g",1,0.855808213353157,NA,NA,NA
"experimental",28,10,"ld","upper","trises","nw","nw","h","h",1,0.56381203327328,NA,NA,NA
"experimental",28,11,"ld","upper","ignore","w","w","g","g",1,0.555770302191377,NA,NA,NA
"experimental",28,12,"ld","upper","desert","w","w","g","g",1,0.923770233988762,NA,NA,NA
"experimental",28,13,"ld","upper","itfidels","nw","nw","h","h",1,0.48397999163717,NA,NA,NA
"experimental",28,14,"ld","upper","bingu","nw","nw","h","h",1,0.454808867536485,NA,NA,NA
"experimental",28,15,"ld","upper","budget","w","w","g","g",1,0.46747032366693,NA,NA,NA
"experimental",28,16,"ld","upper","inverted","w","w","g","g",1,0.43016419839114,NA,NA,NA
"experimental",28,17,"ld","upper","rationale","w","w","g","g",1,0.444343629293144,NA,NA,NA
"experimental",28,18,"ld","upper","tapling","nw","nw","h","g",0,0.375987400300801,NA,NA,NA
"experimental",28,19,"ld","upper","pollute","w","w","g","g",1,0.439237634651363,NA,NA,NA
"experimental",28,20,"ld","upper","shurk","nw","nw","h","h",1,0.587872030213475,NA,NA,NA
"experimental",28,21,"ld","upper","summon","w","w","g","g",1,0.610499776899815,NA,NA,NA
"experimental",28,22,"ld","upper","fragment","w","w","g","g",1,0.416541066020727,NA,NA,NA
"experimental",28,23,"ld","upper","maiden","w","w","g","g",1,0.486506427638233,NA,NA,NA
"experimental",28,24,"ld","upper","purport","w","w","g","h",0,0.593102687969804,NA,NA,NA
"experimental",28,25,"ld","upper","amplifier","w","w","g","g",1,0.575766570866108,NA,NA,NA
"experimental",28,26,"ld","upper","daining","nw","nw","h","h",1,0.543067492544651,NA,NA,NA
"experimental",28,27,"ld","upper","bypassed","w","w","g","g",1,0.591684925369918,NA,NA,NA
"experimental",28,28,"ld","upper","ebuating","nw","nw","h","h",1,0.525411119684577,NA,NA,NA
"experimental",28,29,"ld","upper","tyena","nw","nw","h","h",1,0.454716503620148,NA,NA,NA
"experimental",28,30,"ld","upper","computer","w","w","g","g",1,0.410674423910677,NA,NA,NA
"experimental",29,1,"hd","lower","maroon","w","w","g","g",1,0.497252683155239,NA,NA,NA
"experimental",29,2,"hd","lower","doxing","nw","nw","h","h",1,0.458974317647517,NA,NA,NA
"experimental",29,3,"hd","lower","baults","nw","nw","h","h",1,0.502837402746081,NA,NA,NA
"experimental",29,4,"hd","lower","tunneg","nw","nw","h","h",1,0.527593149803579,NA,NA,NA
"experimental",29,5,"hd","lower","plapping","nw","nw","h","h",1,0.504832894541323,NA,NA,NA
"experimental",29,6,"hd","lower","enunciate","w","w","g","g",1,0.803297594189644,NA,NA,NA
"experimental",29,7,"hd","lower","disperse","w","w","g","g",1,0.377879057079554,NA,NA,NA
"experimental",29,8,"hd","lower","haurded","nw","nw","h","h",1,0.585399021394551,NA,NA,NA
"experimental",29,9,"hd","lower","unbridled","w","w","g","h",0,0.440013071522117,NA,NA,NA
"experimental",29,10,"hd","lower","heuls","nw","nw","h","h",1,0.532607083208859,NA,NA,NA
"experimental",29,11,"hd","lower","implode","w","w","g","g",1,0.44591442681849,NA,NA,NA
"experimental",29,12,"hd","lower","sefine","nw","nw","h","h",1,0.561586234718561,NA,NA,NA
"experimental",29,13,"hd","lower","amaze","w","w","g","g",1,0.466448581777513,NA,NA,NA
"experimental",29,14,"hd","lower","engineer","w","w","g","g",1,0.413442335091531,NA,NA,NA
"experimental",29,15,"hd","lower","arcients","nw","nw","h","h",1,0.491482630372047,NA,NA,NA
"experimental",29,16,"hd","lower","miracle","w","w","g","g",1,0.470086105167866,NA,NA,NA
"experimental",29,17,"hd","lower","dealer","w","w","g","g",1,0.449392274953425,NA,NA,NA
"experimental",29,18,"hd","lower","grolific","nw","nw","h","h",1,0.654056188650429,NA,NA,NA
"experimental",29,19,"hd","lower","wienegs","nw","nw","h","h",1,0.514027369208634,NA,NA,NA
"experimental",29,20,"hd","lower","infusion","w","w","g","g",1,0.412013706751168,NA,NA,NA
"experimental",29,21,"hd","lower","whirling","w","w","g","g",1,0.473976574838162,NA,NA,NA
"experimental",29,22,"hd","lower","legalosm","nw","nw","h","h",1,0.508467097766697,NA,NA,NA
"experimental",29,23,"hd","lower","tycoon","w","w","g","g",1,1.03840822633356,NA,NA,NA
"experimental",29,24,"hd","lower","female","w","w","g","g",1,0.410882394760847,NA,NA,NA
"experimental",29,25,"hd","lower","dolphin","target","target","q","q",1,0.648919707164168,1,NA,NA
"experimental",29,26,"hd","lower","elvisages","aftertar1","nw","h","h",1,0.589549378491938,NA,NA,NA
"experimental",29,27,"hd","lower","drine","aftertar2","nw","h","g",0,0.372122285887599,NA,NA,NA
"experimental",29,28,"hd","lower","baladroit","aftertar3","nw","h","h",1,0.45949680916965,NA,NA,NA
"experimental",29,29,"hd","lower","remade","nw","w","g","g",1,0.52744222804904,NA,NA,NA
"experimental",29,30,"hd","lower","carnival","w","w","g","g",1,0.423626254312694,NA,NA,NA
"experimental",30,1,"hd","lower","skiing","w","w","g","g",1,0.548905461095273,NA,NA,NA
"experimental",30,2,"hd","lower","obtuse","w","w","g","g",1,0.557538505643606,NA,NA,NA
"experimental",30,3,"hd","lower","thamp","nw","nw","h","h",1,0.485500078648329,NA,NA,NA
"experimental",30,4,"hd","lower","previous","w","w","g","g",1,0.408232203684747,NA,NA,NA
"experimental",30,5,"hd","lower","preight","nw","nw","h","h",1,0.526139771565795,NA,NA,NA
"experimental",30,6,"hd","lower","ringlat","nw","nw","h","h",1,0.647511302493513,NA,NA,NA
"experimental",30,7,"hd","lower","puyer","nw","nw","h","h",1,0.579152054153383,NA,NA,NA
"experimental",30,8,"hd","lower","handcuff","w","w","g","g",1,0.443397347815335,NA,NA,NA
"experimental",30,9,"hd","lower","ameld","nw","nw","h","h",1,0.511034886352718,NA,NA,NA
"experimental",30,10,"hd","lower","poyride","nw","nw","h","h",1,0.64898913167417,NA,NA,NA
"experimental",30,11,"hd","lower","flacked","nw","nw","h","h",1,0.637641300447285,NA,NA,NA
"experimental",30,12,"hd","lower","measure","w","w","g","g",1,0.506321287713945,NA,NA,NA
"experimental",30,13,"hd","lower","populace","w","w","g","g",1,0.460296395234764,NA,NA,NA
"experimental",30,14,"hd","lower","egcused","nw","nw","h","h",1,0.50426422059536,NA,NA,NA
"experimental",30,15,"hd","lower","awful","w","w","g","g",1,0.386196373030543,NA,NA,NA
"experimental",30,16,"hd","lower","noblest","w","w","g","g",1,0.672885528765619,NA,NA,NA
"experimental",30,17,"hd","lower","icepick","w","w","g","g",1,0.555354663170874,NA,NA,NA
"experimental",30,18,"hd","lower","joadbed","nw","nw","h","h",1,0.500192946754396,NA,NA,NA
"experimental",30,19,"hd","lower","kangaroo","target","target","q","g",0,0.429820398800075,1,1,NA
"experimental",30,20,"hd","lower","oppose","aftertar1","w","g","g",1,0.387143861502409,NA,NA,NA
"experimental",30,21,"hd","lower","mebase","aftertar2","nw","h","h",1,0.546461126767099,NA,NA,NA
"experimental",30,22,"hd","lower","bumbo","aftertar3","nw","h","g",0,0.402498070150614,NA,NA,NA
"experimental",30,23,"hd","lower","havel","nw","nw","h","h",1,0.633133862167597,NA,NA,NA
"experimental",30,24,"hd","lower","pillage","nw","w","g","h",0,1.16782420687377,NA,NA,NA
"experimental",30,25,"hd","lower","fullity","w","nw","h","h",1,0.672378128394485,NA,NA,NA
"experimental",30,26,"hd","lower","nostril","nw","w","g","g",1,0.612324726767838,NA,NA,NA
"experimental",30,27,"hd","lower","resume","w","w","g","g",1,0.394021682441235,NA,NA,NA
"experimental",30,28,"hd","lower","noils","w","nw","h","h",1,0.529308833181858,NA,NA,NA
"experimental",30,29,"hd","lower","anemic","nw","w","g","g",1,0.619261407293379,NA,NA,NA
"experimental",30,30,"hd","lower","classify","w","w","g","g",1,0.353252499364316,NA,NA,NA
"experimental",31,1,"ld","upper","downtrund","nw","nw","h","h",1,0.84168160520494,NA,NA,NA
"experimental",31,2,"ld","upper","amidst","w","w","g","g",1,0.830137274228036,NA,NA,NA
"experimental",31,3,"ld","upper","decant","w","w","g","g",1,0.428038008511066,NA,NA,NA
"experimental",31,4,"ld","upper","sonnet","w","w","g","h",0,0.473950616084039,NA,NA,NA
"experimental",31,5,"ld","upper","filter","w","w","g","g",1,0.429940834641457,NA,NA,NA
"experimental",31,6,"ld","upper","menarthe","nw","nw","h","h",1,0.491947771050036,NA,NA,NA
"experimental",31,7,"ld","upper","alomalous","nw","nw","h","h",1,0.471312498673797,NA,NA,NA
"experimental",31,8,"ld","upper","valif","nw","nw","h","h",1,0.523191357962787,NA,NA,NA
"experimental",31,9,"ld","upper","abhorrent","w","w","g","g",1,0.653213138692081,NA,NA,NA
"experimental",31,10,"ld","upper","ciping","nw","nw","h","h",1,0.617859341204166,NA,NA,NA
"experimental",31,11,"ld","upper","sporidic","nw","nw","h","h",1,0.423814907670021,NA,NA,NA
"experimental",31,12,"ld","upper","ebciting","nw","nw","h","h",1,0.468917365185916,NA,NA,NA
"experimental",31,13,"ld","upper","forgery","w","w","g","g",1,0.600551597774029,NA,NA,NA
"experimental",31,14,"ld","upper","germeated","nw","nw","h","h",1,0.478260951116681,NA,NA,NA
"experimental",31,15,"ld","upper","release","w","w","g","g",1,0.370740140788257,NA,NA,NA
"experimental",31,16,"ld","upper","selongs","nw","nw","h","h",1,0.483298427425325,NA,NA,NA
"experimental",31,17,"ld","upper","rapport","w","w","g","g",1,0.551348889246583,NA,NA,NA
"experimental",31,18,"ld","upper","pakened","nw","nw","h","h",1,0.576045776717365,NA,NA,NA
"experimental",31,19,"ld","upper","affluent","w","w","g","g",1,0.472049602307379,NA,NA,NA
"experimental",31,20,"ld","upper","series","w","w","g","g",1,0.483897286467254,NA,NA,NA
"experimental",31,21,"ld","upper","amkles","nw","nw","h","h",1,0.567228306084871,NA,NA,NA
"experimental",31,22,"ld","upper","poars","nw","nw","h","h",1,0.63030165899545,NA,NA,NA
"experimental",31,23,"ld","upper","grummer","nw","nw","h","h",1,0.55720647610724,NA,NA,NA
"experimental",31,24,"ld","upper","permute","w","w","g","g",1,0.572785256430507,NA,NA,NA
"experimental",31,25,"ld","upper","deeper","w","w","g","g",1,0.444798206910491,NA,NA,NA
"experimental",31,26,"ld","upper","cherry","w","w","g","g",1,0.426094735972583,NA,NA,NA
"experimental",31,27,"ld","upper","disuse","w","w","g","g",1,0.440018203109503,NA,NA,NA
"experimental",31,28,"ld","upper","guffy","nw","nw","h","h",1,0.541369318030775,NA,NA,NA
"experimental",31,29,"ld","upper","recipus","nw","nw","h","h",1,0.638650366105139,NA,NA,NA
"experimental",31,30,"ld","upper","armada","w","w","g","h",0,0.523971624672413,NA,NA,NA
"experimental",32,1,"ld","upper","neally","nw","nw","h","h",1,0.628900498151779,NA,NA,NA
"experimental",32,2,"ld","upper","latpin","nw","nw","h","h",1,0.666843816637993,NA,NA,NA
"experimental",32,3,"ld","upper","fraft","nw","nw","h","h",1,0.471565444022417,NA,NA,NA
"experimental",32,4,"ld","upper","sefraud","nw","nw","h","h",1,0.483487381599844,NA,NA,NA
"experimental",32,5,"ld","upper","analysis","w","w","g","g",1,0.494259294122458,NA,NA,NA
"experimental",32,6,"ld","upper","boutique","w","w","g","g",1,0.529681912623346,NA,NA,NA
"experimental",32,7,"ld","upper","clume","nw","nw","h","g",0,0.388245592825115,NA,NA,NA
"experimental",32,8,"ld","upper","frequency","w","w","g","g",1,0.379092168994248,NA,NA,NA
"experimental",32,9,"ld","upper","company","w","w","g","g",1,0.379072549752891,NA,NA,NA
"experimental",32,10,"ld","upper","tucker","w","w","g","h",0,0.514935014769435,NA,NA,NA
"experimental",32,11,"ld","upper","rualify","nw","nw","h","h",1,0.693641237914562,NA,NA,NA
"experimental",32,12,"ld","upper","portify","nw","nw","h","g",0,0.640956153161824,NA,NA,NA
"experimental",32,13,"ld","upper","chesume","nw","nw","h","h",1,0.534176672808826,NA,NA,NA
"experimental",32,14,"ld","upper","innocent","w","w","g","g",1,0.391604816541076,NA,NA,NA
"experimental",32,15,"ld","upper","brighten","w","w","g","g",1,0.374881745316088,NA,NA,NA
"experimental",32,16,"ld","upper","vivid","w","w","g","g",1,0.422781996428967,NA,NA,NA
"experimental",32,17,"ld","upper","retreat","w","w","g","g",1,0.364760911092162,NA,NA,NA
"experimental",32,18,"ld","upper","squadroim","nw","nw","h","h",1,0.628583259880543,NA,NA,NA
"experimental",32,19,"ld","upper","porcupine","target","target","q","h",0,0.482425494119525,1,1,NA
"experimental",32,20,"ld","upper","fatho","aftertar1","nw","h","h",1,0.510387732647359,NA,NA,NA
"experimental",32,21,"ld","upper","lentils","aftertar2","w","g","g",1,0.521053696982563,NA,NA,NA
"experimental",32,22,"ld","upper","dounger","aftertar3","nw","h","h",1,0.499023300595582,NA,NA,NA
"experimental",32,23,"ld","upper","integral","nw","w","g","g",1,0.494311211630702,NA,NA,NA
"experimental",32,24,"ld","upper","metrol","w","nw","h","h",1,0.633617115207016,NA,NA,NA
"experimental",32,25,"ld","upper","goltish","nw","nw","h","h",1,0.519613901153207,NA,NA,NA
"experimental",32,26,"ld","upper","sampling","nw","w","g","h",0,0.441651481203735,NA,NA,NA
"experimental",32,27,"ld","upper","party","w","w","g","g",1,0.4069101260975,NA,NA,NA
"experimental",32,28,"ld","upper","truthful","w","w","g","g",1,0.340708460658789,NA,NA,NA
"experimental",32,29,"ld","upper","ensues","w","w","g","g",1,0.446910511702299,NA,NA,NA
"experimental",32,30,"ld","upper","podges","w","nw","h","h",1,0.707263162359595,NA,NA,NA
"experimental",33,1,"hd","lower","blanned","nw","nw","h","h",1,0.605708302929997,NA,NA,NA
"experimental",33,2,"hd","lower","caution","w","w","g","g",1,0.43629646487534,NA,NA,NA
"experimental",33,3,"hd","lower","reforest","w","w","g","g",1,0.425646497868002,NA,NA,NA
"experimental",33,4,"hd","lower","aggepting","nw","nw","h","h",1,0.558801119215786,NA,NA,NA
"experimental",33,5,"hd","lower","tredits","nw","nw","h","g",0,0.360240794718266,NA,NA,NA
"experimental",33,6,"hd","lower","tritical","nw","nw","h","h",1,0.655906493775547,NA,NA,NA
"experimental",33,7,"hd","lower","curtail","w","w","g","g",1,0.620544546283782,NA,NA,NA
"experimental",33,8,"hd","lower","undimmec","nw","nw","h","h",1,0.474581469781697,NA,NA,NA
"experimental",33,9,"hd","lower","poughest","nw","nw","h","h",1,0.542494592256844,NA,NA,NA
"experimental",33,10,"hd","lower","slutches","nw","nw","h","h",1,0.727813315577805,NA,NA,NA
"experimental",33,11,"hd","lower","minimum","w","w","g","g",1,0.505785514600575,NA,NA,NA
"experimental",33,12,"hd","lower","childhood","w","w","g","g",1,0.500518937595189,NA,NA,NA
"experimental",33,13,"hd","lower","holdup","w","w","g","g",1,0.407082780264318,NA,NA,NA
"experimental",33,14,"hd","lower","dazid","nw","nw","h","h",1,0.476829304359853,NA,NA,NA
"experimental",33,15,"hd","lower","trembles","w","w","g","g",1,0.809693973511457,NA,NA,NA
"experimental",33,16,"hd","lower","ronvince","nw","nw","h","h",1,0.551411369815469,NA,NA,NA
"experimental",33,17,"hd","lower","quickel","nw","nw","h","h",1,0.528074591420591,NA,NA,NA
"experimental",33,18,"hd","lower","snays","nw","nw","h","h",1,0.682021748274565,NA,NA,NA
"experimental",33,19,"hd","lower","argue","w","w","g","g",1,0.525926669128239,NA,NA,NA
"experimental",33,20,"hd","lower","butler","w","w","g","g",1,0.479944336228073,NA,NA,NA
"experimental",33,21,"hd","lower","retain","w","w","g","g",1,0.427978847175837,NA,NA,NA
"experimental",33,22,"hd","lower","bloves","nw","nw","h","h",1,0.529917954467237,NA,NA,NA
"experimental",33,23,"hd","lower","arranged","w","w","g","g",1,0.37872935179621,NA,NA,NA
"experimental",33,24,"hd","lower","presence","w","w","g","g",1,0.39368542842567,NA,NA,NA
"experimental",33,25,"hd","lower","pircus","nw","nw","h","h",1,0.474224691279233,NA,NA,NA
"experimental",33,26,"hd","lower","actual","w","w","g","g",1,0.413794587366283,NA,NA,NA
"experimental",33,27,"hd","lower","stalemate","w","w","g","g",1,0.50074200052768,NA,NA,NA
"experimental",33,28,"hd","lower","rascaps","nw","nw","h","h",1,0.543360885232687,NA,NA,NA
"experimental",33,29,"hd","lower","rarely","w","w","g","g",1,0.480648235417902,NA,NA,NA
"experimental",33,30,"hd","lower","atch","nw","nw","h","h",1,0.572567325085402,NA,NA,NA
"experimental",34,1,"hd","lower","topefuls","nw","nw","h","h",1,0.563562106341124,NA,NA,NA
"experimental",34,2,"hd","lower","entropy","w","w","g","g",1,0.53213107585907,NA,NA,NA
"experimental",34,3,"hd","lower","urgency","w","w","g","g",1,0.510113960132003,NA,NA,NA
"experimental",34,4,"hd","lower","bailmenz","nw","nw","h","h",1,0.408841023221612,NA,NA,NA
"experimental",34,5,"hd","lower","trophy","w","w","g","g",1,0.447443870827556,NA,NA,NA
"experimental",34,6,"hd","lower","outrank","w","w","g","g",1,0.452737915329635,NA,NA,NA
"experimental",34,7,"hd","lower","realize","w","w","g","g",1,0.377403954975307,NA,NA,NA
"experimental",34,8,"hd","lower","latter","w","w","g","g",1,0.489346479065716,NA,NA,NA
"experimental",34,9,"hd","lower","glating","nw","nw","h","g",0,0.396717150695622,NA,NA,NA
"experimental",34,10,"hd","lower","flicking","w","w","g","g",1,0.53110118303448,NA,NA,NA
"experimental",34,11,"hd","lower","antonym","w","w","g","g",1,0.44502036459744,NA,NA,NA
"experimental",34,12,"hd","lower","gontracts","nw","nw","h","h",1,0.466301583684981,NA,NA,NA
"experimental",34,13,"hd","lower","shests","nw","nw","h","h",1,0.438930055126548,NA,NA,NA
"experimental",34,14,"hd","lower","houted","nw","nw","h","h",1,0.428330193273723,NA,NA,NA
"experimental",34,15,"hd","lower","currowing","nw","nw","h","h",1,0.650239672511816,NA,NA,NA
"experimental",34,16,"hd","lower","frader","nw","nw","h","h",1,0.550424340181053,NA,NA,NA
"experimental",34,17,"hd","lower","lizard","target","target","q","g",0,0.39160511828959,1,1,NA
"experimental",34,18,"hd","lower","glocked","aftertar1","nw","h","g",0,0.591600711457431,NA,NA,NA
"experimental",34,19,"hd","lower","porghum","aftertar2","nw","h","h",1,0.7114941123873,NA,NA,NA
"experimental",34,20,"hd","lower","primal","aftertar3","w","g","g",1,0.457231468521059,NA,NA,NA
"experimental",34,21,"hd","lower","triplet","w","w","g","g",1,0.414772562682629,NA,NA,NA
"experimental",34,22,"hd","lower","defeat","w","w","g","g",1,0.436474250629544,NA,NA,NA
"experimental",34,23,"hd","lower","loneliest","w","w","g","g",1,0.425800136290491,NA,NA,NA
"experimental",34,24,"hd","lower","mystery","w","w","g","g",1,0.391658544540405,NA,NA,NA
"experimental",34,25,"hd","lower","insertion","w","w","g","g",1,0.407029655762017,NA,NA,NA
"experimental",34,26,"hd","lower","numbled","w","nw","h","h",1,0.621652917936444,NA,NA,NA
"experimental",34,27,"hd","lower","epthuse","nw","nw","h","h",1,0.555708122439682,NA,NA,NA
"experimental",34,28,"hd","lower","padicals","nw","nw","h","h",1,0.548256495967507,NA,NA,NA
"experimental",34,29,"hd","lower","abstain","nw","w","g","g",1,0.500829233787954,NA,NA,NA
"experimental",34,30,"hd","lower","graiking","w","nw","h","h",1,0.447327358648181,NA,NA,NA
"experimental",35,1,"hd","lower","martial","w","w","g","g",1,0.692359608598053,NA,NA,NA
"experimental",35,2,"hd","lower","recount","w","w","g","g",1,0.391640735790133,NA,NA,NA
"experimental",35,3,"hd","lower","staircase","w","w","g","g",1,0.36716419365257,NA,NA,NA
"experimental",35,4,"hd","lower","country","w","w","g","g",1,0.375005501322448,NA,NA,NA
"experimental",35,5,"hd","lower","doads","nw","nw","h","h",1,0.510954897850752,NA,NA,NA
"experimental",35,6,"hd","lower","trake","nw","nw","h","h",1,0.457605755887926,NA,NA,NA
"experimental",35,7,"hd","lower","mandate","w","w","g","g",1,0.454252267256379,NA,NA,NA
"experimental",35,8,"hd","lower","handed","w","w","g","g",1,0.54471676889807,NA,NA,NA
"experimental",35,9,"hd","lower","gairs","nw","nw","h","h",1,0.5219562118873,NA,NA,NA
"experimental",35,10,"hd","lower","gund","nw","nw","h","h",1,0.38844118732959,NA,NA,NA
"experimental",35,11,"hd","lower","midday","w","w","g","g",1,0.492304551415145,NA,NA,NA
"experimental",35,12,"hd","lower","caterpillar","target","target","q","g",0,0.511834773235023,NA,NA,NA
"experimental",35,13,"hd","lower","praiged","aftertar1","nw","h","h",1,0.522395998239517,NA,NA,NA
"experimental",35,14,"hd","lower","bickering","aftertar2","w","g","g",1,0.532409979961812,NA,NA,NA
"experimental",35,15,"hd","lower","atsless","aftertar3","nw","h","h",1,0.446324632503092,NA,NA,NA
"experimental",35,16,"hd","lower","helpful","nw","w","g","g",1,0.395637756213546,NA,NA,NA
"experimental",35,17,"hd","lower","deceit","w","w","g","g",1,0.522074232809246,NA,NA,NA
"experimental",35,18,"hd","lower","airmen","w","w","g","g",1,0.404024193063378,NA,NA,NA
"experimental",35,19,"hd","lower","widely","w","w","g","g",1,0.386601749807596,NA,NA,NA
"experimental",35,20,"hd","lower","ilterfere","w","nw","h","h",1,0.521929346956313,NA,NA,NA
"experimental",35,21,"hd","lower","kettle","nw","w","g","g",1,0.443895089440048,NA,NA,NA
"experimental",35,22,"hd","lower","brank","w","nw","h","g",0,0.369162703864276,NA,NA,NA
"experimental",35,23,"hd","lower","vopings","nw","nw","h","h",1,0.433126498013735,NA,NA,NA
"experimental",35,24,"hd","lower","rawhide","nw","w","g","h",0,0.431139457970858,NA,NA,NA
"experimental",35,25,"hd","lower","bulmed","w","nw","h","h",1,0.557092680595815,NA,NA,NA
"experimental",35,26,"hd","lower","gigglod","nw","nw","h","h",1,0.733848387375474,NA,NA,NA
"experimental",35,27,"hd","lower","gounts","nw","nw","h","h",1,0.406160947866738,NA,NA,NA
"experimental",35,28,"hd","lower","mubby","nw","nw","h","h",1,0.509719449095428,NA,NA,NA
"experimental",35,29,"hd","lower","thaken","nw","nw","h","h",1,0.447332791984081,NA,NA,NA
"experimental",35,30,"hd","lower","gepealed","nw","nw","h","h",1,0.612545374780893,NA,NA,NA
"experimental",36,1,"ld","upper","gewer","nw","nw","h","h",1,0.490491071715951,NA,NA,NA
"experimental",36,2,"ld","upper","tracing","w","w","g","h",0,0.606248905882239,NA,NA,NA
"experimental",36,3,"ld","upper","seeming","w","w","g","g",1,0.437585338950157,NA,NA,NA
"experimental",36,4,"ld","upper","arbitrary","w","w","g","g",1,0.434096926823258,NA,NA,NA
"experimental",36,5,"ld","upper","naxis","nw","nw","h","g",0,0.671258287504315,NA,NA,NA
"experimental",36,6,"ld","upper","chonemic","nw","nw","h","h",1,0.555303047411144,NA,NA,NA
"experimental",36,7,"ld","upper","vented","w","w","g","g",1,0.411958167329431,NA,NA,NA
"experimental",36,8,"ld","upper","casino","w","w","g","g",1,0.442493023350835,NA,NA,NA
"experimental",36,9,"ld","upper","passet","nw","nw","h","h",1,0.53586488775909,NA,NA,NA
"experimental",36,10,"ld","upper","hustle","w","w","g","g",1,0.417239836417139,NA,NA,NA
"experimental",36,11,"ld","upper","cervical","w","w","g","g",1,0.543151706457138,NA,NA,NA
"experimental",36,12,"ld","upper","lifetime","w","w","g","g",1,0.416442363522947,NA,NA,NA
"experimental",36,13,"ld","upper","arpired","nw","nw","h","h",1,0.510184590704739,NA,NA,NA
"experimental",36,14,"ld","upper","spaceship","w","w","g","g",1,0.400728357955813,NA,NA,NA
"experimental",36,15,"ld","upper","sprea","nw","nw","h","h",1,0.463383655995131,NA,NA,NA
"experimental",36,16,"ld","upper","ludictous","nw","nw","h","h",1,0.571986879222095,NA,NA,NA
"experimental",36,17,"ld","upper","mining","w","w","g","h",0,0.412026987411082,NA,NA,NA
"experimental",36,18,"ld","upper","teliever","nw","nw","h","h",1,0.514633773826063,NA,NA,NA
"experimental",36,19,"ld","upper","clypaper","nw","nw","h","h",1,0.549307516776025,NA,NA,NA
"experimental",36,20,"ld","upper","slimped","nw","nw","h","h",1,0.614619949832559,NA,NA,NA
"experimental",36,21,"ld","upper","inforl","nw","nw","h","h",1,0.589282246306539,NA,NA,NA
"experimental",36,22,"ld","upper","demise","w","w","g","g",1,0.491726821288466,NA,NA,NA
"experimental",36,23,"ld","upper","reddar","nw","nw","h","h",1,0.471026652492583,NA,NA,NA
"experimental",36,24,"ld","upper","pegend","nw","nw","h","h",1,0.634901763871312,NA,NA,NA
"experimental",36,25,"ld","upper","dabble","w","w","g","g",1,0.328249842859805,NA,NA,NA
"experimental",36,26,"ld","upper","glapula","nw","nw","h","h",1,0.538217762485147,NA,NA,NA
"experimental",36,27,"ld","upper","posing","w","w","g","g",1,0.466251477599144,NA,NA,NA
"experimental",36,28,"ld","upper","leather","w","w","g","g",1,0.366912455298006,NA,NA,NA
"experimental",36,29,"ld","upper","flougy","nw","nw","h","h",1,0.463417161256075,NA,NA,NA
"experimental",36,30,"ld","upper","picnic","w","w","g","g",1,0.395947750657797,NA,NA,NA
"experimental",37,1,"ld","upper","aqueduct","w","w","g","h",0,0.769888578914106,NA,NA,NA
"experimental",37,2,"ld","upper","browting","nw","nw","h","h",1,0.482241068035364,NA,NA,NA
"experimental",37,3,"ld","upper","provide","w","w","g","g",1,0.430217624641955,NA,NA,NA
"experimental",37,4,"ld","upper","decency","w","w","g","g",1,0.412169458344579,NA,NA,NA
"experimental",37,5,"ld","upper","moral","w","w","g","g",1,0.386800362728536,NA,NA,NA
"experimental",37,6,"ld","upper","marinate","w","w","g","g",1,0.418095866218209,NA,NA,NA
