"procedure","block","trial","PMdemand","context","stim","role","word_type","correct_key","response","correct","reaction_time","pressedQ","pressedQ_blank","pressedQ_fix"
"LDTpractice",1,1,NA,"upper","sponsor","","w","g","g",1,0.527058132458478,NA,NA,NA
"LDTpractice",2,1,NA,"upper","turative","","nw","h","h",1,0.772266088053584,NA,NA,NA
"LDTpractice",3,1,NA,"upper","revival","","w","g","g",1,0.534801106434315,NA,NA,NA
"LDTpractice",4,1,NA,"upper","grocus","","nw","h","h",1,0.701906808651984,NA,NA,NA
"LDTpractice",5,1,NA,"upper","summary","","w","g","g",1,0.521122314967215,NA,NA,NA
"LDTpractice",6,1,NA,"upper","julled","","nw","h","h",1,0.665897996164858,NA,NA,NA
"LDTpractice",7,1,NA,"upper","umpire","","w","g","g",1,0.502839756663889,NA,NA,NA
"LDTpractice",8,1,NA,"upper","curlecs","","nw","h","h",1,0.592825718224049,NA,NA,NA
"LDTpractice",9,1,NA,"upper","infinity","","w","g","g",1,0.550180803518742,NA,NA,NA
"LDTpractice",10,1,NA,"upper","alolition","","nw","h","h",1,0.670474597252905,NA,NA,NA
"LDTpractice",11,1,NA,"upper","slumber","","w","g","g",1,0.497708965558559,NA,NA,NA
"LDTpractice",12,1,NA,"upper","trotch","","nw","h","h",1,0.586853981018066,NA,NA,NA
"LDTpractice",13,1,NA,"upper","lumbigo","","nw","h","h",1,0.722562788520008,NA,NA,NA
"LDTpractice",14,1,NA,"upper","picture","","w","g","g",1,0.500552060082555,NA,NA,NA
"LDTpractice",1,2,NA,"lower","unscrew","","w","g","g",1,0.597969489637762,NA,NA,NA
"LDTpractice",2,2,NA,"lower","raestro","","nw","h","h",1,0.580788973718882,NA,NA,NA
"LDTpractice",3,2,NA,"lower","tricycle","","w","g","g",1,0.62015703972429,NA,NA,NA
"LDTpractice",4,2,NA,"lower","crinklo","","nw","h","h",1,0.568092391826212,NA,NA,NA
"LDTpractice",5,2,NA,"lower","hiring","","w","g","g",1,0.48781291814521,NA,NA,NA
"LDTpractice",6,2,NA,"lower","treeps","","nw","h","h",1,0.554432014003396,NA,NA,NA
"LDTpractice",7,2,NA,"lower","busted","","w","g","g",1,0.458513556048274,NA,NA,NA
"LDTpractice",8,2,NA,"lower","latador","","nw","h","h",1,0.622436888050288,NA,NA,NA
"LDTpractice",9,2,NA,"lower","grimace","","w","g","g",1,0.491902036592364,NA,NA,NA
"LDTpractice",10,2,NA,"lower","grutch","","nw","h","g",0,0.814437103457749,NA,NA,NA
"LDTpractice",11,2,NA,"lower","reputable","","w","g","g",1,0.538194769993424,NA,NA,NA
"LDTpractice",12,2,NA,"lower","hasking","","nw","h","h",1,0.475011898204684,NA,NA,NA
"LDTpractice",13,2,NA,"lower","lurshing","","nw","h","h",1,0.551387285348028,NA,NA,NA
"LDTpractice",14,2,NA,"lower","overshoot","","w","g","g",1,0.599352852907032,NA,NA,NA
"experimental",1,1,"ld","lower","fomrade","nw","nw","h","h",1,0.79324594931677,NA,NA,NA
"experimental",1,2,"ld","lower","trocess","nw","nw","h","h",1,0.664459394756705,NA,NA,NA
"experimental",1,3,"ld","lower","roughly","w","w","g","g",1,0.549103210680187,NA,NA,NA
"experimental",1,4,"ld","lower","argue","w","w","g","g",1,0.557285975664854,NA,NA,NA
"experimental",1,5,"ld","lower","mebase","nw","nw","h","h",1,0.613905188627541,NA,NA,NA
"experimental",1,6,"ld","lower","earterner","nw","nw","h","h",1,0.757018901407719,NA,NA,NA
"experimental",1,7,"ld","lower","sefine","nw","nw","h","h",1,0.782424440141767,NA,NA,NA
"experimental",1,8,"ld","lower","tipoff","w","w","g","g",1,0.549515533261001,NA,NA,NA
"experimental",1,9,"ld","lower","tharcely","nw","nw","h","h",1,0.638889349065721,NA,NA,NA
"experimental",1,10,"ld","lower","tritical","nw","nw","h","h",1,0.876192239578813,NA,NA,NA
"experimental",1,11,"ld","lower","showdown","w","w","g","g",1,0.608122105710208,NA,NA,NA
"experimental",1,12,"ld","lower","gigglod","nw","nw","h","h",1,0.718752576503903,NA,NA,NA
"experimental",1,13,"ld","lower","finstrel","nw","nw","h","h",1,0.640865238383412,NA,NA,NA
"experimental",1,14,"ld","lower","dealer","w","w","g","g",1,0.51813946524635,NA,NA,NA
"experimental",1,15,"ld","lower","inside","w","w","g","g",1,0.576197884045541,NA,NA,NA
"experimental",1,16,"ld","lower","mining","w","w","g","g",1,0.664129777811468,NA,NA,NA
"experimental",1,17,"ld","lower","gontracts","nw","nw","h","h",1,0.675842942669988,NA,NA,NA
"experimental",1,18,"ld","lower","suspect","w","w","g","g",1,0.639862503390759,NA,NA,NA
"experimental",1,19,"ld","lower","become","w","w","g","g",1,0.573135346639901,NA,NA,NA
"experimental",1,20,"ld","lower","insertion","w","w","g","g",1,0.637179689481854,NA,NA,NA
"experimental",1,21,"ld","lower","despise","w","w","g","g",1,0.58651410182938,NA,NA,NA
"experimental",1,22,"ld","lower","giving","w","w","g","g",1,0.497844494413584,NA,NA,NA
"experimental",1,23,"ld","lower","clooped","nw","nw","h","h",1,0.645187080837786,NA,NA,NA
"experimental",1,24,"ld","lower","glapula","nw","nw","h","h",1,0.642525697592646,NA,NA,NA
"experimental",1,25,"ld","lower","populace","w","w","g","g",1,0.783073410857469,NA,NA,NA
"experimental",1,26,"ld","lower","sength","nw","nw","h","h",1,0.854958827141672,NA,NA,NA
"experimental",1,27,"ld","lower","subpoena","w","w","g","g",1,0.795488972682506,NA,NA,NA
"experimental",1,28,"ld","lower","rander","nw","nw","h","h",1,0.674866769928485,NA,NA,NA
"experimental",1,29,"ld","lower","pamine","nw","nw","h","h",1,0.685685562435538,NA,NA,NA
"experimental",1,30,"ld","lower","suddenly","w","w","g","g",1,0.521028743125498,NA,NA,NA
"experimental",2,1,"hd","upper","entertain","w","w","g","g",1,0.60410935478285,NA,NA,NA
"experimental",2,2,"hd","upper","unrealon","nw","nw","h","h",1,0.649740137625486,NA,NA,NA
"experimental",2,3,"hd","upper","cassette","w","w","g","g",1,0.799195651430637,NA,NA,NA
"experimental",2,4,"hd","upper","scack","nw","nw","h","h",1,0.718400924932212,NA,NA,NA
"experimental",2,5,"hd","upper","trallion","nw","nw","h","h",1,0.71248684078455,NA,NA,NA
"experimental",2,6,"hd","upper","mortgage","w","w","g","g",1,0.715199235826731,NA,NA,NA
"experimental",2,7,"hd","upper","jinds","nw","nw","h","h",1,0.64584027742967,NA,NA,NA
"experimental",2,8,"hd","upper","peahem","nw","nw","h","h",1,0.635149165522307,NA,NA,NA
"experimental",2,9,"hd","upper","bellicove","nw","nw","h","h",1,0.559551939368248,NA,NA,NA
"experimental",2,10,"hd","upper","undimmec","nw","nw","h","h",1,0.648127370513976,NA,NA,NA
"experimental",2,11,"hd","upper","arranged","w","w","g","g",1,0.541457431390882,NA,NA,NA
"experimental",2,12,"hd","upper","subber","nw","nw","h","h",1,0.71081913728267,NA,NA,NA
"experimental",2,13,"hd","upper","poars","nw","nw","h","h",1,0.617473319172859,NA,NA,NA
"experimental",2,14,"hd","upper","exemplify","w","w","g","g",1,0.654466454870999,NA,NA,NA
"experimental",2,15,"hd","upper","mestowal","nw","nw","h","h",1,0.764197421725839,NA,NA,NA
"experimental",2,16,"hd","upper","handle","w","w","g","g",1,0.508862807881087,NA,NA,NA
"experimental",2,17,"hd","upper","eggays","nw","nw","h","h",1,1.12757386779413,NA,NA,NA
"experimental",2,18,"hd","upper","educate","w","w","g","g",1,0.49661899683997,NA,NA,NA
"experimental",2,19,"hd","upper","serving","w","w","g","g",1,0.484844858758152,NA,NA,NA
"experimental",2,20,"hd","upper","affluent","w","w","g","g",1,0.64737637527287,NA,NA,NA
"experimental",2,21,"hd","upper","misest","nw","nw","h","h",1,0.899389164987952,NA,NA,NA
"experimental",2,22,"hd","upper","gures","nw","nw","h","h",1,0.607042098417878,NA,NA,NA
"experimental",2,23,"hd","upper","jaguar","target","target","q","g",0,0.598401130642742,NA,NA,NA
"experimental",2,24,"hd","upper","blocking","aftertar1","w","g","g",1,1.06183767365292,NA,NA,NA
"experimental",2,25,"hd","upper","slogan","aftertar2","w","g","g",1,0.642359983641654,NA,NA,NA
"experimental",2,26,"hd","upper","planar","aftertar3","w","g","g",1,0.68777011660859,NA,NA,NA
"experimental",2,27,"hd","upper","comment","w","w","g","g",1,0.666315148584545,NA,NA,NA
"experimental",2,28,"hd","upper","chone","w","nw","h","h",1,0.927757631987333,NA,NA,NA
"experimental",2,29,"hd","upper","even","nw","w","g","g",1,0.736862780060619,NA,NA,NA
"experimental",2,30,"hd","upper","booster","w","w","g","g",1,0.578216333407909,NA,NA,NA
"experimental",3,1,"ld","lower","inverted","w","w","g","g",1,0.634115038439631,NA,NA,NA
"experimental",3,2,"ld","lower","repayment","w","w","g","g",1,0.807423391379416,NA,NA,NA
"experimental",3,3,"ld","lower","derived","w","w","g","g",1,0.486165438313037,NA,NA,NA
"experimental",3,4,"ld","lower","dorte","nw","nw","h","h",1,0.696453644894063,NA,NA,NA
"experimental",3,5,"ld","lower","marinate","w","w","g","g",1,0.563796810805798,NA,NA,NA
"experimental",3,6,"ld","lower","implode","w","w","g","g",1,0.636476084124297,NA,NA,NA
"experimental",3,7,"ld","lower","scatter","w","w","g","g",1,0.609841727185994,NA,NA,NA
"experimental",3,8,"ld","lower","virulent","w","w","g","g",1,0.672501196619123,NA,NA,NA
"experimental",3,9,"ld","lower","decency","w","w","g","g",1,0.652495998889208,NA,NA,NA
"experimental",3,10,"ld","lower","gazes","w","w","g","g",1,0.927109265234321,NA,NA,NA
"experimental",3,11,"ld","lower","cemoir","nw","nw","h","h",1,0.481937168631703,NA,NA,NA
"experimental",3,12,"ld","lower","nearsipe","nw","nw","h","h",1,0.941806185059249,NA,NA,NA
"experimental",3,13,"ld","lower","dounger","nw","nw","h","h",1,0.711037070956081,NA,NA,NA
"experimental",3,14,"ld","lower","farochial","nw","nw","h","h",1,0.722136279102415,NA,NA,NA
"experimental",3,15,"ld","lower","grolific","nw","nw","h","h",1,0.780076373834163,NA,NA,NA
"experimental",3,16,"ld","lower","ignoble","w","w","g","h",0,0.956116741523147,NA,NA,NA
"experimental",3,17,"ld","lower","standard","w","w","g","g",1,0.644740347284824,NA,NA,NA
"experimental",3,18,"ld","lower","beartiset","nw","nw","h","h",1,0.682143692392856,NA,NA,NA
"experimental",3,19,"ld","lower","ifling","nw","nw","h","h",1,0.686226170044392,NA,NA,NA
"experimental",3,20,"ld","lower","hodels","nw","nw","h","h",1,0.649441007059067,NA,NA,NA
"experimental",3,21,"ld","lower","nimp","nw","nw","h","h",1,0.981746854260564,NA,NA,NA
"experimental",3,22,"ld","lower","sequence","w","w","g","g",1,0.603698843158782,NA,NA,NA
"experimental",3,23,"ld","lower","chappef","nw","nw","h","h",1,0.684420824516565,NA,NA,NA
"experimental",3,24,"ld","lower","peags","nw","nw","h","h",1,0.575795522425324,NA,NA,NA
"experimental",3,25,"ld","lower","causality","w","w","g","g",1,0.599785097874701,NA,NA,NA
"experimental",3,26,"ld","lower","traze","nw","nw","h","h",1,0.623165546450764,NA,NA,NA
"experimental",3,27,"ld","lower","standard","w","w","g","g",1,0.613172002602369,NA,NA,NA
"experimental",3,28,"ld","lower","analysis","w","w","g","g",1,0.595787740778178,NA,NA,NA
"experimental",3,29,"ld","lower","senalize","nw","nw","h","h",1,0.715119246393442,NA,NA,NA
"experimental",3,30,"ld","lower","moyeur","nw","nw","h","h",1,0.597814038395882,NA,NA,NA
"experimental",4,1,"ld","lower","student","w","w","g","g",1,0.564242638181895,NA,NA,NA
"experimental",4,2,"ld","lower","clume","nw","nw","h","h",1,0.595530868973583,NA,NA,NA
"experimental",4,3,"ld","lower","mandate","w","w","g","g",1,0.595290901139379,NA,NA,NA
"experimental",4,4,"ld","lower","brighten","w","w","g","g",1,0.515164765063673,NA,NA,NA
"experimental",4,5,"ld","lower","explosion","w","w","g","g",1,0.598153917584568,NA,NA,NA
"experimental",4,6,"ld","lower","befin","nw","nw","h","h",1,0.652389748953283,NA,NA,NA
"experimental",4,7,"ld","lower","crundle","nw","nw","h","g",0,0.489119009114802,NA,NA,NA
"experimental",4,8,"ld","lower","rowel","nw","nw","h","h",1,0.948416328057647,NA,NA,NA
"experimental",4,9,"ld","lower","pester","w","w","g","h",0,0.989785034675151,NA,NA,NA
"experimental",4,10,"ld","lower","sequence","w","w","g","g",1,0.65266442950815,NA,NA,NA
"experimental",4,11,"ld","lower","anemic","w","w","g","g",1,0.865807200782001,NA,NA,NA
"experimental",4,12,"ld","lower","wrestle","w","w","g","g",1,1.11845205770805,NA,NA,NA
"experimental",4,13,"ld","lower","plashed","nw","nw","h","h",1,0.688414559699595,NA,NA,NA
"experimental",4,14,"ld","lower","runabouk","nw","nw","h","h",1,0.731758852954954,NA,NA,NA
"experimental",4,15,"ld","lower","lancos","nw","nw","h","h",1,0.500780558213592,NA,NA,NA
"experimental",4,16,"ld","lower","trake","nw","nw","h","h",1,0.607432385906577,NA,NA,NA
"experimental",4,17,"ld","lower","managed","w","w","g","g",1,0.846263828221709,NA,NA,NA
"experimental",4,18,"ld","lower","fuack","nw","nw","h","h",1,0.595481969881803,NA,NA,NA
"experimental",4,19,"ld","lower","deficit","w","w","g","g",1,0.730835201684386,NA,NA,NA
"experimental",4,20,"ld","lower","slending","nw","nw","h","h",1,0.884813889395446,NA,NA,NA
"experimental",4,21,"ld","lower","frogmy","nw","nw","h","h",1,0.896206493023783,NA,NA,NA
"experimental",4,22,"ld","lower","ladybug","target","target","q","q",1,1.03553685778752,1,NA,NA
"experimental",4,23,"ld","lower","servant","aftertar1","w","g","g",1,0.760862316470593,NA,NA,NA
"experimental",4,24,"ld","lower","efcorted","aftertar2","nw","h","h",1,0.792511555831879,NA,NA,NA
"experimental",4,25,"ld","lower","fashing","aftertar3","nw","h","h",1,0.879932120908052,NA,NA,NA
"experimental",4,26,"ld","lower","reprint","nw","w","g","g",1,0.762558091897517,NA,NA,NA
"experimental",4,27,"ld","lower","ameld","w","nw","h","h",1,0.659665162209421,NA,NA,NA
"experimental",4,28,"ld","lower","geadpan","nw","nw","h","h",1,0.752965702209622,NA,NA,NA
"experimental",4,29,"ld","lower","unmarked","nw","w","g","g",1,0.777895530685782,NA,NA,NA
"experimental",4,30,"ld","lower","reconcile","w","w","g","q",0,0.977859067730606,NA,NA,NA
"experimental",5,1,"hd","upper","afternoon","w","w","g","g",1,0.66483247699216,NA,NA,NA
"experimental",5,2,"hd","upper","rationale","w","w","g","g",1,0.66145420819521,NA,NA,NA
"experimental",5,3,"hd","upper","category","w","w","g","g",1,0.530134856700897,NA,NA,NA
"experimental",5,4,"hd","upper","latter","w","w","g","g",1,0.796204651240259,NA,NA,NA
"experimental",5,5,"hd","upper","expounded","w","w","g","h",0,1.14750239672139,NA,NA,NA
"experimental",5,6,"hd","upper","duplex","w","w","g","g",1,0.948801484890282,NA,NA,NA
"experimental",5,7,"hd","upper","retona","nw","nw","h","h",1,0.701149777043611,NA,NA,NA
"experimental",5,8,"hd","upper","quittint","nw","nw","h","h",1,0.711896126624197,NA,NA,NA
"experimental",5,9,"hd","upper","downtrund","nw","nw","h","h",1,0.730538486037403,NA,NA,NA
"experimental",5,10,"hd","upper","lindo","nw","nw","h","h",1,0.500581942964345,NA,NA,NA
"experimental",5,11,"hd","upper","flooted","nw","nw","h","h",1,1.04718874720857,NA,NA,NA
"experimental",5,12,"hd","upper","pender","nw","nw","h","h",1,0.924503120128065,NA,NA,NA
"experimental",5,13,"hd","upper","armada","w","w","g","g",1,1.15053988061845,NA,NA,NA
"experimental",5,14,"hd","upper","forgery","w","w","g","g",1,1.04628713103011,NA,NA,NA
"experimental",5,15,"hd","upper","mogus","nw","nw","h","h",1,0.682398752775043,NA,NA,NA
"experimental",5,16,"hd","upper","splinging","nw","nw","h","h",1,0.862402972765267,NA,NA,NA
"experimental",5,17,"hd","upper","uncarled","nw","nw","h","h",1,0.69189968239516,NA,NA,NA
"experimental",5,18,"hd","upper","arrival","w","w","g","g",1,0.655498468782753,NA,NA,NA
"experimental",5,19,"hd","upper","lasprey","nw","nw","h","h",1,0.588152828160673,NA,NA,NA
"experimental",5,20,"hd","upper","euphoric","w","w","g","g",1,0.683506530709565,NA,NA,NA
"experimental",5,21,"hd","upper","postal","w","w","g","g",1,0.799536738079041,NA,NA,NA
"experimental",5,22,"hd","upper","trembla","nw","nw","h","h",1,0.870897243265063,NA,NA,NA
"experimental",5,23,"hd","upper","butterfly","target","target","q","q",1,0.954923239070922,1,NA,NA
"experimental",5,24,"hd","upper","germeated","aftertar1","nw","h","h",1,1.17861736705527,NA,NA,NA
"experimental",5,25,"hd","upper","houted","aftertar2","nw","h","h",1,0.650562066584826,NA,NA,NA
"experimental",5,26,"hd","upper","ements","aftertar3","nw","h","h",1,0.671180314850062,NA,NA,NA
"experimental",5,27,"hd","upper","axis","nw","w","g","g",1,0.947207130026072,NA,NA,NA
"experimental",5,28,"hd","upper","fission","w","w","g","g",1,0.796528533101082,NA,NA,NA
"experimental",5,29,"hd","upper","ilcurring","w","nw","h","h",1,0.723911138251424,NA,NA,NA
"experimental",5,30,"hd","upper","burning","nw","w","g","g",1,0.885904159862548,NA,NA,NA
"experimental",6,1,"hd","upper","olerates","nw","nw","h","h",1,1.12015628488734,NA,NA,NA
"experimental",6,2,"hd","upper","digest","w","w","g","g",1,0.642196986824274,NA,NA,NA
"experimental",6,3,"hd","upper","tibs","nw","nw","h","h",1,0.671415755525231,NA,NA,NA
"experimental",6,4,"hd","upper","dingly","nw","nw","h","h",1,0.714265624061227,NA,NA,NA
"experimental",6,5,"hd","upper","redefloy","nw","nw","h","h",1,0.628915425855666,NA,NA,NA
"experimental",6,6,"hd","upper","arrigns","nw","nw","h","h",1,0.930424448568374,NA,NA,NA
"experimental",6,7,"hd","upper","golemic","nw","nw","h","h",1,0.557225002441555,NA,NA,NA
"experimental",6,8,"hd","upper","squadroim","nw","nw","h","h",1,0.557109092827886,NA,NA,NA
"experimental",6,9,"hd","upper","irregular","w","w","g","g",1,0.758425205480307,NA,NA,NA
"experimental",6,10,"hd","upper","splum","nw","nw","h","h",1,0.631160864140838,NA,NA,NA
"experimental",6,11,"hd","upper","retreat","w","w","g","g",1,0.613109822385013,NA,NA,NA
"experimental",6,12,"hd","upper","resume","w","w","g","g",1,0.835796386003494,NA,NA,NA
"experimental",6,13,"hd","upper","artifact","w","w","g","g",1,0.793178335763514,NA,NA,NA
"experimental",6,14,"hd","upper","rational","w","w","g","g",1,0.919767445418984,NA,NA,NA
"experimental",6,15,"hd","upper","trises","nw","nw","h","h",1,0.98552446719259,NA,NA,NA
"experimental",6,16,"hd","upper","satisfies","w","w","g","g",1,0.872901807539165,NA,NA,NA
"experimental",6,17,"hd","upper","maiden","w","w","g","g",1,0.972885538358241,NA,NA,NA
"experimental",6,18,"hd","upper","egcused","nw","nw","h","h",1,0.684900459367782,NA,NA,NA
"experimental",6,19,"hd","upper","religious","w","w","g","g",1,0.736180908046663,NA,NA,NA
"experimental",6,20,"hd","upper","chyme","nw","nw","h","g",0,1.13757012784481,NA,NA,NA
"experimental",6,21,"hd","upper","alber","nw","nw","h","h",1,0.770910494495183,NA,NA,NA
"experimental",6,22,"hd","upper","hinsome","nw","nw","h","h",1,0.706854077987373,NA,NA,NA
"experimental",6,23,"hd","upper","airline","w","w","g","g",1,0.701503843534738,NA,NA,NA
"experimental",6,24,"hd","upper","distrust","w","w","g","g",1,0.783345374278724,NA,NA,NA
"experimental",6,25,"hd","upper","living","w","w","g","g",1,0.695156005676836,NA,NA,NA
"experimental",6,26,"hd","upper","odacles","nw","nw","h","h",1,0.706537440419197,NA,NA,NA
"experimental",6,27,"hd","upper","pressing","w","w","g","g",1,0.909229672048241,NA,NA,NA
"experimental",6,28,"hd","upper","numbled","nw","nw","h","h",1,1.27872394910082,NA,NA,NA
"experimental",6,29,"hd","upper","flicking","w","w","g","g",1,0.7784044444561,NA,NA,NA
"experimental",6,30,"hd","upper","binder","w","w","g","g",1,0.858360036741942,NA,NA,NA
"experimental",7,1,"hd","upper","curricula","w","w","g","g",1,0.917876073624939,NA,NA,NA
"experimental",7,2,"hd","upper","ulcer","w","w","g","g",1,0.752099100500345,NA,NA,NA
"experimental",7,3,"hd","upper","mitro","nw","nw","h","h",1,0.848766440525651,NA,NA,NA
"experimental",7,4,"hd","upper","donastic","nw","nw","h","h",1,0.734113861341029,NA,NA,NA
"experimental",7,5,"hd","upper","reason","w","w","g","g",1,0.583564152941108,NA,NA,NA
"experimental",7,6,"hd","upper","failure","w","w","g","g",1,0.526541974395514,NA,NA,NA
"experimental",7,7,"hd","upper","amms","nw","nw","h","h",1,0.793466900940984,NA,NA,NA
"experimental",7,8,"hd","upper","epthuse","nw","nw","h","h",1,0.75978079950437,NA,NA,NA
"experimental",7,9,"hd","upper","dileting","nw","nw","h","h",1,0.608505451120436,NA,NA,NA
"experimental",7,10,"hd","upper","galashes","nw","nw","h","h",1,0.75915839150548,NA,NA,NA
"experimental",7,11,"hd","upper","perishing","w","w","g","g",1,0.815843709278852,NA,NA,NA
"experimental",7,12,"hd","upper","vergas","nw","nw","h","h",1,1.02247504191473,NA,NA,NA
"experimental",7,13,"hd","upper","integral","w","w","g","g",1,0.548533022403717,NA,NA,NA
"experimental",7,14,"hd","upper","natch","nw","nw","h","h",1,0.701855796854943,NA,NA,NA
"experimental",7,15,"hd","upper","emotion","w","w","g","g",1,0.607595383189619,NA,NA,NA
"experimental",7,16,"hd","upper","spider","target","target","q","g",0,0.631270132493228,NA,NA,NA
"experimental",7,17,"hd","upper","neliefs","aftertar1","nw","h","h",1,0.780161192640662,NA,NA,NA
"experimental",7,18,"hd","upper","seartfelt","aftertar2","nw","h","h",1,0.682474818546325,NA,NA,NA
"experimental",7,19,"hd","upper","zears","aftertar3","nw","h","h",1,0.573956369422376,NA,NA,NA
"experimental",7,20,"hd","upper","require","nw","w","g","g",1,0.646047646179795,NA,NA,NA
"experimental",7,21,"hd","upper","caloric","w","w","g","g",1,0.602980749681592,NA,NA,NA
"experimental",7,22,"hd","upper","jiggling","w","w","g","g",1,0.792891279328614,NA,NA,NA
"experimental",7,23,"hd","upper","antonym","w","w","g","g",1,0.943500149529427,NA,NA,NA
"experimental",7,24,"hd","upper","plunging","w","w","g","g",1,0.760191008914262,NA,NA,NA
"experimental",7,25,"hd","upper","detrabe","w","nw","h","h",1,0.76020640367642,NA,NA,NA
"experimental",7,26,"hd","upper","anterior","nw","w","g","g",1,0.823133610654622,NA,NA,NA
"experimental",7,27,"hd","upper","esdings","w","nw","h","h",1,0.677205780521035,NA,NA,NA
"experimental",7,28,"hd","upper","erony","nw","nw","h","h",1,0.913144323043525,NA,NA,NA
"experimental",7,29,"hd","upper","saturate","nw","w","g","g",1,0.627802215050906,NA,NA,NA
"experimental",7,30,"hd","upper","sliding","w","w","g","g",1,0.56982499267906,NA,NA,NA
"experimental",8,1,"ld","lower","labitable","nw","nw","h","h",1,0.704817215446383,NA,NA,NA
"experimental",8,2,"ld","lower","boutique","w","w","g","g",1,0.691509696189314,NA,NA,NA
"experimental",8,3,"ld","lower","mystery","w","w","g","g",1,0.926808927673846,NA,NA,NA
"experimental",8,4,"ld","lower","obviously","w","w","g","g",1,0.6167829958722,NA,NA,NA
"experimental",8,5,"ld","lower","podges","nw","nw","h","h",1,0.743506126105785,NA,NA,NA
"experimental",8,6,"ld","lower","digested","w","w","g","g",1,0.624822986777872,NA,NA,NA
"experimental",8,7,"ld","lower","roaned","nw","nw","h","h",1,0.670863678213209,NA,NA,NA
"experimental",8,8,"ld","lower","sludding","nw","nw","h","h",1,0.809024688322097,NA,NA,NA
"experimental",8,9,"ld","lower","brudent","nw","nw","h","h",1,0.726303273811936,NA,NA,NA
"experimental",8,10,"ld","lower","shests","nw","nw","h","h",1,0.624255816917866,NA,NA,NA
"experimental",8,11,"ld","lower","nollow","nw","nw","h","h",1,0.621838929597288,NA,NA,NA
"experimental",8,12,"ld","lower","elpired","nw","nw","h","h",1,0.739186094608158,NA,NA,NA
"experimental",8,13,"ld","lower","migmarole","nw","nw","h","h",1,0.771804564166814,NA,NA,NA
"experimental",8,14,"ld","lower","afford","w","w","g","h",0,0.595125187188387,NA,NA,NA
"experimental",8,15,"ld","lower","gablus","nw","nw","h","h",1,0.689815430436283,NA,NA,NA
"experimental",8,16,"ld","lower","finish","w","w","g","g",1,0.572473698295653,NA,NA,NA
"experimental",8,17,"ld","lower","sording","nw","nw","h","h",1,0.883080081548542,NA,NA,NA
"experimental",8,18,"ld","lower","unwose","nw","nw","h","h",1,0.814259918872267,NA,NA,NA
"experimental",8,19,"ld","lower","graiking","nw","nw","h","h",1,0.628095610067248,NA,NA,NA
"experimental",8,20,"ld","lower","ethical","w","w","g","g",1,0.673435412347317,NA,NA,NA
"experimental",8,21,"ld","lower","ipiocy","nw","nw","h","h",1,1.32483014091849,NA,NA,NA
"experimental",8,22,"ld","lower","pallir","nw","nw","h","h",1,0.646212454419583,NA,NA,NA
"experimental",8,23,"ld","lower","oppose","w","w","g","g",1,0.770815714728087,NA,NA,NA
"experimental",8,24,"ld","lower","purpose","w","w","g","g",1,0.722151975147426,NA,NA,NA
"experimental",8,25,"ld","lower","defeat","w","w","g","g",1,0.603570256382227,NA,NA,NA
"experimental",8,26,"ld","lower","treason","w","w","g","g",1,0.553568430244923,NA,NA,NA
"experimental",8,27,"ld","lower","urgent","w","w","g","g",1,0.824453284963965,NA,NA,NA
"experimental",8,28,"ld","lower","stooping","w","w","g","h",0,0.813870234880596,NA,NA,NA
"experimental",8,29,"ld","lower","railway","w","w","g","g",1,0.571888115722686,NA,NA,NA
"experimental",8,30,"ld","lower","railroad","w","w","g","g",1,0.795204331167042,NA,NA,NA
"experimental",9,1,"ld","lower","chraps","nw","nw","h","h",1,0.729615740478039,NA,NA,NA
"experimental",9,2,"ld","lower","gettle","nw","nw","h","h",1,0.730747364461422,NA,NA,NA
"experimental",9,3,"ld","lower","primal","w","w","g","g",1,0.780211601406336,NA,NA,NA
"experimental",9,4,"ld","lower","pypecast","nw","nw","h","h",1,0.891443350352347,NA,NA,NA
"experimental",9,5,"ld","lower","miability","nw","nw","h","h",1,0.6300790454261,NA,NA,NA
"experimental",9,6,"ld","lower","veclors","nw","nw","h","h",1,0.651485717855394,NA,NA,NA
"experimental",9,7,"ld","lower","anonymous","w","w","g","g",1,0.888146881945431,NA,NA,NA
"experimental",9,8,"ld","lower","incorrect","w","w","g","g",1,0.658794334158301,NA,NA,NA
"experimental",9,9,"ld","lower","intended","w","w","g","g",1,0.565861442591995,NA,NA,NA
"experimental",9,10,"ld","lower","fards","nw","nw","h","h",1,0.814811997115612,NA,NA,NA
"experimental",9,11,"ld","lower","issue","w","w","g","g",1,0.683889272157103,NA,NA,NA
"experimental",9,12,"ld","lower","eyesight","w","w","g","g",1,0.519123184029013,NA,NA,NA
"experimental",9,13,"ld","lower","frunted","nw","nw","h","h",1,1.17706164857373,NA,NA,NA
"experimental",9,14,"ld","lower","ubefully","nw","nw","h","h",1,1.00846965238452,NA,NA,NA
"experimental",9,15,"ld","lower","fravity","nw","nw","h","h",1,0.726480759680271,NA,NA,NA
"experimental",9,16,"ld","lower","acorn","w","w","g","g",1,0.775821843184531,NA,NA,NA
"experimental",9,17,"ld","lower","crazy","w","w","g","g",1,0.775175287388265,NA,NA,NA
"experimental",9,18,"ld","lower","colicky","w","w","g","h",0,1.11773698264733,NA,NA,NA
"experimental",9,19,"ld","lower","remade","w","w","g","g",1,1.65555431041867,NA,NA,NA
"experimental",9,20,"ld","lower","lenie","nw","nw","h","h",1,0.731546654365957,NA,NA,NA
"experimental",9,21,"ld","lower","gaioty","nw","nw","h","h",1,0.715795987285674,NA,NA,NA
"experimental",9,22,"ld","lower","telecast","w","w","g","g",1,0.733953278977424,NA,NA,NA
"experimental",9,23,"ld","lower","lawsuit","w","w","g","g",1,0.639974790625274,NA,NA,NA
"experimental",9,24,"ld","lower","frader","nw","nw","h","h",1,0.852912004105747,NA,NA,NA
"experimental",9,25,"ld","lower","bamps","nw","nw","h","h",1,1.26391987362877,NA,NA,NA
"experimental",9,26,"ld","lower","persona","w","w","g","g",1,0.755811212584376,NA,NA,NA
"experimental",9,27,"ld","lower","nature","w","w","g","g",1,0.715780290775001,NA,NA,NA
"experimental",9,28,"ld","lower","country","w","w","g","g",1,0.613911527674645,NA,NA,NA
"experimental",9,29,"ld","lower","plapping","nw","nw","h","h",1,1.19586428906769,NA,NA,NA
"experimental",9,30,"ld","lower","praiged","nw","nw","h","h",1,0.866525294724852,NA,NA,NA
"experimental",10,1,"hd","upper","puyer","nw","nw","h","h",1,0.710113117936999,NA,NA,NA
"experimental",10,2,"hd","upper","sazer","nw","nw","h","h",1,0.848161539528519,NA,NA,NA
"experimental",10,3,"hd","upper","practice","w","w","g","g",1,0.604839522391558,NA,NA,NA
"experimental",10,4,"hd","upper","disease","w","w","g","g",1,0.578802821692079,NA,NA,NA
"experimental",10,5,"hd","upper","earnest","w","w","g","g",1,1.11416432447731,NA,NA,NA
"experimental",10,6,"hd","upper","tasher","nw","nw","h","h",1,0.94014391489327,NA,NA,NA
"experimental",10,7,"hd","upper","surround","w","w","g","g",1,1.19685706309974,NA,NA,NA
"experimental",10,8,"hd","upper","huests","nw","nw","h","h",1,0.730645943898708,NA,NA,NA
"experimental",10,9,"hd","upper","dariner","nw","nw","h","h",1,1.05189725570381,NA,NA,NA
"experimental",10,10,"hd","upper","resonant","w","w","g","g",1,1.02339446684346,NA,NA,NA
"experimental",10,11,"hd","upper","outset","w","w","g","g",1,0.749190202914178,NA,NA,NA
"experimental",10,12,"hd","upper","plogging","nw","nw","h","h",1,0.806486760731786,NA,NA,NA
"experimental",10,13,"hd","upper","envelop","w","w","g","g",1,1.27655578358099,NA,NA,NA
"experimental",10,14,"hd","upper","region","w","w","g","g",1,0.831819553859532,NA,NA,NA
"experimental",10,15,"hd","upper","fonducts","nw","nw","h","h",1,1.15725597180426,NA,NA,NA
"experimental",10,16,"hd","upper","metebing","nw","nw","h","h",1,0.804375040344894,NA,NA,NA
"experimental",10,17,"hd","upper","sustain","w","w","g","g",1,0.97035032697022,NA,NA,NA
"experimental",10,18,"hd","upper","gestalion","nw","nw","h","h",1,0.721514776349068,NA,NA,NA
"experimental",10,19,"hd","upper","monkey","target","target","q","g",0,0.642875538207591,NA,NA,NA
"experimental",10,20,"hd","upper","number","aftertar1","w","g","g",1,0.647566237021238,NA,NA,NA
"experimental",10,21,"hd","upper","stuggard","aftertar2","nw","h","h",1,0.764230926986784,NA,NA,NA
"experimental",10,22,"hd","upper","harmful","aftertar3","w","g","g",1,0.940175005234778,NA,NA,NA
"experimental",10,23,"hd","upper","glamorous","w","w","g","g",1,0.668700945563614,NA,NA,NA
"experimental",10,24,"hd","upper","guivers","w","nw","h","h",1,0.832694004289806,NA,NA,NA
"experimental",10,25,"hd","upper","funtair","nw","nw","h","h",1,1.69410557905212,NA,NA,NA
"experimental",10,26,"hd","upper","personify","nw","w","g","g",1,0.84774891519919,NA,NA,NA
"experimental",10,27,"hd","upper","worps","w","nw","h","h",1,0.972449973225594,NA,NA,NA
"experimental",10,28,"hd","upper","skiing","nw","w","g","g",1,1.0437884433195,NA,NA,NA
"experimental",10,29,"hd","upper","intersect","w","w","g","g",1,1.04845469305292,NA,NA,NA
"experimental",10,30,"hd","upper","offonents","w","nw","h","h",1,0.773135406896472,NA,NA,NA
"experimental",11,1,"ld","lower","infancy","w","w","g","g",1,0.731435876805335,NA,NA,NA
"experimental",11,2,"ld","lower","rejoiced","w","w","g","g",1,0.756866770330817,NA,NA,NA
"experimental",11,3,"ld","lower","geissue","nw","nw","h","h",1,0.716664702165872,NA,NA,NA
"experimental",11,4,"ld","lower","sonnet","w","w","g","h",0,0.662746414076537,NA,NA,NA
"experimental",11,5,"ld","lower","rangel","nw","nw","h","h",1,0.730757023207843,NA,NA,NA
"experimental",11,6,"ld","lower","slooping","nw","nw","h","h",1,0.724146578460932,NA,NA,NA
"experimental",11,7,"ld","lower","brother","w","w","g","g",1,0.844628422986716,NA,NA,NA
"experimental",11,8,"ld","lower","bullet","w","w","g","g",1,1.02514125453308,NA,NA,NA
"experimental",11,9,"ld","lower","mineluyer","nw","nw","h","h",1,0.718455559108406,NA,NA,NA
"experimental",11,10,"ld","lower","forgive","w","w","g","g",1,0.63243707222864,NA,NA,NA
"experimental",11,11,"ld","lower","alarm","w","w","g","g",1,0.805793116800487,NA,NA,NA
"experimental",11,12,"ld","lower","ebciting","nw","nw","h","h",1,0.675864675547928,NA,NA,NA
"experimental",11,13,"ld","lower","throttle","w","w","g","g",1,1.01535870181397,NA,NA,NA
"experimental",11,14,"ld","lower","ofsters","nw","nw","h","h",1,0.661181036382914,NA,NA,NA
"experimental",11,15,"ld","lower","baults","nw","nw","h","h",1,0.712280075531453,NA,NA,NA
"experimental",11,16,"ld","lower","cheathe","nw","nw","h","h",1,0.747198919765651,NA,NA,NA
"experimental",11,17,"ld","lower","omission","w","w","g","g",1,0.778907019644976,NA,NA,NA
"experimental",11,18,"ld","lower","rapport","w","w","g","g",1,0.946201678365469,NA,NA,NA
"experimental",11,19,"ld","lower","rebool","nw","nw","h","h",1,0.866924033965915,NA,NA,NA
"experimental",11,20,"ld","lower","grummer","nw","nw","h","h",1,0.878926367498934,NA,NA,NA
"experimental",11,21,"ld","lower","reses","nw","nw","h","h",1,1.23289817338809,NA,NA,NA
"experimental",11,22,"ld","lower","noblin","nw","nw","h","h",1,0.68688298901543,NA,NA,NA
"experimental",11,23,"ld","lower","athcan","nw","nw","h","h",1,0.770275107119232,NA,NA,NA
"experimental",11,24,"ld","lower","contain","w","w","g","g",1,0.784497524145991,NA,NA,NA
"experimental",11,25,"ld","lower","intercede","w","w","g","g",1,1.1996090002358,NA,NA,NA
"experimental",11,26,"ld","lower","maximized","w","w","g","g",1,1.0537065253593,NA,NA,NA
"experimental",11,27,"ld","lower","noblest","w","w","g","g",1,1.85068467678502,NA,NA,NA
"experimental",11,28,"ld","lower","begut","nw","nw","h","h",1,0.887198478914797,NA,NA,NA
"experimental",11,29,"ld","lower","flacked","nw","nw","h","h",1,0.977933020330966,NA,NA,NA
"experimental",11,30,"ld","lower","enunciate","w","w","g","g",1,1.25716786272824,NA,NA,NA
"experimental",12,1,"hd","upper","blipover","nw","nw","h","h",1,1.01283133868128,NA,NA,NA
"experimental",12,2,"hd","upper","tapling","nw","nw","h","h",1,0.826857494655997,NA,NA,NA
"experimental",12,3,"hd","upper","earmaff","nw","nw","h","h",1,0.752124455291778,NA,NA,NA
"experimental",12,4,"hd","upper","brouhuha","nw","nw","h","h",1,0.752806327771395,NA,NA,NA
"experimental",12,5,"hd","upper","acoustic","w","w","g","g",1,1.71292180242017,NA,NA,NA
"experimental",12,6,"hd","upper","admire","w","w","g","g",1,0.67388154193759,NA,NA,NA
"experimental",12,7,"hd","upper","rascaps","nw","nw","h","h",1,0.973125204443932,NA,NA,NA
"experimental",12,8,"hd","upper","pammed","nw","nw","h","h",1,1.26737300073728,NA,NA,NA
"experimental",12,9,"hd","upper","violate","w","w","g","g",1,1.09563244041055,NA,NA,NA
"experimental",12,10,"hd","upper","endgume","nw","nw","h","h",1,0.915059843566269,NA,NA,NA
"experimental",12,11,"hd","upper","season","w","w","g","g",1,0.828952613286674,NA,NA,NA
"experimental",12,12,"hd","upper","extruded","w","w","g","h",0,1.06640733266249,NA,NA,NA
"experimental",12,13,"hd","upper","reforest","w","w","g","h",0,1.34210785105824,NA,NA,NA
"experimental",12,14,"hd","upper","partner","w","w","g","g",1,0.741635581478477,NA,NA,NA
"experimental",12,15,"hd","upper","flamingo","target","target","q","q",1,0.84636434353888,1,NA,NA
"experimental",12,16,"hd","upper","handbook","aftertar1","w","g","g",1,0.946671955753118,NA,NA,NA
"experimental",12,17,"hd","upper","image","aftertar2","w","g","g",1,0.603167894762009,NA,NA,NA
"experimental",12,18,"hd","upper","refebs","aftertar3","nw","h","h",1,0.793145132251084,NA,NA,NA
"experimental",12,19,"hd","upper","impirt","nw","nw","h","h",1,0.863585910294205,NA,NA,NA
"experimental",12,20,"hd","upper","movie","nw","w","g","g",1,0.619355636183172,NA,NA,NA
"experimental",12,21,"hd","upper","fabstand","w","nw","h","h",1,0.952417307533324,NA,NA,NA
"experimental",12,22,"hd","upper","pocket","nw","w","g","g",1,0.904206941835582,NA,NA,NA
"experimental",12,23,"hd","upper","butcher","w","w","g","g",1,0.578040054999292,NA,NA,NA
"experimental",12,24,"hd","upper","lignpost","w","nw","h","h",1,0.737446853425354,NA,NA,NA
"experimental",12,25,"hd","upper","collision","nw","w","g","g",1,0.674072611145675,NA,NA,NA
"experimental",12,26,"hd","upper","miteous","w","nw","h","h",1,0.981425085570663,NA,NA,NA
"experimental",12,27,"hd","upper","shillac","nw","nw","h","h",1,0.964824115857482,NA,NA,NA
"experimental",12,28,"hd","upper","culer","nw","nw","h","h",1,0.931538263335824,NA,NA,NA
"experimental",12,29,"hd","upper","felevance","nw","nw","h","h",1,1.11633128253743,NA,NA,NA
"experimental",12,30,"hd","upper","purport","nw","w","g","h",0,1.23923876741901,NA,NA,NA
"experimental",13,1,"ld","lower","suburb","w","w","g","g",1,0.844452445860952,NA,NA,NA
"experimental",13,2,"ld","lower","minimum","w","w","g","g",1,0.601131937932223,NA,NA,NA
"experimental",13,3,"ld","lower","trooper","w","w","g","g",1,0.759749105665833,NA,NA,NA
"experimental",13,4,"ld","lower","frigs","nw","nw","h","h",1,0.687779775355011,NA,NA,NA
"experimental",13,5,"ld","lower","pretzel","w","w","g","g",1,1.32950544543564,NA,NA,NA
"experimental",13,6,"ld","lower","grested","nw","nw","h","h",1,0.890767515171319,NA,NA,NA
"experimental",13,7,"ld","lower","provide","w","w","g","g",1,1.37346852524206,NA,NA,NA
"experimental",13,8,"ld","lower","emission","w","w","g","g",1,1.10887204436585,NA,NA,NA
"experimental",13,9,"ld","lower","newstrint","nw","nw","h","h",1,0.830851531587541,NA,NA,NA
"experimental",13,10,"ld","lower","decantel","nw","nw","h","h",1,0.772159838117659,NA,NA,NA
"experimental",13,11,"ld","lower","otoist","nw","nw","h","h",1,0.730631757061929,NA,NA,NA
"experimental",13,12,"ld","lower","illness","w","w","g","g",1,0.651823483873159,NA,NA,NA
"experimental",13,13,"ld","lower","elormity","nw","nw","h","h",1,0.624421832617372,NA,NA,NA
"experimental",13,14,"ld","lower","slutches","nw","nw","h","h",1,1.70992838731036,NA,NA,NA
"experimental",13,15,"ld","lower","threaded","w","w","g","g",1,0.878125568386167,NA,NA,NA
"experimental",13,16,"ld","lower","browting","nw","nw","h","h",1,0.986036398913711,NA,NA,NA
"experimental",13,17,"ld","lower","greakable","nw","nw","h","h",1,1.12127009918913,NA,NA,NA
"experimental",13,18,"ld","lower","trewl","nw","nw","h","h",1,0.699340206105262,NA,NA,NA
"experimental",13,19,"ld","lower","mopping","w","w","g","g",1,1.08588248770684,NA,NA,NA
"experimental",13,20,"ld","lower","cutout","w","w","g","g",1,0.823545933701098,NA,NA,NA
"experimental",13,21,"ld","lower","oalis","nw","nw","h","h",1,1.14082071604207,NA,NA,NA
"experimental",13,22,"ld","lower","obtuse","w","w","g","g",1,1.09366047568619,NA,NA,NA
"experimental",13,23,"ld","lower","tenpince","nw","nw","h","h",1,1.18423473602161,NA,NA,NA
"experimental",13,24,"ld","lower","unlined","w","w","g","g",1,1.1275925822556,NA,NA,NA
"experimental",13,25,"ld","lower","coupling","w","w","g","g",1,0.928930005058646,NA,NA,NA
"experimental",13,26,"ld","lower","planofoad","nw","nw","h","h",1,1.15420580981299,NA,NA,NA
"experimental",13,27,"ld","lower","lofty","w","w","g","g",1,0.946268990170211,NA,NA,NA
"experimental",13,28,"ld","lower","sweeping","w","w","g","g",1,1.80989159224555,NA,NA,NA
"experimental",13,29,"ld","lower","crimb","nw","nw","h","h",1,1.87987839244306,NA,NA,NA
"experimental",13,30,"ld","lower","chining","nw","nw","h","h",1,1.10721279261634,NA,NA,NA
"experimental",14,1,"ld","lower","alchemist","w","w","g","g",1,0.844830056186765,NA,NA,NA
"experimental",14,2,"ld","lower","abraid","nw","nw","h","h",1,0.840308391489089,NA,NA,NA
"experimental",14,3,"ld","lower","attended","w","w","g","g",1,0.773155328817666,NA,NA,NA
"experimental",14,4,"ld","lower","nopping","nw","nw","h","h",1,1.0132391336374,NA,NA,NA
"experimental",14,5,"ld","lower","aviation","w","w","g","g",1,0.803518399130553,NA,NA,NA
"experimental",14,6,"ld","lower","reborn","w","w","g","g",1,0.753487595357001,NA,NA,NA
"experimental",14,7,"ld","lower","balign","nw","nw","h","h",1,0.849497211631387,NA,NA,NA
"experimental",14,8,"ld","lower","stagger","w","w","g","g",1,0.789190033916384,NA,NA,NA
"experimental",14,9,"ld","lower","delegate","w","w","g","g",1,1.07581348251551,NA,NA,NA
"experimental",14,10,"ld","lower","fetching","w","w","g","g",1,0.743231747765094,NA,NA,NA
"experimental",14,11,"ld","lower","allained","nw","nw","h","h",1,1.05589974392205,NA,NA,NA
"experimental",14,12,"ld","lower","veirs","nw","nw","h","h",1,1.46775972656906,NA,NA,NA
"experimental",14,13,"ld","lower","ucility","nw","nw","h","h",1,0.983871252276003,NA,NA,NA
"experimental",14,14,"ld","lower","boulder","w","w","g","g",1,0.950547064654529,NA,NA,NA
"experimental",14,15,"ld","lower","handed","w","w","g","g",1,1.00648531131446,NA,NA,NA
"experimental",14,16,"ld","lower","gumdrep","nw","nw","h","h",1,1.1325120809488,NA,NA,NA
"experimental",14,17,"ld","lower","function","w","w","g","g",1,0.732933942228556,NA,NA,NA
"experimental",14,18,"ld","lower","fracture","w","w","g","g",1,0.966242494061589,NA,NA,NA
"experimental",14,19,"ld","lower","wimpid","nw","nw","h","h",1,1.48628376238048,NA,NA,NA
"experimental",14,20,"ld","lower","dialect","w","w","g","g",1,1.17692943988368,NA,NA,NA
"experimental",14,21,"ld","lower","mantos","nw","nw","h","h",1,1.08818920049816,NA,NA,NA
"experimental",14,22,"ld","lower","gairs","nw","nw","h","h",1,0.690874308813363,NA,NA,NA
"experimental",14,23,"ld","lower","ready","w","w","g","g",1,0.691397711168975,NA,NA,NA
"experimental",14,24,"ld","lower","gigoho","nw","nw","h","h",1,1.07904958166182,NA,NA,NA
"experimental",14,25,"ld","lower","happen","w","w","g","g",1,0.898274143226445,NA,NA,NA
"experimental",14,26,"ld","lower","clattest","nw","nw","h","h",1,0.829215824138373,NA,NA,NA
"experimental",14,27,"ld","lower","drauns","nw","nw","h","h",1,1.27459166711196,NA,NA,NA
"experimental",14,28,"ld","lower","sponto","nw","nw","h","h",1,0.797838548198342,NA,NA,NA
"experimental",14,29,"ld","lower","octopus","target","target","q","q",1,1.79657230060548,1,NA,NA
"experimental",14,30,"ld","lower","penalize","aftertar1","w","g","g",1,1.34645504830405,NA,NA,NA
"experimental",15,1,"hd","upper","drobate","nw","nw","h","h",1,0.875444263219833,NA,NA,NA
"experimental",15,2,"hd","upper","outrank","w","w","g","g",1,0.662895526271313,NA,NA,NA
"experimental",15,3,"hd","upper","nelvet","nw","nw","h","h",1,0.866892340127379,NA,NA,NA
"experimental",15,4,"hd","upper","chesume","nw","nw","h","h",1,1.88686916418374,NA,NA,NA
"experimental",15,5,"hd","upper","talent","w","w","g","g",1,0.63344705151394,NA,NA,NA
"experimental",15,6,"hd","upper","uncounted","w","w","g","g",1,0.949815689586103,NA,NA,NA
"experimental",15,7,"hd","upper","whirling","w","w","g","g",1,0.758510326500982,NA,NA,NA
"experimental",15,8,"hd","upper","picnic","w","w","g","g",1,0.59850224852562,NA,NA,NA
"experimental",15,9,"hd","upper","horks","nw","nw","h","h",1,1.66121242847294,NA,NA,NA
"experimental",15,10,"hd","upper","bailmenz","nw","nw","h","h",1,1.55087595665827,NA,NA,NA
"experimental",15,11,"hd","upper","rainfall","w","w","g","g",1,1.08827884914353,NA,NA,NA
"experimental",15,12,"hd","upper","forecast","w","w","g","g",1,2.09891804261133,NA,NA,NA
"experimental",15,13,"hd","upper","sonkers","nw","nw","h","h",1,1.21346467314288,NA,NA,NA
"experimental",15,14,"hd","upper","haurded","nw","nw","h","h",1,0.739493676926941,NA,NA,NA
"experimental",15,15,"hd","upper","bentler","nw","nw","h","h",1,0.876222424209118,NA,NA,NA
"experimental",15,16,"hd","upper","truthful","w","w","g","g",1,0.82347620697692,NA,NA,NA
"experimental",15,17,"hd","upper","crocodile","target","target","q","q",1,1.03687343560159,1,NA,NA
"experimental",15,18,"hd","upper","laser","aftertar1","w","g","g",1,0.969541377853602,NA,NA,NA
"experimental",15,19,"hd","upper","ounwit","aftertar2","nw","h","g",0,2.09685461828485,NA,NA,NA
"experimental",15,20,"hd","upper","passet","aftertar3","nw","h","h",1,0.978430765215308,NA,NA,NA
"experimental",15,21,"hd","upper","whirlpool","nw","w","g","g",1,0.8098279023543,NA,NA,NA
"experimental",15,22,"hd","upper","eugenifs","w","nw","h","h",1,1.31181963905692,NA,NA,NA
"experimental",15,23,"hd","upper","gewer","nw","nw","h","h",1,0.865824406035244,NA,NA,NA
"experimental",15,24,"hd","upper","bropic","nw","nw","h","h",1,1.33388101682067,NA,NA,NA
"experimental",15,25,"hd","upper","micron","nw","w","g","h",0,1.0465129124932,NA,NA,NA
"experimental",15,26,"hd","upper","tracing","w","w","g","g",1,1.79519014433026,NA,NA,NA
"experimental",15,27,"hd","upper","destroy","w","w","g","g",1,0.848796625155956,NA,NA,NA
"experimental",15,28,"hd","upper","seldom","w","w","g","g",1,0.797460334375501,NA,NA,NA
"experimental",15,29,"hd","upper","correct","w","w","g","g",1,0.59502225741744,NA,NA,NA
"experimental",15,30,"hd","upper","bengths","w","nw","h","h",1,0.66560761956498,NA,NA,NA
"experimental",16,1,"hd","upper","midday","w","w","g","g",1,0.743012606631964,NA,NA,NA
"experimental",16,2,"hd","upper","gepealed","nw","nw","h","h",1,0.798471520654857,NA,NA,NA
"experimental",16,3,"hd","upper","tucker","w","w","g","g",1,1.78911336464807,NA,NA,NA
"experimental",16,4,"hd","upper","gremieres","nw","nw","h","h",1,0.995894111227244,NA,NA,NA
"experimental",16,5,"hd","upper","rootsie","nw","nw","h","h",1,1.53849027771503,NA,NA,NA
"experimental",16,6,"hd","upper","classify","w","w","g","g",1,3.03443813556805,NA,NA,NA
"experimental",16,7,"hd","upper","paranoid","w","w","g","g",1,0.711860810406506,NA,NA,NA
"experimental",16,8,"hd","upper","reloant","nw","nw","h","h",1,0.736994989216328,NA,NA,NA
"experimental",16,9,"hd","upper","submit","w","w","g","g",1,0.6895981002599,NA,NA,NA
"experimental",16,10,"hd","upper","fatho","nw","nw","h","h",1,1.99631247110665,NA,NA,NA
"experimental",16,11,"hd","upper","volder","nw","nw","h","h",1,0.818824748042971,NA,NA,NA
"experimental",16,12,"hd","upper","glates","nw","nw","h","h",1,1.13623355003074,NA,NA,NA
"experimental",16,13,"hd","upper","gerby","nw","nw","h","h",1,0.69684906443581,NA,NA,NA
"experimental",16,14,"hd","upper","cookbook","w","w","g","g",1,1.09153426671401,NA,NA,NA
"experimental",16,15,"hd","upper","triangle","w","w","g","g",1,1.58808672381565,NA,NA,NA
"experimental",16,16,"hd","upper","warmer","w","w","g","g",1,1.48261058889329,NA,NA,NA
"experimental",16,17,"hd","upper","vaporize","w","w","g","g",1,1.91085179708898,NA,NA,NA
"experimental",16,18,"hd","upper","rantho","nw","nw","h","h",1,0.817270539235324,NA,NA,NA
"experimental",16,19,"hd","upper","halter","w","w","g","h",0,1.1664556581527,NA,NA,NA
"experimental",16,20,"hd","upper","joses","nw","nw","h","h",1,0.574466792866588,NA,NA,NA
"experimental",16,21,"hd","upper","sefraud","nw","nw","h","h",1,0.508998940698802,NA,NA,NA
"experimental",16,22,"hd","upper","apology","w","w","g","g",1,0.543056917842478,NA,NA,NA
"experimental",16,23,"hd","upper","pigned","nw","nw","h","h",1,0.77554625691846,NA,NA,NA
"experimental",16,24,"hd","upper","ludictous","nw","nw","h","h",1,1.3510727006942,NA,NA,NA
"experimental",16,25,"hd","upper","lifetime","w","w","g","g",1,0.894923945888877,NA,NA,NA
"experimental",16,26,"hd","upper","cabinet","w","w","g","g",1,1.79355081450194,NA,NA,NA
"experimental",16,27,"hd","upper","innocent","w","w","g","g",1,0.560238339006901,NA,NA,NA
"experimental",16,28,"hd","upper","scrobby","nw","nw","h","h",1,1.12014421075583,NA,NA,NA
"experimental",16,29,"hd","upper","mixture","w","w","g","g",1,0.753531062044203,NA,NA,NA
"experimental",16,30,"hd","upper","fullity","nw","nw","h","h",1,1.4487427752465,NA,NA,NA
"experimental",17,1,"hd","upper","contact","w","w","g","g",1,1.33388282777742,NA,NA,NA
"experimental",17,2,"hd","upper","charcoal","w","w","g","g",1,0.725450858473778,NA,NA,NA
"experimental",17,3,"hd","upper","bettled","nw","nw","h","h",1,1.14172021951526,NA,NA,NA
"experimental",17,4,"hd","upper","flieves","nw","nw","h","h",1,2.45518599683419,NA,NA,NA
"experimental",17,5,"hd","upper","pranny","nw","nw","h","h",1,0.764091775286943,NA,NA,NA
"experimental",17,6,"hd","upper","castaway","w","w","g","g",1,1.20413972064853,NA,NA,NA
"experimental",17,7,"hd","upper","comply","w","w","g","g",1,0.834121437743306,NA,NA,NA
"experimental",17,8,"hd","upper","colored","w","w","g","g",1,1.45478725759313,NA,NA,NA
"experimental",17,9,"hd","upper","tredits","nw","nw","h","h",1,1.0748161803931,NA,NA,NA
"experimental",17,10,"hd","upper","permeable","w","w","g","g",1,1.87721942411736,NA,NA,NA
"experimental",17,11,"hd","upper","carony","nw","nw","h","h",1,0.672395248431712,NA,NA,NA
"experimental",17,12,"hd","upper","cayward","nw","nw","h","h",1,0.675840225536376,NA,NA,NA
"experimental",17,13,"hd","upper","swatches","w","w","g","g",1,1.23118972079828,NA,NA,NA
"experimental",17,14,"hd","upper","butler","w","w","g","g",1,0.916466751135886,NA,NA,NA
"experimental",17,15,"hd","upper","greft","nw","nw","h","h",1,0.758496441412717,NA,NA,NA
"experimental",17,16,"hd","upper","quickel","nw","nw","h","g",0,1.77452209079638,NA,NA,NA
"experimental",17,17,"hd","upper","coster","nw","nw","h","h",1,1.34092370606959,NA,NA,NA
"experimental",17,18,"hd","upper","hangar","w","w","g","g",1,2.65358355315402,NA,NA,NA
"experimental",17,19,"hd","upper","stifle","w","w","g","g",1,1.31353322276846,NA,NA,NA
"experimental",17,20,"hd","upper","bureaug","nw","nw","h","h",1,0.746480524074286,NA,NA,NA
"experimental",17,21,"hd","upper","pexts","nw","nw","h","h",1,0.82692359900102,NA,NA,NA
"experimental",17,22,"hd","upper","holdup","w","w","g","g",1,0.704744168557227,NA,NA,NA
"experimental",17,23,"hd","upper","gorilla","target","target","q","g",0,0.603388846386224,NA,NA,NA
"experimental",17,24,"hd","upper","borrent","aftertar1","nw","h","h",1,1.5694208201021,NA,NA,NA
"experimental",17,25,"hd","upper","rivet","aftertar2","w","g","g",1,1.31174840265885,NA,NA,NA
"experimental",17,26,"hd","upper","levels","aftertar3","w","g","g",1,0.617775468155742,NA,NA,NA
"experimental",17,27,"hd","upper","talate","w","nw","h","h",1,1.06308701774105,NA,NA,NA
"experimental",17,28,"hd","upper","teliever","nw","nw","h","h",1,1.00311700301245,NA,NA,NA
"experimental",17,29,"hd","upper","ordinary","nw","w","g","g",1,0.977245111018419,NA,NA,NA
"experimental",17,30,"hd","upper","atble","w","nw","h","h",1,0.792419492732733,NA,NA,NA
"experimental",18,1,"ld","lower","unstatle","nw","nw","h","h",1,0.854808809235692,NA,NA,NA
"experimental",18,2,"ld","lower","louches","nw","nw","h","h",1,0.770791868213564,NA,NA,NA
"experimental",18,3,"ld","lower","asclibed","nw","nw","h","h",1,0.674167390912771,NA,NA,NA
"experimental",18,4,"ld","lower","sullen","w","w","g","h",0,0.629458750132471,NA,NA,NA
"experimental",18,5,"ld","lower","dominion","w","w","g","g",1,0.730814977549016,NA,NA,NA
"experimental",18,6,"ld","lower","machinery","w","w","g","g",1,1.12421461520717,NA,NA,NA
"experimental",18,7,"ld","lower","organize","w","w","g","g",1,2.10075961006805,NA,NA,NA
"experimental",18,8,"ld","lower","halents","nw","nw","h","h",1,1.26126573467627,NA,NA,NA
"experimental",18,9,"ld","lower","erlighten","nw","nw","h","h",1,0.961085139773786,NA,NA,NA
"experimental",18,10,"ld","lower","gackpedal","nw","nw","h","h",1,1.2422976824455,NA,NA,NA
"experimental",18,11,"ld","lower","slears","nw","nw","h","h",1,0.839124850463122,NA,NA,NA
"experimental",18,12,"ld","lower","dehydrate","w","w","g","g",1,0.915806611999869,NA,NA,NA
"experimental",18,13,"ld","lower","deceit","w","w","g","g",1,0.924885258078575,NA,NA,NA
"experimental",18,14,"ld","lower","podes","nw","nw","h","h",1,0.679135185666382,NA,NA,NA
"experimental",18,15,"ld","lower","emergence","w","w","g","g",1,1.01760806422681,NA,NA,NA
"experimental",18,16,"ld","lower","expected","w","w","g","g",1,0.742842062842101,NA,NA,NA
"experimental",18,17,"ld","lower","fictional","w","w","g","g",1,1.14354216633365,NA,NA,NA
"experimental",18,18,"ld","lower","neuran","nw","nw","h","h",1,1.16016034176573,NA,NA,NA
"experimental",18,19,"ld","lower","orange","w","w","g","g",1,1.02412221953273,NA,NA,NA
"experimental",18,20,"ld","lower","doads","nw","nw","h","h",1,1.62954024877399,NA,NA,NA
"experimental",18,21,"ld","lower","saucer","w","w","g","g",1,0.770093394909054,NA,NA,NA
"experimental",18,22,"ld","lower","defensa","nw","nw","h","h",1,0.809201872441918,NA,NA,NA
"experimental",18,23,"ld","lower","clarms","nw","nw","h","h",1,1.31123526347801,NA,NA,NA
"experimental",18,24,"ld","lower","baseline","w","w","g","g",1,3.56917632371187,NA,NA,NA
"experimental",18,25,"ld","lower","edasion","nw","nw","h","h",1,0.712513704784214,NA,NA,NA
"experimental",18,26,"ld","lower","heuls","nw","nw","h","h",1,0.626505481079221,NA,NA,NA
"experimental",18,27,"ld","lower","miracle","w","w","g","g",1,0.687848294619471,NA,NA,NA
"experimental",18,28,"ld","lower","derisury","nw","nw","h","h",1,0.697254142258316,NA,NA,NA
"experimental",18,29,"ld","lower","exit","w","w","g","g",1,0.939034929964691,NA,NA,NA
"experimental",18,30,"ld","lower","stranded","w","w","g","g",1,0.692494018469006,NA,NA,NA
"experimental",19,1,"ld","lower","omners","nw","nw","h","h",1,0.880197444930673,NA,NA,NA
"experimental",19,2,"ld","lower","monopoly","w","w","g","g",1,0.723506361246109,NA,NA,NA
"experimental",19,3,"ld","lower","hostade","nw","nw","h","h",1,1.30001924047247,NA,NA,NA
"experimental",19,4,"ld","lower","couple","w","w","g","g",1,0.670618578325957,NA,NA,NA
"experimental",19,5,"ld","lower","female","w","w","g","g",1,0.649777264799923,NA,NA,NA
"experimental",19,6,"ld","lower","ragtam","nw","nw","h","h",1,0.734425971284509,NA,NA,NA
"experimental",19,7,"ld","lower","cobalt","w","w","g","g",1,0.74312428990379,NA,NA,NA
"experimental",19,8,"ld","lower","protest","w","w","g","g",1,0.615774223580956,NA,NA,NA
"experimental",19,9,"ld","lower","kettle","w","w","g","g",1,0.64573040464893,NA,NA,NA
"experimental",19,10,"ld","lower","doxing","nw","nw","h","g",0,1.35443557612598,NA,NA,NA
"experimental",19,11,"ld","lower","lonnote","nw","nw","h","h",1,1.96952356863767,NA,NA,NA
"experimental",19,12,"ld","lower","peems","nw","nw","h","h",1,0.888745443895459,NA,NA,NA
"experimental",19,13,"ld","lower","fisco","nw","nw","h","h",1,2.15543794864789,NA,NA,NA
"experimental",19,14,"ld","lower","deeper","w","w","g","g",1,0.675470765214413,NA,NA,NA
"experimental",19,15,"ld","lower","other","w","w","g","g",1,0.662832440342754,NA,NA,NA
"experimental",19,16,"ld","lower","sodent","nw","nw","h","h",1,0.665643539279699,NA,NA,NA
"experimental",19,17,"ld","lower","enabled","w","w","g","g",1,1.50190946506336,NA,NA,NA
"experimental",19,18,"ld","lower","ahead","w","w","g","g",1,0.752802705392241,NA,NA,NA
"experimental",19,19,"ld","lower","amaze","w","w","g","g",1,0.567428329028189,NA,NA,NA
"experimental",19,20,"ld","lower","gund","nw","nw","h","h",1,1.39106558915228,NA,NA,NA
"experimental",19,21,"ld","lower","solidity","w","w","g","g",1,0.789783162530512,NA,NA,NA
"experimental",19,22,"ld","lower","chiffol","nw","nw","h","h",1,0.740420648362488,NA,NA,NA
"experimental",19,23,"ld","lower","drine","nw","nw","h","h",1,0.845086022280157,NA,NA,NA
"experimental",19,24,"ld","lower","huzzles","nw","nw","h","h",1,0.961927895899862,NA,NA,NA
"experimental",19,25,"ld","lower","harder","w","w","g","g",1,0.769813281483948,NA,NA,NA
"experimental",19,26,"ld","lower","apop","nw","nw","h","h",1,0.600235452875495,NA,NA,NA
"experimental",19,27,"ld","lower","selongs","nw","nw","h","h",1,0.69477960281074,NA,NA,NA
"experimental",19,28,"ld","lower","committed","w","w","g","g",1,0.585442545358092,NA,NA,NA
"experimental",19,29,"ld","lower","facienda","nw","nw","h","h",1,0.848113243933767,NA,NA,NA
"experimental",19,30,"ld","lower","potatoes","w","w","g","g",1,1.37281442340463,NA,NA,NA
"experimental",20,1,"hd","upper","phraining","nw","nw","h","h",1,0.684016651939601,NA,NA,NA
"experimental",20,2,"hd","upper","eightiech","nw","nw","h","h",1,0.990467510186136,NA,NA,NA
"experimental",20,3,"hd","upper","century","w","w","g","g",1,2.00515507301316,NA,NA,NA
"experimental",20,4,"hd","upper","gallon","w","w","g","g",1,0.937878856901079,NA,NA,NA
"experimental",20,5,"hd","upper","smolvers","nw","nw","h","h",1,1.1710597272031,NA,NA,NA
"experimental",20,6,"hd","upper","retain","w","w","g","g",1,1.02721886569634,NA,NA,NA
"experimental",20,7,"hd","upper","arcients","nw","nw","h","g",0,0.943666466977447,NA,NA,NA
"experimental",20,8,"hd","upper","pollute","w","w","g","g",1,0.609104315750301,NA,NA,NA
"experimental",20,9,"hd","upper","fillings","w","w","g","g",1,2.17417569179088,NA,NA,NA
"experimental",20,10,"hd","upper","sheerio","nw","nw","h","h",1,0.717520135920495,NA,NA,NA
"experimental",20,11,"hd","upper","consonant","w","w","g","g",1,1.60688543971628,NA,NA,NA
"experimental",20,12,"hd","upper","dazid","nw","nw","h","h",1,1.7488195351325,NA,NA,NA
"experimental",20,13,"hd","upper","filny","nw","nw","h","h",1,2.89258976420388,NA,NA,NA
"experimental",20,14,"hd","upper","tycoon","w","w","g","g",1,0.800149185117334,NA,NA,NA
"experimental",20,15,"hd","upper","lizard","target","target","q","q",1,1.70192099548876,1,NA,NA
"experimental",20,16,"hd","upper","ugifies","aftertar1","nw","h","h",1,1.38401173148304,NA,NA,NA
"experimental",20,17,"hd","upper","system","aftertar2","w","g","g",1,0.702432324178517,NA,NA,NA
"experimental",20,18,"hd","upper","prama","aftertar3","nw","h","h",1,0.720499061979353,NA,NA,NA
"experimental",20,19,"hd","upper","jungle","nw","w","g","g",1,1.12982956878841,NA,NA,NA
"experimental",20,20,"hd","upper","rewrite","w","w","g","g",1,0.515208533033729,NA,NA,NA
"experimental",20,21,"hd","upper","irfirm","w","nw","h","h",1,0.884523512795568,NA,NA,NA
"experimental",20,22,"hd","upper","bluads","nw","nw","h","h",1,1.30275216139853,NA,NA,NA
"experimental",20,23,"hd","upper","ralliep","nw","nw","h","h",1,4.84753460343927,NA,NA,NA
"experimental",20,24,"hd","upper","tyena","nw","nw","h","h",1,0.87745516654104,NA,NA,NA
"experimental",20,25,"hd","upper","deadly","nw","w","g","g",1,0.712774500716478,NA,NA,NA
"experimental",20,26,"hd","upper","pleamed","w","nw","h","h",1,1.21085098246112,NA,NA,NA
"experimental",20,27,"hd","upper","serfume","nw","nw","h","h",1,0.831899242009968,NA,NA,NA
"experimental",20,28,"hd","upper","bedding","nw","w","g","g",1,0.902106993831694,NA,NA,NA
"experimental",20,29,"hd","upper","exploit","w","w","g","g",1,2.36741710081697,NA,NA,NA
"experimental",20,30,"hd","upper","advantage","w","w","g","g",1,0.622447150759399,NA,NA,NA
"experimental",21,1,"ld","lower","goblet","w","w","g","g",1,0.83549272781238,NA,NA,NA
"experimental",21,2,"ld","lower","dests","nw","nw","h","g",0,1.08022557711229,NA,NA,NA
"experimental",21,3,"ld","lower","manage","w","w","g","g",1,0.771439631935209,NA,NA,NA
"experimental",21,4,"ld","lower","brongs","nw","nw","h","g",0,2.05882343230769,NA,NA,NA
"experimental",21,5,"ld","lower","trembles","w","w","g","g",1,1.86289256811142,NA,NA,NA
"experimental",21,6,"ld","lower","relaying","w","w","g","g",1,1.54697277629748,NA,NA,NA
"experimental",21,7,"ld","lower","turning","w","w","g","g",1,2.54623476043344,NA,NA,NA
"experimental",21,8,"ld","lower","acting","w","w","g","g",1,1.87507751910016,NA,NA,NA
"experimental",21,9,"ld","lower","martial","w","w","g","g",1,1.03044741880149,NA,NA,NA
"experimental",21,10,"ld","lower","fomes","nw","nw","h","h",1,0.755724884103984,NA,NA,NA
"experimental",21,11,"ld","lower","huntry","nw","nw","h","g",0,1.73178903758526,NA,NA,NA
"experimental",21,12,"ld","lower","realize","w","w","g","g",1,1.65317153185606,NA,NA,NA
"experimental",21,13,"ld","lower","computer","w","w","g","g",1,0.600305481348187,NA,NA,NA
"experimental",21,14,"ld","lower","padicals","nw","nw","h","h",1,0.871768674813211,NA,NA,NA
"experimental",21,15,"ld","lower","slowning","nw","nw","h","h",1,2.3702689493075,NA,NA,NA
"experimental",21,16,"ld","lower","childhood","w","w","g","g",1,0.905475000385195,NA,NA,NA
"experimental",21,17,"ld","lower","expired","w","w","g","g",1,3.09948762739077,NA,NA,NA
"experimental",21,18,"ld","lower","ilterfere","nw","nw","h","h",1,1.16619637189433,NA,NA,NA
"experimental",21,19,"ld","lower","hutting","nw","nw","h","h",1,1.5651925499551,NA,NA,NA
"experimental",21,20,"ld","lower","rearrange","w","w","g","g",1,1.87709113908932,NA,NA,NA
"experimental",21,21,"ld","lower","blanned","nw","nw","h","h",1,1.192492056638,NA,NA,NA
"experimental",21,22,"ld","lower","border","w","w","g","g",1,2.39913787785918,NA,NA,NA
"experimental",21,23,"ld","lower","theles","nw","nw","h","h",1,1.08459903486073,NA,NA,NA
"experimental",21,24,"ld","lower","volition","w","w","g","h",0,1.07174398377538,NA,NA,NA
"experimental",21,25,"ld","lower","pircus","nw","nw","h","h",1,1.73900076048449,NA,NA,NA
"experimental",21,26,"ld","lower","dislokes","nw","nw","h","h",1,3.24359834007919,NA,NA,NA
"experimental",21,27,"ld","lower","twarfs","nw","nw","h","h",1,0.984128727577627,NA,NA,NA
"experimental",21,28,"ld","lower","veranpah","nw","nw","h","h",1,0.766957810148597,NA,NA,NA
"experimental",21,29,"ld","lower","professor","w","w","g","g",1,0.734861837700009,NA,NA,NA
"experimental",21,30,"ld","lower","brimitive","nw","nw","h","h",1,1.75151140475646,NA,NA,NA
"experimental",22,1,"hd","upper","pripend","nw","nw","h","h",1,1.81445853412151,NA,NA,NA
"experimental",22,2,"hd","upper","paterways","nw","nw","h","h",1,0.88443748652935,NA,NA,NA
"experimental",22,3,"hd","upper","cessation","w","w","g","h",0,0.79113030526787,NA,NA,NA
"experimental",22,4,"hd","upper","unsmilung","nw","nw","h","h",1,0.725861973594874,NA,NA,NA
"experimental",22,5,"hd","upper","foster","w","w","g","g",1,0.735126255545765,NA,NA,NA
"experimental",22,6,"hd","upper","rocket","w","w","g","g",1,0.758892162702978,NA,NA,NA
"experimental",22,7,"hd","upper","create","w","w","g","g",1,0.854845332447439,NA,NA,NA
"experimental",22,8,"hd","upper","birn","nw","nw","h","h",1,1.95490663778037,NA,NA,NA
"experimental",22,9,"hd","upper","sorping","nw","nw","h","h",1,0.713624199386686,NA,NA,NA
"experimental",22,10,"hd","upper","neally","nw","nw","h","h",1,0.732466381974518,NA,NA,NA
"experimental",22,11,"hd","upper","target","w","w","g","g",1,1.29427177552134,NA,NA,NA
"experimental",22,12,"hd","upper","ufionize","nw","nw","h","h",1,1.04781689075753,NA,NA,NA
"experimental",22,13,"hd","upper","rasuals","nw","nw","h","h",1,2.01344831334427,NA,NA,NA
"experimental",22,14,"hd","upper","forfeit","w","w","g","h",0,2.87455441895872,NA,NA,NA
"experimental",22,15,"hd","upper","unversed","w","w","g","h",0,2.20588680962101,NA,NA,NA
"experimental",22,16,"hd","upper","burrowing","w","w","g","g",1,0.89184329751879,NA,NA,NA
"experimental",22,17,"hd","upper","module","w","w","g","g",1,0.790499746799469,NA,NA,NA
"experimental",22,18,"hd","upper","leuter","nw","nw","h","h",1,0.64520156942308,NA,NA,NA
"experimental",22,19,"hd","upper","demise","w","w","g","g",1,0.664935406763107,NA,NA,NA
"experimental",22,20,"hd","upper","elephant","target","target","q","g",0,0.605866103433073,NA,NA,NA
"experimental",22,21,"hd","upper","blerapies","aftertar1","nw","h","h",1,0.682856352534145,NA,NA,NA
"experimental",22,22,"hd","upper","lentils","aftertar2","w","g","g",1,1.27819541562349,NA,NA,NA
"experimental",22,23,"hd","upper","gelfry","aftertar3","nw","h","h",1,1.37745893979445,NA,NA,NA
"experimental",22,24,"hd","upper","remover","nw","w","g","g",1,0.968754161149263,NA,NA,NA
"experimental",22,25,"hd","upper","melodic","w","w","g","g",1,0.744149361271411,NA,NA,NA
"experimental",22,26,"hd","upper","pariah","w","w","g","g",1,0.904861345887184,NA,NA,NA
"experimental",22,27,"hd","upper","pegend","w","nw","h","h",1,0.985915660392493,NA,NA,NA
"experimental",22,28,"hd","upper","chight","nw","nw","h","h",1,2.87125040357932,NA,NA,NA
"experimental",22,29,"hd","upper","withep","nw","nw","h","h",1,2.59577717632055,NA,NA,NA
"experimental",22,30,"hd","upper","togglo","nw","nw","h","h",1,0.610415840055794,NA,NA,NA
"experimental",23,1,"ld","lower","sprea","nw","nw","h","h",1,1.51206540223211,NA,NA,NA
"experimental",23,2,"ld","lower","dishwater","w","w","g","g",1,0.826142117846757,NA,NA,NA
"experimental",23,3,"ld","lower","gensions","nw","nw","h","h",1,1.35947913350537,NA,NA,NA
"experimental",23,4,"ld","lower","audience","w","w","g","g",1,1.2794936588034,NA,NA,NA
"experimental",23,5,"ld","lower","clypaper","nw","nw","h","h",1,0.69882434932515,NA,NA,NA
"experimental",23,6,"ld","lower","painter","w","w","g","g",1,1.00547653948888,NA,NA,NA
"experimental",23,7,"ld","lower","vented","w","w","g","g",1,2.73855282040313,NA,NA,NA
"experimental",23,8,"ld","lower","draze","nw","nw","h","h",1,3.53126738546416,NA,NA,NA
"experimental",23,9,"ld","lower","scrib","nw","nw","h","h",1,1.18054164061323,NA,NA,NA
"experimental",23,10,"ld","lower","moral","w","w","g","g",1,0.763797776773572,NA,NA,NA
"experimental",23,11,"ld","lower","nauling","nw","nw","h","h",1,0.954550760332495,NA,NA,NA
"experimental",23,12,"ld","lower","tinion","nw","nw","h","h",1,2.28957805782557,NA,NA,NA
"experimental",23,13,"ld","lower","markot","nw","nw","h","h",1,0.781573835760355,NA,NA,NA
"experimental",23,14,"ld","lower","phonology","w","w","g","g",1,1.14076879853383,NA,NA,NA
"experimental",23,15,"ld","lower","recipus","nw","nw","h","h",1,3.27752018440515,NA,NA,NA
"experimental",23,16,"ld","lower","cherry","w","w","g","g",1,3.52089502476156,NA,NA,NA
"experimental",23,17,"ld","lower","tining","nw","nw","h","h",1,1.00208921497688,NA,NA,NA
"experimental",23,18,"ld","lower","overcoat","w","w","g","g",1,2.87915124325082,NA,NA,NA
"experimental",23,19,"ld","lower","seeming","w","w","g","g",1,4.89048528857529,NA,NA,NA
"experimental",23,20,"ld","lower","release","w","w","g","g",1,1.49324223678559,NA,NA,NA
"experimental",23,21,"ld","lower","slightly","w","w","g","g",1,0.623789161909372,NA,NA,NA
"experimental",23,22,"ld","lower","pakened","nw","nw","h","h",1,0.836328843608499,NA,NA,NA
"experimental",23,23,"ld","lower","gonesty","nw","nw","h","h",1,1.0008235713467,NA,NA,NA
"experimental",23,24,"ld","lower","potter","w","w","g","g",1,6.53500696597621,NA,NA,NA
"experimental",23,25,"ld","lower","opert","nw","nw","h","h",1,0.870896035805345,NA,NA,NA
"experimental",23,26,"ld","lower","sputter","w","w","g","h",0,8.38602354051545,NA,NA,NA
"experimental",23,27,"ld","lower","encrusted","w","w","g","g",1,2.47238039737567,NA,NA,NA
"experimental",23,28,"ld","lower","welayed","nw","nw","h","h",1,0.875876205973327,NA,NA,NA
"experimental",23,29,"ld","lower","urique","nw","nw","h","h",1,0.903315286152065,NA,NA,NA
"experimental",23,30,"ld","lower","thesis","w","w","g","g",1,2.17716246563941,NA,NA,NA
"experimental",24,1,"ld","lower","volume","w","w","g","g",1,2.68029216397554,NA,NA,NA
"experimental",24,2,"ld","lower","lavilion","nw","nw","h","h",1,0.93952754419297,NA,NA,NA
"experimental",24,3,"ld","lower","bother","w","w","g","g",1,0.836229837499559,NA,NA,NA
"experimental",24,4,"ld","lower","troven","nw","nw","h","h",1,0.792996623553336,NA,NA,NA
"experimental",24,5,"ld","lower","marvel","w","w","g","g",1,0.630590675398707,NA,NA,NA
"experimental",24,6,"ld","lower","ergonomic","w","w","g","g",1,0.826719550881535,NA,NA,NA
"experimental",24,7,"ld","lower","profats","nw","nw","h","h",1,1.92848297022283,NA,NA,NA
"experimental",24,8,"ld","lower","usually","w","w","g","g",1,2.54665402602404,NA,NA,NA
"experimental",24,9,"ld","lower","dorth","nw","nw","h","h",1,1.86728866444901,NA,NA,NA
"experimental",24,10,"ld","lower","absent","w","w","g","g",1,2.94153210846707,NA,NA,NA
"experimental",24,11,"ld","lower","chemical","w","w","g","g",1,2.91025021625683,NA,NA,NA
"experimental",24,12,"ld","lower","kilotin","nw","nw","h","h",1,1.44015070656314,NA,NA,NA
"experimental",24,13,"ld","lower","plartly","nw","nw","h","h",1,4.7089694198221,NA,NA,NA
"experimental",24,14,"ld","lower","surface","w","w","g","g",1,0.789940726943314,NA,NA,NA
"experimental",24,15,"ld","lower","embrace","w","w","g","g",1,0.732558746822178,NA,NA,NA
"experimental",24,16,"ld","lower","hasks","nw","nw","h","h",1,0.725884612184018,NA,NA,NA
"experimental",24,17,"ld","lower","coyote","target","target","q","g",0,0.703246405348182,NA,NA,NA
"experimental",24,18,"ld","lower","oginous","aftertar1","nw","h","h",1,0.937277879565954,NA,NA,NA
"experimental",24,19,"ld","lower","unburnid","aftertar2","nw","h","h",1,1.56190332537517,NA,NA,NA
"experimental",24,20,"ld","lower","glattery","aftertar3","nw","h","h",1,0.881843716837466,NA,NA,NA
"experimental",24,21,"ld","lower","brimitar","nw","nw","h","h",1,0.81106456881389,NA,NA,NA
"experimental",24,22,"ld","lower","susher","nw","nw","h","g",0,2.41690125968307,NA,NA,NA
"experimental",24,23,"ld","lower","cills","nw","nw","h","h",1,0.847553921397775,NA,NA,NA
"experimental",24,24,"ld","lower","buttress","nw","w","g","h",0,2.41222504898906,NA,NA,NA
"experimental",24,25,"ld","lower","footstep","w","w","g","g",1,1.1061502918601,NA,NA,NA
"experimental",24,26,"ld","lower","elpousal","w","nw","h","h",1,1.61205909354612,NA,NA,NA
"experimental",24,27,"ld","lower","exclusion","nw","w","g","h",0,3.769135333132,NA,NA,NA
"experimental",24,28,"ld","lower","parent","w","w","g","g",1,2.05654448876157,NA,NA,NA
"experimental",24,29,"ld","lower","shurk","w","nw","h","h",1,0.972462047357112,NA,NA,NA
"experimental",24,30,"ld","lower","epic","nw","w","g","g",1,1.46781677566469,NA,NA,NA
"experimental",25,1,"hd","upper","lovud","nw","nw","h","h",1,0.710111910011619,NA,NA,NA
"experimental",25,2,"hd","upper","prominent","w","w","g","g",1,0.680157238617539,NA,NA,NA
"experimental",25,3,"hd","upper","etcess","nw","nw","h","h",1,0.843452125787735,NA,NA,NA
"experimental",25,4,"hd","upper","stalemate","w","w","g","g",1,6.3033615895547,NA,NA,NA
"experimental",25,5,"hd","upper","daining","nw","nw","h","h",1,0.95350244641304,NA,NA,NA
"experimental",25,6,"hd","upper","shimble","nw","nw","h","h",1,1.30511230090633,NA,NA,NA
"experimental",25,7,"hd","upper","summon","w","w","g","g",1,1.35509692225605,NA,NA,NA
"experimental",25,8,"hd","upper","intrude","w","w","g","g",1,1.96319897286594,NA,NA,NA
"experimental",25,9,"hd","upper","appain","nw","nw","h","h",1,6.74723332980648,NA,NA,NA
"experimental",25,10,"hd","upper","efficient","w","w","g","g",1,0.658923826180398,NA,NA,NA
"experimental",25,11,"hd","upper","cegalia","nw","nw","h","h",1,1.0788615308702,NA,NA,NA
"experimental",25,12,"hd","upper","fallint","nw","nw","h","h",1,1.57023369334638,NA,NA,NA
"experimental",25,13,"hd","upper","adok","nw","nw","h","h",1,0.569525862578303,NA,NA,NA
"experimental",25,14,"hd","upper","figure","w","w","g","g",1,0.95289150858298,NA,NA,NA
"experimental",25,15,"hd","upper","aggepting","nw","nw","h","h",1,3.86400276096538,NA,NA,NA
"experimental",25,16,"hd","upper","minister","w","w","g","g",1,0.739901169668883,NA,NA,NA
"experimental",25,17,"hd","upper","define","w","w","g","g",1,0.812385752331465,NA,NA,NA
"experimental",25,18,"hd","upper","except","w","w","g","g",1,4.98655436793342,NA,NA,NA
"experimental",25,19,"hd","upper","fuintets","nw","nw","h","h",1,0.889104339759797,NA,NA,NA
"experimental",25,20,"hd","upper","mamps","nw","nw","h","h",1,0.923852941952646,NA,NA,NA
"experimental",25,21,"hd","upper","tragedy","w","w","g","g",1,1.09225296368822,NA,NA,NA
"experimental",25,22,"hd","upper","record","w","w","g","g",1,3.83091220259666,NA,NA,NA
"experimental",25,23,"hd","upper","antique","w","w","g","g",1,0.860245975665748,NA,NA,NA
"experimental",25,24,"hd","upper","triplet","w","w","g","g",1,0.816105108708143,NA,NA,NA
"experimental",25,25,"hd","upper","calming","w","w","g","g",1,2.40615008072928,NA,NA,NA
"experimental",25,26,"hd","upper","mabit","nw","nw","h","h",1,1.35614765062928,NA,NA,NA
"experimental",25,27,"hd","upper","caterpillar","target","target","q","q",1,1.75619002990425,1,NA,NA
"experimental",25,28,"hd","upper","topefuls","aftertar1","nw","h","h",1,8.39524677116424,NA,NA,NA
"experimental",25,29,"hd","upper","egect","aftertar2","nw","h","h",1,0.705859492532909,NA,NA,NA
"experimental",25,30,"hd","upper","hotplate","aftertar3","w","g","g",1,2.56293805642053,NA,NA,NA
"experimental",26,1,"hd","upper","buaint","nw","nw","h","h",1,0.810874103568494,NA,NA,NA
"experimental",26,2,"hd","upper","rarely","w","w","g","g",1,0.728851162828505,NA,NA,NA
"experimental",26,3,"hd","upper","bloodless","w","w","g","g",1,0.786167642101645,NA,NA,NA
"experimental",26,4,"hd","upper","turntable","w","w","g","g",1,1.4079847051762,NA,NA,NA
"experimental",26,5,"hd","upper","reddar","nw","nw","h","h",1,2.66998741636053,NA,NA,NA
"experimental",26,6,"hd","upper","cripet","nw","nw","h","h",1,0.857132425531745,NA,NA,NA
"experimental",26,7,"hd","upper","ounside","nw","nw","h","h",1,2.37321195518598,NA,NA,NA
"experimental",26,8,"hd","upper","bloves","nw","nw","h","h",1,0.988430346362293,NA,NA,NA
"experimental",26,9,"hd","upper","confined","w","w","g","g",1,4.10715242335573,NA,NA,NA
"experimental",26,10,"hd","upper","etber","nw","nw","h","h",1,3.22022302309051,NA,NA,NA
"experimental",26,11,"hd","upper","wrecber","nw","nw","h","h",1,2.30421068472788,NA,NA,NA
"experimental",26,12,"hd","upper","scrooner","nw","nw","h","h",1,1.41024463251233,NA,NA,NA
"experimental",26,13,"hd","upper","elbalm","nw","nw","h","h",1,0.686996181495488,NA,NA,NA
"experimental",26,14,"hd","upper","aqueduct","w","w","g","g",1,0.784956934861839,NA,NA,NA
"experimental",26,15,"hd","upper","fidelity","w","w","g","g",1,1.59246410569176,NA,NA,NA
"experimental",26,16,"hd","upper","senior","w","w","g","g",1,2.14326476957649,NA,NA,NA
"experimental",26,17,"hd","upper","superstar","w","w","g","g",1,0.615709327161312,NA,NA,NA
"experimental",26,18,"hd","upper","nores","nw","nw","h","h",1,0.565753079485148,NA,NA,NA
"experimental",26,19,"hd","upper","deserve","w","w","g","g",1,0.973851749673486,NA,NA,NA
"experimental",26,20,"hd","upper","guitar","w","w","g","g",1,0.9811404440552,NA,NA,NA
"experimental",26,21,"hd","upper","snocks","nw","nw","h","g",0,0.724532338790596,NA,NA,NA
"experimental",26,22,"hd","upper","pressures","w","w","g","g",1,1.02986908052117,NA,NA,NA
"experimental",26,23,"hd","upper","permute","w","w","g","g",1,6.80219057528302,NA,NA,NA
"experimental",26,24,"hd","upper","snife","nw","nw","h","h",1,0.760260132141411,NA,NA,NA
"experimental",26,25,"hd","upper","regards","w","w","g","g",1,0.712188314180821,NA,NA,NA
"experimental",26,26,"hd","upper","frowsed","nw","nw","h","h",1,1.08224100805819,NA,NA,NA
"experimental",26,27,"hd","upper","guffy","nw","nw","h","h",1,0.772556766401976,NA,NA,NA
"experimental",26,28,"hd","upper","setwixt","nw","nw","h","h",1,0.644871650729328,NA,NA,NA
"experimental",26,29,"hd","upper","casino","w","w","g","g",1,3.83250142587349,NA,NA,NA
"experimental",26,30,"hd","upper","aligning","w","w","g","g",1,0.628800724167377,NA,NA,NA
"experimental",27,1,"hd","upper","breiled","nw","nw","h","h",1,0.779241163749248,NA,NA,NA
"experimental",27,2,"hd","upper","stelled","nw","nw","h","h",1,0.89748994493857,NA,NA,NA
"experimental",27,3,"hd","upper","nameplate","w","w","g","g",1,0.932149201165885,NA,NA,NA
"experimental",27,4,"hd","upper","erithets","nw","nw","h","h",1,0.917470995336771,NA,NA,NA
"experimental",27,5,"hd","upper","unamufed","nw","nw","h","h",1,2.9828310883604,NA,NA,NA
"experimental",27,6,"hd","upper","abhorrent","w","w","g","g",1,0.90209039254114,NA,NA,NA
"experimental",27,7,"hd","upper","urgency","w","w","g","g",1,0.687345116399229,NA,NA,NA
"experimental",27,8,"hd","upper","describe","w","w","g","g",1,0.914778522215784,NA,NA,NA
"experimental",27,9,"hd","upper","hangar","w","w","g","g",1,2.25184056861326,NA,NA,NA
"experimental",27,10,"hd","upper","budget","w","w","g","g",1,0.855855009984225,NA,NA,NA
"experimental",27,11,"hd","upper","publish","w","w","g","g",1,3.147913813591,NA,NA,NA
"experimental",27,12,"hd","upper","previous","w","w","g","g",1,0.652519543189555,NA,NA,NA
"experimental",27,13,"hd","upper","moozy","nw","nw","h","h",1,0.720589314121753,NA,NA,NA
"experimental",27,14,"hd","upper","infusion","w","w","g","g",1,0.857891268562526,NA,NA,NA
"experimental",27,15,"hd","upper","grieving","w","w","g","g",1,0.580917258746922,NA,NA,NA
"experimental",27,16,"hd","upper","mosary","nw","nw","h","h",1,2.37221676623449,NA,NA,NA
"experimental",27,17,"hd","upper","currowing","nw","nw","h","h",1,0.978683712892234,NA,NA,NA
"experimental",27,18,"hd","upper","slooch","nw","nw","h","h",1,0.738672955427319,NA,NA,NA
"experimental",27,19,"hd","upper","alomalous","nw","nw","h","h",1,0.779620283283293,NA,NA,NA
"experimental",27,20,"hd","upper","hecture","nw","nw","h","h",1,1.1388569008559,NA,NA,NA
"experimental",27,21,"hd","upper","pracking","nw","nw","h","h",1,1.16258236020803,NA,NA,NA
"experimental",27,22,"hd","upper","condensed","w","w","g","g",1,3.21852060733363,NA,NA,NA
"experimental",27,23,"hd","upper","shazer","nw","nw","h","h",1,1.15995599143207,NA,NA,NA
"experimental",27,24,"hd","upper","legalize","w","w","g","g",1,2.39187695318833,NA,NA,NA
"experimental",27,25,"hd","upper","wienegs","nw","nw","h","h",1,0.686562125571072,NA,NA,NA
"experimental",27,26,"hd","upper","nimono","nw","nw","h","h",1,1.50515250721946,NA,NA,NA
"experimental",27,27,"hd","upper","ringlat","nw","nw","h","h",1,1.48316810000688,NA,NA,NA
"experimental",27,28,"hd","upper","squirrel","target","target","q","g",0,0.781428949441761,NA,NA,NA
"experimental",27,29,"hd","upper","scarlet","aftertar1","w","g","g",1,3.23683727392927,NA,NA,NA
"experimental",27,30,"hd","upper","humanize","aftertar2","w","g","g",1,2.11364665674046,NA,NA,NA
"experimental",28,1,"ld","lower","ireology","nw","nw","h","h",1,0.914495087694377,NA,NA,NA
"experimental",28,2,"ld","lower","handcuff","w","w","g","g",1,4.06114795384929,NA,NA,NA
"experimental",28,3,"ld","lower","addition","w","w","g","g",1,0.953278778120875,NA,NA,NA
"experimental",28,4,"ld","lower","deakers","nw","nw","h","h",1,0.70515437843278,NA,NA,NA
"experimental",28,5,"ld","lower","thamp","nw","nw","h","h",1,1.57917228201404,NA,NA,NA
"experimental",28,6,"ld","lower","sopes","nw","nw","h","h",1,1.21744422148913,NA,NA,NA
"experimental",28,7,"ld","lower","cartles","nw","nw","h","h",1,1.65484285727143,NA,NA,NA
"experimental",28,8,"ld","lower","probable","w","w","g","g",1,1.70686343545094,NA,NA,NA
"experimental",28,9,"ld","lower","tusied","nw","nw","h","h",1,0.820856176782399,NA,NA,NA
"experimental",28,10,"ld","lower","statute","w","w","g","g",1,2.01020044181496,NA,NA,NA
"experimental",28,11,"ld","lower","fraft","nw","nw","h","h",1,5.11918735690415,NA,NA,NA
"experimental",28,12,"ld","lower","brank","nw","nw","h","h",1,1.09661253727973,NA,NA,NA
"experimental",28,13,"ld","lower","formation","w","w","g","g",1,1.0352193149738,NA,NA,NA
"experimental",28,14,"ld","lower","smabled","nw","nw","h","h",1,3.4479196392931,NA,NA,NA
"experimental",28,15,"ld","lower","widely","w","w","g","g",1,5.32242110185325,NA,NA,NA
"experimental",28,16,"ld","lower","splatter","w","w","g","g",1,0.748835835140198,NA,NA,NA
"experimental",28,17,"ld","lower","army","w","w","g","g",1,0.693414047826082,NA,NA,NA
"experimental",28,18,"ld","lower","porghum","nw","nw","h","h",1,0.71213126508519,NA,NA,NA
"experimental",28,19,"ld","lower","entropy","w","w","g","g",1,1.17818904668093,NA,NA,NA
"experimental",28,20,"ld","lower","addma","nw","nw","h","h",1,2.34548612032086,NA,NA,NA
"experimental",28,21,"ld","lower","loneliest","w","w","g","g",1,0.745210353285074,NA,NA,NA
"experimental",28,22,"ld","lower","digar","nw","nw","h","h",1,0.706774390302598,NA,NA,NA
"experimental",28,23,"ld","lower","usage","w","w","g","g",1,0.747751601506025,NA,NA,NA
"experimental",28,24,"ld","lower","party","w","w","g","g",1,6.5405853963457,NA,NA,NA
"experimental",28,25,"ld","lower","inducing","w","w","g","g",1,1.15712979948148,NA,NA,NA
"experimental",28,26,"ld","lower","glocked","nw","nw","h","g",0,1.13316678721458,NA,NA,NA
"experimental",28,27,"ld","lower","enacted","w","w","g","g",1,2.24547401629388,NA,NA,NA
"experimental",28,28,"ld","lower","plymie","nw","nw","h","h",1,1.14613744523376,NA,NA,NA
"experimental",28,29,"ld","lower","bulmed","nw","nw","h","h",1,1.30566075677052,NA,NA,NA
"experimental",28,30,"ld","lower","staircase","w","w","g","g",1,0.939565878361464,NA,NA,NA
"experimental",29,1,"ld","lower","maintain","w","w","g","g",1,3.68408456724137,NA,NA,NA
"experimental",29,2,"ld","lower","shamrock","w","w","g","g",1,0.679139411542565,NA,NA,NA
"experimental",29,3,"ld","lower","cavern","w","w","g","g",1,0.842465690337121,NA,NA,NA
"experimental",29,4,"ld","lower","patio","w","w","g","g",1,3.80714539019391,NA,NA,NA
"experimental",29,5,"ld","lower","latpin","nw","nw","h","h",1,0.916263608261943,NA,NA,NA
"experimental",29,6,"ld","lower","schinter","nw","nw","h","h",1,2.18213297659531,NA,NA,NA
"experimental",29,7,"ld","lower","company","w","w","g","g",1,8.3815927314572,NA,NA,NA
"experimental",29,8,"ld","lower","ottans","nw","nw","h","h",1,0.907991798594594,NA,NA,NA
"experimental",29,9,"ld","lower","collute","nw","nw","h","h",1,1.5269265267998,NA,NA,NA
"experimental",29,10,"ld","lower","infested","w","w","g","g",1,2.22206428833306,NA,NA,NA
"experimental",29,11,"ld","lower","lightels","nw","nw","h","h",1,1.01220651576295,NA,NA,NA
"experimental",29,12,"ld","lower","arrow","w","w","g","g",1,5.78670885367319,NA,NA,NA
"experimental",29,13,"ld","lower","nomma","nw","nw","h","h",1,1.04111860832199,NA,NA,NA
"experimental",29,14,"ld","lower","hegacy","nw","nw","h","h",1,0.652777319774032,NA,NA,NA
"experimental",29,15,"ld","lower","diatonic","w","w","g","g",1,1.39286731276661,NA,NA,NA
"experimental",29,16,"ld","lower","surdens","nw","nw","h","h",1,0.89541022060439,NA,NA,NA
"experimental",29,17,"ld","lower","oldest","w","w","g","g",1,0.746163585223258,NA,NA,NA
"experimental",29,18,"ld","lower","arbitrary","w","w","g","g",1,1.41088696196675,NA,NA,NA
"experimental",29,19,"ld","lower","owner","w","w","g","g",1,6.10391270183027,NA,NA,NA
"experimental",29,20,"ld","lower","ignore","w","w","g","g",1,0.657875814009458,NA,NA,NA
"experimental",29,21,"ld","lower","batire","nw","nw","h","h",1,0.901898417621851,NA,NA,NA
"experimental",29,22,"ld","lower","corg","nw","nw","h","h",1,0.831846720539033,NA,NA,NA
"experimental",29,23,"ld","lower","slimped","nw","nw","h","h",1,2.29333786154166,NA,NA,NA
"experimental",29,24,"ld","lower","catgup","nw","nw","h","h",1,3.00697430362925,NA,NA,NA
"experimental",29,25,"ld","lower","elalt","nw","nw","h","h",1,0.699964425060898,NA,NA,NA
"experimental",29,26,"ld","lower","phambled","nw","nw","h","h",1,0.879349858500063,NA,NA,NA
"experimental",29,27,"ld","lower","elderly","w","w","g","g",1,0.978881422895938,NA,NA,NA
"experimental",29,28,"ld","lower","antwers","nw","nw","h","h",1,0.898146461695433,NA,NA,NA
"experimental",29,29,"ld","lower","expensive","w","w","g","g",1,0.788832345511764,NA,NA,NA
"experimental",29,30,"ld","lower","unspoken","w","w","g","g",1,5.57860481040552,NA,NA,NA
"experimental",30,1,"hd","upper","olgies","nw","nw","h","h",1,0.794455147348344,NA,NA,NA
"experimental",30,2,"hd","upper","lanthers","nw","nw","h","h",1,0.737146818079054,NA,NA,NA
"experimental",30,3,"hd","upper","divider","w","w","g","g",1,0.705841985531151,NA,NA,NA
"experimental",30,4,"hd","upper","igiom","nw","nw","h","h",1,0.731790848542005,NA,NA,NA
"experimental",30,5,"hd","upper","heaviest","w","w","g","g",1,0.852186062373221,NA,NA,NA
"experimental",30,6,"hd","upper","vorm","nw","nw","h","h",1,1.75213381275535,NA,NA,NA
"experimental",30,7,"hd","upper","fudden","nw","nw","h","h",1,1.45609093364328,NA,NA,NA
"experimental",30,8,"hd","upper","cervical","w","w","g","g",1,1.99610027298331,NA,NA,NA
"experimental",30,9,"hd","upper","valif","nw","nw","h","h",1,0.713592807296664,NA,NA,NA
"experimental",30,10,"hd","upper","aefated","nw","nw","h","h",1,1.12398189119995,NA,NA,NA
"experimental",30,11,"hd","upper","mustled","nw","nw","h","g",0,5.31392532167956,NA,NA,NA
"experimental",30,12,"hd","upper","design","w","w","g","g",1,0.635769159067422,NA,NA,NA
"experimental",30,13,"hd","upper","temelity","nw","nw","h","h",1,1.08837483590469,NA,NA,NA
"experimental",30,14,"hd","upper","fivalve","nw","nw","h","h",1,1.53116173949093,NA,NA,NA
"experimental",30,15,"hd","upper","surfaced","w","w","g","g",1,2.28451638948172,NA,NA,NA
"experimental",30,16,"hd","upper","equitable","w","w","g","g",1,4.72624290455133,NA,NA,NA
"experimental",30,17,"hd","upper","extend","w","w","g","g",1,0.935419409070164,NA,NA,NA
"experimental",30,18,"hd","upper","bickering","w","w","g","g",1,1.16820787917823,NA,NA,NA
"experimental",30,19,"hd","upper","congraks","nw","nw","h","g",0,0.615493204910308,NA,NA,NA
"experimental",30,20,"hd","upper","mubby","nw","nw","h","h",1,0.74949718080461,NA,NA,NA
"experimental",30,21,"hd","upper","combat","w","w","g","h",0,2.04622615780681,NA,NA,NA
"experimental",30,22,"hd","upper","actively","w","w","g","g",1,0.78694851975888,NA,NA,NA
"experimental",30,23,"hd","upper","upstairs","w","w","g","g",1,0.608559783548117,NA,NA,NA
"experimental",30,24,"hd","upper","dolphin","target","target","q","g",0,0.726603611372411,NA,NA,NA
"experimental",30,25,"hd","upper","nogwhell","aftertar1","nw","h","h",1,3.73464330052957,NA,NA,NA
"experimental",30,26,"hd","upper","hubris","aftertar2","w","g","h",0,0.69662509392947,NA,NA,NA
"experimental",30,27,"hd","upper","aicline","aftertar3","nw","h","h",1,1.54717290075496,NA,NA,NA
"experimental",30,28,"hd","upper","chonemic","nw","nw","h","h",1,0.754998640622944,NA,NA,NA
"experimental",30,29,"hd","upper","remain","nw","w","g","g",1,0.706872792448848,NA,NA,NA
"experimental",30,30,"hd","upper","filter","w","w","g","g",1,0.652832860127091,NA,NA,NA
"experimental",31,1,"ld","lower","trecious","nw","nw","h","h",1,1.00946363387629,NA,NA,NA
"experimental",31,2,"ld","lower","mennel","nw","nw","h","h",1,0.67941952496767,NA,NA,NA
"experimental",31,3,"ld","lower","dumult","nw","nw","h","h",1,0.706835061311722,NA,NA,NA
"experimental",31,4,"ld","lower","checkout","w","w","g","g",1,2.64385321969166,NA,NA,NA
"experimental",31,5,"ld","lower","preclude","w","w","g","g",1,0.568492037244141,NA,NA,NA
"experimental",31,6,"ld","lower","demon","w","w","g","g",1,0.67183109652251,NA,NA,NA
"experimental",31,7,"ld","lower","cogantly","nw","nw","h","h",1,0.851188760716468,NA,NA,NA
"experimental",31,8,"ld","lower","spiud","nw","nw","h","h",1,0.695142422337085,NA,NA,NA
"experimental",31,9,"ld","lower","amplifier","w","w","g","g",1,0.81787513801828,NA,NA,NA
"experimental",31,10,"ld","lower","baladroit","nw","nw","h","h",1,0.719066195655614,NA,NA,NA
"experimental",31,11,"ld","lower","airbis","nw","nw","h","h",1,0.744484411552548,NA,NA,NA
"experimental",31,12,"ld","lower","fragment","w","w","g","g",1,0.678971584420651,NA,NA,NA
"experimental",31,13,"ld","lower","acidic","w","w","g","g",1,0.754568811040372,NA,NA,NA
"experimental",31,14,"ld","lower","thorifies","nw","nw","h","h",1,0.787300775293261,NA,NA,NA
"experimental",31,15,"ld","lower","arrive","w","w","g","g",1,0.786053544376045,NA,NA,NA
"experimental",31,16,"ld","lower","itfidels","nw","nw","h","h",1,0.808781097643077,NA,NA,NA
"experimental",31,17,"ld","lower","calcify","w","w","g","g",1,0.894731367472559,NA,NA,NA
"experimental",31,18,"ld","lower","mandlers","nw","nw","h","h",1,0.841443033423275,NA,NA,NA
"experimental",31,19,"ld","lower","larger","w","w","g","g",1,0.701994344592094,NA,NA,NA
"experimental",31,20,"ld","lower","presence","w","w","g","g",1,0.776165043003857,NA,NA,NA
"experimental",31,21,"ld","lower","supplier","w","w","g","g",1,0.734286215621978,NA,NA,NA
"experimental",31,22,"ld","lower","atch","nw","nw","h","h",1,1.14371572853997,NA,NA,NA
"experimental",31,23,"ld","lower","rudder","w","w","g","g",1,1.03238044586033,NA,NA,NA
"experimental",31,24,"ld","lower","ascending","w","w","g","g",1,1.34989700699225,NA,NA,NA
"experimental",31,25,"ld","lower","maroon","w","w","g","g",1,0.678454822860658,NA,NA,NA
"experimental",31,26,"ld","lower","hivinity","nw","nw","h","h",1,1.61778573086485,NA,NA,NA
"experimental",31,27,"ld","lower","carbled","nw","nw","h","h",1,1.27914804406464,NA,NA,NA
"experimental",31,28,"ld","lower","oleandur","nw","nw","h","h",1,0.737580269575119,NA,NA,NA
"experimental",31,29,"ld","lower","beggarlan","nw","nw","h","h",1,0.84217440802604,NA,NA,NA
"experimental",31,30,"ld","lower","hindsight","w","w","g","g",1,0.854776813648641,NA,NA,NA
"experimental",32,1,"hd","upper","glating","nw","nw","h","h",1,0.825682707130909,NA,NA,NA
"experimental",32,2,"hd","upper","rodeo","w","w","g","g",1,0.792655234690756,NA,NA,NA
"experimental",32,3,"hd","upper","frequency","w","w","g","g",1,0.661980930250138,NA,NA,NA
"experimental",32,4,"hd","upper","preight","nw","nw","h","h",1,0.970486158039421,NA,NA,NA
"experimental",32,5,"hd","upper","measure","w","w","g","g",1,0.945837650913745,NA,NA,NA
"experimental",32,6,"hd","upper","walsams","nw","nw","h","h",1,0.778460889589041,NA,NA,NA
"experimental",32,7,"hd","upper","eaglot","nw","nw","h","h",1,1.31380518712103,NA,NA,NA
"experimental",32,8,"hd","upper","recount","w","w","g","g",1,1.2038931120187,NA,NA,NA
"experimental",32,9,"hd","upper","caution","w","w","g","g",1,0.721012805122882,NA,NA,NA
"experimental",32,10,"hd","upper","poughest","nw","nw","h","h",1,1.37032750761136,NA,NA,NA
"experimental",32,11,"hd","upper","noils","nw","nw","h","g",0,1.4494427582249,NA,NA,NA
"experimental",32,12,"hd","upper","column","w","w","g","g",1,1.15032013645396,NA,NA,NA
"experimental",32,13,"hd","upper","abstain","w","w","g","g",1,0.902800637297332,NA,NA,NA
"experimental",32,14,"hd","upper","presently","w","w","g","g",1,0.648809242062271,NA,NA,NA
"experimental",32,15,"hd","upper","yellep","nw","nw","h","h",1,0.965497233904898,NA,NA,NA
"experimental",32,16,"hd","upper","listless","w","w","g","g",1,2.27754101157188,NA,NA,NA
"experimental",32,17,"hd","upper","removable","w","w","g","g",1,1.24785498389974,NA,NA,NA
"experimental",32,18,"hd","upper","rualify","nw","nw","h","h",1,1.00445418432355,NA,NA,NA
"experimental",32,19,"hd","upper","trophy","w","w","g","g",1,0.690435121767223,NA,NA,NA
"experimental",32,20,"hd","upper","sarlock","nw","nw","h","h",1,0.803948229178786,NA,NA,NA
"experimental",32,21,"hd","upper","prohibit","w","w","g","g",1,0.609908435493708,NA,NA,NA
"experimental",32,22,"hd","upper","riosk","nw","nw","h","h",1,0.736486678943038,NA,NA,NA
"experimental",32,23,"hd","upper","glassware","w","w","g","g",1,0.697690009139478,NA,NA,NA
"experimental",32,24,"hd","upper","kangaroo","target","target","q","g",0,0.787614695262164,NA,NA,NA
"experimental",32,25,"hd","upper","arrested","aftertar1","w","g","g",1,1.61816183198243,NA,NA,NA
"experimental",32,26,"hd","upper","roodies","aftertar2","nw","h","h",1,1.5995590146631,NA,NA,NA
"experimental",32,27,"hd","upper","vopings","aftertar3","nw","h","h",1,2.07015687320381,NA,NA,NA
"experimental",32,28,"hd","upper","awful","nw","w","g","g",1,2.21750217629597,NA,NA,NA
"experimental",32,29,"hd","upper","incidonts","w","nw","h","h",1,0.926794136874378,NA,NA,NA
"experimental",32,30,"hd","upper","yearnungs","nw","nw","h","h",1,2.13614903297275,NA,NA,NA
"experimental",33,1,"ld","lower","oppose","w","w","g","g",1,0.680443691089749,NA,NA,NA
"experimental",33,2,"ld","lower","apticle","nw","nw","h","h",1,0.843798042275012,NA,NA,NA
"experimental",33,3,"ld","lower","elvisages","nw","nw","h","h",1,0.83244920661673,NA,NA,NA
"experimental",33,4,"ld","lower","twenties","w","w","g","g",1,0.628911199979484,NA,NA,NA
"experimental",33,5,"ld","lower","carnival","w","w","g","g",1,0.531172605697066,NA,NA,NA
"experimental",33,6,"ld","lower","ezulated","nw","nw","h","h",1,0.71552764531225,NA,NA,NA
"experimental",33,7,"ld","lower","imprives","nw","nw","h","g",0,0.860301213338971,NA,NA,NA
"experimental",33,8,"ld","lower","resent","w","w","g","g",1,0.640510266646743,NA,NA,NA
"experimental",33,9,"ld","lower","unbridled","w","w","g","h",0,1.55791653320193,NA,NA,NA
"experimental",33,10,"ld","lower","catacomb","w","w","g","g",1,0.766140409279615,NA,NA,NA
"experimental",33,11,"ld","lower","peanimate","nw","nw","h","h",1,1.15031319390982,NA,NA,NA
"experimental",33,12,"ld","lower","preserve","w","w","g","g",1,0.806729747448117,NA,NA,NA
"experimental",33,13,"ld","lower","knowledge","w","w","g","g",1,0.548872297629714,NA,NA,NA
"experimental",33,14,"ld","lower","attrove","nw","nw","h","h",1,0.820565800182521,NA,NA,NA
"experimental",33,15,"ld","lower","tiery","nw","nw","h","h",1,0.96184217184782,NA,NA,NA
"experimental",33,16,"ld","lower","contusiok","nw","nw","h","h",1,1.05784575035796,NA,NA,NA
"experimental",33,17,"ld","lower","joadbed","nw","nw","h","h",1,0.829848192632198,NA,NA,NA
"experimental",33,18,"ld","lower","sengry","nw","nw","h","h",1,1.29118780652061,NA,NA,NA
"experimental",33,19,"ld","lower","recollect","w","w","g","g",1,0.885821755975485,NA,NA,NA
"experimental",33,20,"ld","lower","vibrate","w","w","g","g",1,0.784474885091186,NA,NA,NA
"experimental",33,21,"ld","lower","imotope","nw","nw","h","h",1,1.24723227368668,NA,NA,NA
"experimental",33,22,"ld","lower","alticles","nw","nw","h","h",1,0.922797685489058,NA,NA,NA
"experimental",33,23,"ld","lower","peadgear","nw","nw","h","h",1,0.916166413575411,NA,NA,NA
"experimental",33,24,"ld","lower","egpended","nw","nw","h","h",1,0.790199107956141,NA,NA,NA
"experimental",33,25,"ld","lower","chrik","nw","nw","h","h",1,0.652903793845326,NA,NA,NA
"experimental",33,26,"ld","lower","insole","w","w","g","g",1,0.816877534613013,NA,NA,NA
"experimental",33,27,"ld","lower","strenuous","w","w","g","g",1,0.838895446620882,NA,NA,NA
"experimental",33,28,"ld","lower","sunshine","w","w","g","g",1,0.739525370299816,NA,NA,NA
"experimental",33,29,"ld","lower","parody","w","w","g","g",1,0.954961573705077,NA,NA,NA
"experimental",33,30,"ld","lower","revising","w","w","g","g",1,0.73839133232832,NA,NA,NA
"experimental",34,1,"ld","lower","ganter","nw","nw","h","h",1,0.884422997478396,NA,NA,NA
"experimental",34,2,"ld","lower","desert","w","w","g","g",1,1.11117573920637,NA,NA,NA
"experimental",34,3,"ld","lower","bingu","nw","nw","h","g",0,0.832212256733328,NA,NA,NA
"experimental",34,4,"ld","lower","forbid","w","w","g","g",1,0.917544947937131,NA,NA,NA
"experimental",34,5,"ld","lower","priant","nw","nw","h","h",1,1.14210869604722,NA,NA,NA
"experimental",34,6,"ld","lower","garment","w","w","g","g",1,0.934827789664268,NA,NA,NA
"experimental",34,7,"ld","lower","grenavier","nw","nw","h","h",1,0.926843942143023,NA,NA,NA
"experimental",34,8,"ld","lower","result","w","w","g","g",1,0.640171896200627,NA,NA,NA
"experimental",34,9,"ld","lower","culinary","w","w","g","g",1,1.40489771822467,NA,NA,NA
"experimental",34,10,"ld","lower","shockwave","w","w","g","g",1,1.8580120075494,NA,NA,NA
"experimental",34,11,"ld","lower","schides","nw","nw","h","h",1,1.68585278559476,NA,NA,NA
"experimental",34,12,"ld","lower","ebuating","nw","nw","h","h",1,0.68053394369781,NA,NA,NA
"experimental",34,13,"ld","lower","airmen","w","w","g","g",1,1.73993829684332,NA,NA,NA
"experimental",34,14,"ld","lower","bookend","w","w","g","g",1,0.772544994484633,NA,NA,NA
"experimental",34,15,"ld","lower","pillage","w","w","g","h",0,1.33862665202469,NA,NA,NA
"experimental",34,16,"ld","lower","otiates","nw","nw","h","h",1,0.858402295503765,NA,NA,NA
"experimental",34,17,"ld","lower","undue","w","w","g","g",1,1.46314871544018,NA,NA,NA
"experimental",34,18,"ld","lower","bypassed","w","w","g","g",1,1.0124790831469,NA,NA,NA
"experimental",34,19,"ld","lower","sunhess","nw","nw","h","h",1,1.12151942448691,NA,NA,NA
"experimental",34,20,"ld","lower","chicken","target","target","q","g",0,0.810858407523483,NA,NA,NA
"experimental",34,21,"ld","lower","atsless","aftertar1","nw","h","h",1,1.264800964389,NA,NA,NA
"experimental",34,22,"ld","lower","rillains","aftertar2","nw","h","h",1,1.86879005050287,NA,NA,NA
"experimental",34,23,"ld","lower","ausht","aftertar3","nw","h","h",1,1.19215247919783,NA,NA,NA
"experimental",34,24,"ld","lower","miurnal","nw","nw","h","h",1,1.07798496820033,NA,NA,NA
"experimental",34,25,"ld","lower","havel","nw","nw","h","h",1,2.62520301202312,NA,NA,NA
"experimental",34,26,"ld","lower","bamboo","nw","w","g","g",1,0.838502744212747,NA,NA,NA
"experimental",34,27,"ld","lower","massacre","w","w","g","g",1,0.779187737032771,NA,NA,NA
"experimental",34,28,"ld","lower","official","w","w","g","g",1,0.898501131683588,NA,NA,NA
"experimental",34,29,"ld","lower","encounter","w","w","g","g",1,2.02924184314907,NA,NA,NA
"experimental",34,30,"ld","lower","smallash","w","nw","h","h",1,2.66562090069056,NA,NA,NA
"experimental",35,1,"hd","upper","potent","w","w","g","g",1,1.22127858130261,NA,NA,NA
"experimental",35,2,"hd","upper","brials","nw","nw","h","h",1,1.14749092655256,NA,NA,NA
"experimental",35,3,"hd","upper","nostril","w","w","g","g",1,1.07527770427987,NA,NA,NA
"experimental",35,4,"hd","upper","disperse","w","w","g","g",1,1.18348042108119,NA,NA,NA
"experimental",35,5,"hd","upper","prillway","nw","nw","h","h",1,2.12588020553812,NA,NA,NA
"experimental",35,6,"hd","upper","walnut","w","w","g","g",1,0.85524377040565,NA,NA,NA
"experimental",35,7,"hd","upper","fassed","nw","nw","h","h",1,1.19522075168788,NA,NA,NA
"experimental",35,8,"hd","upper","etuip","nw","nw","h","h",1,0.769817205145955,NA,NA,NA
"experimental",35,9,"hd","upper","prame","nw","nw","h","h",1,1.52915838267654,NA,NA,NA
"experimental",35,10,"hd","upper","legalosm","nw","nw","h","h",1,0.930506852455437,NA,NA,NA
"experimental",35,11,"hd","upper","leather","w","w","g","g",1,1.0028435299173,NA,NA,NA
"experimental",35,12,"hd","upper","duries","nw","nw","h","h",1,4.29689844604582,NA,NA,NA
"experimental",35,13,"hd","upper","poyride","nw","nw","h","h",1,2.77155976649374,NA,NA,NA
"experimental",35,14,"hd","upper","crudios","nw","nw","h","h",1,1.77894263761118,NA,NA,NA
"experimental",35,15,"hd","upper","tunneg","nw","nw","h","h",1,0.777334397193044,NA,NA,NA
"experimental",35,16,"hd","upper","uncorked","w","w","g","g",1,1.29756069835275,NA,NA,NA
"experimental",35,17,"hd","upper","hatred","w","w","g","g",1,0.761963151860982,NA,NA,NA
"experimental",35,18,"hd","upper","fuestion","nw","nw","h","h",1,0.874423417262733,NA,NA,NA
"experimental",35,19,"hd","upper","rabbit","target","target","q","g",0,1.94237546809018,NA,NA,NA
"experimental",35,20,"hd","upper","rarren","aftertar1","nw","h","h",1,1.49512545857579,NA,NA,NA
"experimental",35,21,"hd","upper","icepick","aftertar2","w","g","h",0,1.40983110200614,NA,NA,NA
"experimental",35,22,"hd","upper","entitle","aftertar3","w","g","g",1,0.830899223219603,NA,NA,NA
"experimental",35,23,"hd","upper","bumbo","w","nw","h","h",1,1.66013936325908,NA,NA,NA
"experimental",35,24,"hd","upper","terrify","nw","w","g","g",1,1.32817460317165,NA,NA,NA
"experimental",35,25,"hd","upper","engineer","w","w","g","g",1,0.889510625507683,NA,NA,NA
"experimental",35,26,"hd","upper","buzzer","w","w","g","g",1,0.956224501132965,NA,NA,NA
"experimental",35,27,"hd","upper","gounts","w","nw","h","h",1,1.46016888413578,NA,NA,NA
"experimental",35,28,"hd","upper","helpful","nw","w","g","g",1,1.40818573534489,NA,NA,NA
"experimental",35,29,"hd","upper","vinegar","w","w","g","g",1,0.797230628784746,NA,NA,NA
"experimental",35,30,"hd","upper","naxis","w","nw","h","h",1,1.7478789803572,NA,NA,NA
"experimental",36,1,"hd","upper","single","w","w","g","g",1,0.677131526172161,NA,NA,NA
"experimental",36,2,"hd","upper","sooled","nw","nw","h","h",1,1.03922210540622,NA,NA,NA
"experimental",36,3,"hd","upper","contund","nw","nw","h","h",1,2.81192754907534,NA,NA,NA
"experimental",36,4,"hd","upper","ronvince","nw","nw","h","h",1,1.6901722131297,NA,NA,NA
"experimental",36,5,"hd","upper","command","w","w","g","h",0,1.34072177065536,NA,NA,NA
"experimental",36,6,"hd","upper","achieve","w","w","g","g",1,1.59748321399093,NA,NA,NA
"experimental",36,7,"hd","upper","static","w","w","g","g",1,0.836153772193938,NA,NA,NA
"experimental",36,8,"hd","upper","inforl","nw","nw","h","h",1,0.736814484465867,NA,NA,NA
"experimental",36,9,"hd","upper","hustle","w","w","g","g",1,0.753493632655591,NA,NA,NA
"experimental",36,10,"hd","upper","outlaved","nw","nw","h","h",1,1.15242974320427,NA,NA,NA
"experimental",36,11,"hd","upper","ebince","nw","nw","h","h",1,2.75178608531132,NA,NA,NA
"experimental",36,12,"hd","upper","huffle","nw","nw","h","h",1,0.727132447063923,NA,NA,NA
"experimental",36,13,"hd","upper","flougy","nw","nw","h","h",1,0.69643915630877,NA,NA,NA
"experimental",36,14,"hd","upper","corduroy","w","w","g","g",1,1.12309808377177,NA,NA,NA
"experimental",36,15,"hd","upper","cooray","nw","nw","h","h",1,2.75648312363774,NA,NA,NA
"experimental",36,16,"hd","upper","gaining","w","w","g","g",1,0.939532977063209,NA,NA,NA
"experimental",36,17,"hd","upper","dricked","nw","nw","h","h",1,3.00419308710843,NA,NA,NA
"experimental",36,18,"hd","upper","arpired","nw","nw","h","g",0,2.94622069457546,NA,NA,NA
"experimental",36,19,"hd","upper","amkles","nw","nw","h","h",1,1.217537492048,NA,NA,NA
"experimental",36,20,"hd","upper","perform","w","w","g","g",1,1.86362696159631,NA,NA,NA
"experimental",36,21,"hd","upper","posing","w","w","g","g",1,0.980112353805453,NA,NA,NA
"experimental",36,22,"hd","upper","criminal","w","w","g","g",1,0.690516016911715,NA,NA,NA
"experimental",36,23,"hd","upper","dontrite","nw","nw","h","h",1,0.765110206324607,NA,NA,NA
"experimental",36,24,"hd","upper","fuhrek","nw","nw","h","h",1,6.79728556470945,NA,NA,NA
"experimental",36,25,"hd","upper","spaceship","w","w","g","g",1,0.7558000436984,NA,NA,NA
"experimental",36,26,"hd","upper","curtail","w","w","g","g",1,2.62790635181591,NA,NA,NA
"experimental",36,27,"hd","upper","series","w","w","g","g",1,0.800156731624156,NA,NA,NA
"experimental",36,28,"hd","upper","visible","w","w","g","g",1,0.734845839906484,NA,NA,NA
"experimental",36,29,"hd","upper","kiner","nw","nw","h","h",1,0.950878190342337,NA,NA,NA
"experimental",36,30,"hd","upper","undertake","w","w","g","g",1,0.934875179547816,NA,NA,NA
"experimental",37,1,"hd","upper","graciap","nw","nw","h","h",1,0.637827452272177,NA,NA,NA
"experimental",37,2,"hd","upper","rawhide","w","w","g","g",1,1.11327146133408,NA,NA,NA
"experimental",37,3,"hd","upper","amidst","w","w","g","g",1,1.00342700025067,NA,NA,NA
"experimental",37,4,"hd","upper","stretches","w","w","g","g",1,2.73810337018222,NA,NA,NA
"experimental",37,5,"hd","upper","goltish","nw","nw","h","h",1,0.715099023189396,NA,NA,NA
"experimental",37,6,"hd","upper","robbery","w","w","g","g",1,2.26122045749798,NA,NA,NA
"experimental",37,7,"hd","upper","kraums","nw","nw","h","h",1,4.90423773042858,NA,NA,NA
"experimental",37,8,"hd","upper","gymnasium","w","w","g","g",1,0.778196169994771,NA,NA,NA
"experimental",37,9,"hd","upper","decant","w","w","g","h",0,1.87350821774453,NA,NA,NA
"experimental",37,10,"hd","upper","thaken","nw","nw","h","h",1,0.724866181146353,NA,NA,NA
