"procedure","block","trial","PMdemand","context","stim","role","word_type","correct_key","response","correct","reaction_time","pressedQ","pressedQ_blank","pressedQ_fix"
"LDTpractice",1,1,NA,"lower","lurshing","","nw","h","h",1,1.34989213543304,NA,NA,NA
"LDTpractice",2,1,NA,"lower","infinity","","w","g","g",1,0.629256980028003,NA,NA,NA
"LDTpractice",3,1,NA,"lower","summary","","w","g","g",1,0.563114427757682,NA,NA,NA
"LDTpractice",4,1,NA,"lower","reputable","","w","g","g",1,0.599643560926779,NA,NA,NA
"LDTpractice",5,1,NA,"lower","overshoot","","w","g","g",1,0.616579529218143,NA,NA,NA
"LDTpractice",6,1,NA,"lower","busted","","w","g","g",1,0.606939003882871,NA,NA,NA
"LDTpractice",7,1,NA,"lower","latador","","nw","h","h",1,0.661053689240362,NA,NA,NA
"LDTpractice",8,1,NA,"lower","hiring","","w","g","g",1,0.529087037772115,NA,NA,NA
"LDTpractice",9,1,NA,"lower","treeps","","nw","h","h",1,0.730458649864886,NA,NA,NA
"LDTpractice",10,1,NA,"lower","turative","","nw","h","h",1,0.874804824961757,NA,NA,NA
"LDTpractice",11,1,NA,"lower","raestro","","nw","h","h",1,0.566200253117131,NA,NA,NA
"LDTpractice",12,1,NA,"lower","julled","","nw","h","h",1,0.741807955157128,NA,NA,NA
"LDTpractice",13,1,NA,"lower","curlecs","","nw","h","h",1,0.639158003003104,NA,NA,NA
"LDTpractice",14,1,NA,"lower","unscrew","","w","g","g",1,0.498993373323174,NA,NA,NA
"LDTpractice",1,2,NA,"upper","grocus","","nw","h","h",1,0.734402034649975,NA,NA,NA
"LDTpractice",2,2,NA,"upper","umpire","","w","g","g",1,1.38295058289805,NA,NA,NA
"LDTpractice",3,2,NA,"upper","revival","","w","g","g",1,0.581482378387591,NA,NA,NA
"LDTpractice",4,2,NA,"upper","picture","","w","g","g",1,0.500729621737264,NA,NA,NA
"LDTpractice",5,2,NA,"upper","slumber","","w","g","g",1,0.606826413364615,NA,NA,NA
"LDTpractice",6,2,NA,"upper","sponsor","","w","g","g",1,0.516787504733657,NA,NA,NA
"LDTpractice",7,2,NA,"upper","lumbigo","","nw","h","h",1,0.542884054877504,NA,NA,NA
"LDTpractice",8,2,NA,"upper","grimace","","w","g","g",1,0.583559416874778,NA,NA,NA
"LDTpractice",9,2,NA,"upper","grutch","","nw","h","h",1,0.622083484980976,NA,NA,NA
"LDTpractice",10,2,NA,"upper","hasking","","nw","h","h",1,0.651260125312547,NA,NA,NA
"LDTpractice",11,2,NA,"upper","trotch","","nw","h","h",1,0.551430973129754,NA,NA,NA
"LDTpractice",12,2,NA,"upper","crinklo","","nw","h","h",1,0.479541474829603,NA,NA,NA
"LDTpractice",13,2,NA,"upper","alolition","","nw","h","h",1,1.5309573081322,NA,NA,NA
"LDTpractice",14,2,NA,"upper","tricycle","","w","g","g",1,0.548324923729524,NA,NA,NA
"experimental",1,1,"ld","upper","movie","w","w","g","g",1,0.817985250505444,NA,NA,NA
"experimental",1,2,"ld","upper","permeable","w","w","g","g",1,1.11266391476238,NA,NA,NA
"experimental",1,3,"ld","upper","lignpost","nw","nw","h","h",1,0.835207373791491,NA,NA,NA
"experimental",1,4,"ld","upper","rawhide","w","w","g","g",1,1.00865200973931,NA,NA,NA
"experimental",1,5,"ld","upper","cayward","nw","nw","h","h",1,0.927363768962096,NA,NA,NA
"experimental",1,6,"ld","upper","attrove","nw","nw","h","h",1,0.849351519835182,NA,NA,NA
"experimental",1,7,"ld","upper","potter","w","w","g","g",1,1.64678518047731,NA,NA,NA
"experimental",1,8,"ld","upper","levels","w","w","g","g",1,0.691228551673703,NA,NA,NA
"experimental",1,9,"ld","upper","burning","w","w","g","g",1,0.750678759803122,NA,NA,NA
"experimental",1,10,"ld","upper","bookend","w","w","g","g",1,0.735241784830578,NA,NA,NA
"experimental",1,11,"ld","upper","railway","w","w","g","g",1,0.680558713553182,NA,NA,NA
"experimental",1,12,"ld","upper","intended","w","w","g","g",1,0.676564014065661,NA,NA,NA
"experimental",1,13,"ld","upper","jungle","w","w","g","g",1,0.520656935957959,NA,NA,NA
"experimental",1,14,"ld","upper","vibrate","w","w","g","g",1,0.570684555343178,NA,NA,NA
"experimental",1,15,"ld","upper","crudios","nw","nw","h","h",1,0.714718314389756,NA,NA,NA
"experimental",1,16,"ld","upper","perform","w","w","g","g",1,0.653443113580579,NA,NA,NA
"experimental",1,17,"ld","upper","formation","w","w","g","g",1,0.825269826811564,NA,NA,NA
"experimental",1,18,"ld","upper","outlaved","nw","nw","h","h",1,0.847222562944808,NA,NA,NA
"experimental",1,19,"ld","upper","smabled","nw","nw","h","h",1,0.740534142867546,NA,NA,NA
"experimental",1,20,"ld","upper","potent","w","w","g","g",1,0.725910657027271,NA,NA,NA
"experimental",1,21,"ld","upper","welayed","nw","nw","h","h",1,0.607956242602086,NA,NA,NA
"experimental",1,22,"ld","upper","bluads","nw","nw","h","h",1,0.606656471107271,NA,NA,NA
"experimental",1,23,"ld","upper","ements","nw","nw","h","h",1,0.741377515267232,NA,NA,NA
"experimental",1,24,"ld","upper","pexts","nw","nw","h","h",1,0.701142252401041,NA,NA,NA
"experimental",1,25,"ld","upper","ladybug","target","target","q","q",1,0.768437876460666,1,NA,NA
"experimental",1,26,"ld","upper","sunhess","aftertar1","nw","h","h",1,0.83328186464496,NA,NA,NA
"experimental",1,27,"ld","upper","sludding","aftertar2","nw","h","h",1,0.854650216751907,NA,NA,NA
"experimental",1,28,"ld","upper","chraps","aftertar3","nw","h","h",1,0.667213567772706,NA,NA,NA
"experimental",1,29,"ld","upper","aicline","nw","nw","h","h",1,0.711252156441333,NA,NA,NA
"experimental",1,30,"ld","upper","heaviest","nw","w","g","q",0,0.737724813247041,NA,NA,NA
"experimental",2,1,"hd","lower","intrude","w","w","g","g",1,1.22746398357413,NA,NA,NA
"experimental",2,2,"hd","lower","mullet","w","w","g","g",1,0.640395894988615,NA,NA,NA
"experimental",2,3,"hd","lower","yellep","nw","nw","h","h",1,0.669799527473515,NA,NA,NA
"experimental",2,4,"hd","lower","dazid","nw","nw","h","h",1,0.919523786345962,NA,NA,NA
"experimental",2,5,"hd","lower","churnad","nw","nw","h","h",1,0.579874416762323,NA,NA,NA
"experimental",2,6,"hd","lower","crundle","nw","nw","h","h",1,0.659935632203997,NA,NA,NA
"experimental",2,7,"hd","lower","retain","w","w","g","g",1,0.488595503185934,NA,NA,NA
"experimental",2,8,"hd","lower","perishing","w","w","g","h",0,0.763993720451253,NA,NA,NA
"experimental",2,9,"hd","lower","telecast","w","w","g","h",0,0.764677111692436,NA,NA,NA
"experimental",2,10,"hd","lower","pariah","w","w","g","g",1,0.948386501375353,NA,NA,NA
"experimental",2,11,"hd","lower","thacked","nw","nw","h","h",1,0.541781090396398,NA,NA,NA
"experimental",2,12,"hd","lower","neliefs","nw","nw","h","h",1,0.567311669437913,NA,NA,NA
"experimental",2,13,"hd","lower","explosion","w","w","g","g",1,0.631176754002809,NA,NA,NA
"experimental",2,14,"hd","lower","brimitar","nw","nw","h","h",1,0.485215674700157,NA,NA,NA
"experimental",2,15,"hd","lower","booster","w","w","g","g",1,0.647375601532985,NA,NA,NA
"experimental",2,16,"hd","lower","usually","w","w","g","g",1,0.588683040048636,NA,NA,NA
"experimental",2,17,"hd","lower","arrested","w","w","g","g",1,0.532569797534961,NA,NA,NA
"experimental",2,18,"hd","lower","populace","w","w","g","h",0,0.775303483227617,NA,NA,NA
"experimental",2,19,"hd","lower","leuter","nw","nw","h","h",1,0.775460747732723,NA,NA,NA
"experimental",2,20,"hd","lower","paranoid","w","w","g","h",0,0.470664935011882,NA,NA,NA
"experimental",2,21,"hd","lower","mabit","nw","nw","h","h",1,0.626396939398546,NA,NA,NA
"experimental",2,22,"hd","lower","eggays","nw","nw","h","h",1,0.720445640072285,NA,NA,NA
"experimental",2,23,"hd","lower","aggepting","nw","nw","h","h",1,0.794507259990496,NA,NA,NA
"experimental",2,24,"hd","lower","gettle","nw","nw","h","h",1,0.881856372099719,NA,NA,NA
"experimental",2,25,"hd","lower","pypecast","nw","nw","h","h",1,0.893928007433715,NA,NA,NA
"experimental",2,26,"hd","lower","lawsuit","w","w","g","g",1,0.737361082487041,NA,NA,NA
"experimental",2,27,"hd","lower","mebase","nw","nw","h","h",1,0.562639012030559,NA,NA,NA
"experimental",2,28,"hd","lower","stalemate","w","w","g","g",1,1.05936422778177,NA,NA,NA
"experimental",2,29,"hd","lower","elephant","target","target","q","g",0,0.471148500721028,NA,NA,NA
"experimental",2,30,"hd","lower","rodeo","aftertar1","w","g","g",1,1.81110455117596,NA,NA,NA
"experimental",3,1,"hd","lower","oppose","w","w","g","g",1,0.841852629142522,NA,NA,NA
"experimental",3,2,"hd","lower","grolific","nw","nw","h","h",1,0.703203292760008,NA,NA,NA
"experimental",3,3,"hd","lower","nameplate","w","w","g","g",1,0.760887972908677,NA,NA,NA
"experimental",3,4,"hd","lower","carnival","w","w","g","g",1,0.609576881986868,NA,NA,NA
"experimental",3,5,"hd","lower","confined","w","w","g","g",1,0.55230905841745,NA,NA,NA
"experimental",3,6,"hd","lower","etuip","nw","nw","h","h",1,0.519840730165015,NA,NA,NA
"experimental",3,7,"hd","lower","glating","nw","nw","h","h",1,1.00178761038114,NA,NA,NA
"experimental",3,8,"hd","lower","official","w","w","g","g",1,0.617136746630422,NA,NA,NA
"experimental",3,9,"hd","lower","alarm","w","w","g","g",1,0.767696831630019,NA,NA,NA
"experimental",3,10,"hd","lower","selongs","nw","nw","h","h",1,0.767794933293771,NA,NA,NA
"experimental",3,11,"hd","lower","deakers","nw","nw","h","h",1,0.759005628482555,NA,NA,NA
"experimental",3,12,"hd","lower","demise","w","w","g","g",1,0.727601929604134,NA,NA,NA
"experimental",3,13,"hd","lower","sengry","nw","nw","h","h",1,0.64958968047722,NA,NA,NA
"experimental",3,14,"hd","lower","elbalm","nw","nw","h","h",1,0.590966544783441,NA,NA,NA
"experimental",3,15,"hd","lower","schides","nw","nw","h","h",1,0.590316357185657,NA,NA,NA
"experimental",3,16,"hd","lower","abstain","w","w","g","g",1,1.24571994740108,NA,NA,NA
"experimental",3,17,"hd","lower","fomes","nw","nw","h","h",1,0.611080403075903,NA,NA,NA
"experimental",3,18,"hd","lower","funtair","nw","nw","h","h",1,0.545732927006611,NA,NA,NA
"experimental",3,19,"hd","lower","pegend","nw","nw","h","h",1,0.739104575324745,NA,NA,NA
"experimental",3,20,"hd","lower","region","w","w","g","g",1,0.68446738543571,NA,NA,NA
"experimental",3,21,"hd","lower","venturous","w","w","g","g",1,0.878919057548046,NA,NA,NA
"experimental",3,22,"hd","lower","chicken","target","target","q","q",1,0.954901055134542,1,NA,NA
"experimental",3,23,"hd","lower","deeper","aftertar1","w","g","g",1,0.67557786602265,NA,NA,NA
"experimental",3,24,"hd","lower","computer","aftertar2","w","g","g",1,0.543617251576507,NA,NA,NA
"experimental",3,25,"hd","lower","moozy","aftertar3","nw","h","h",1,0.881060994048312,NA,NA,NA
"experimental",3,26,"hd","lower","rebool","nw","nw","h","h",1,0.629085528511496,NA,NA,NA
"experimental",3,27,"hd","lower","inducing","nw","w","g","g",1,0.739081936480943,NA,NA,NA
"experimental",3,28,"hd","lower","ronic","w","nw","h","h",1,0.667729129716463,NA,NA,NA
"experimental",3,29,"hd","lower","terrify","nw","w","g","g",1,0.552505261737679,NA,NA,NA
"experimental",3,30,"hd","lower","implode","w","w","g","g",1,0.536245742106985,NA,NA,NA
"experimental",4,1,"hd","lower","unburnid","nw","nw","h","h",1,1.25846954065491,NA,NA,NA
"experimental",4,2,"hd","lower","encounter","w","w","g","g",1,0.583133806605474,NA,NA,NA
"experimental",4,3,"hd","lower","ephically","nw","nw","h","h",1,1.71030736201647,NA,NA,NA
"experimental",4,4,"hd","lower","suburb","w","w","g","g",1,0.504877963518084,NA,NA,NA
"experimental",4,5,"hd","lower","balign","nw","nw","h","h",1,0.947537695654319,NA,NA,NA
"experimental",4,6,"hd","lower","gigglod","nw","nw","h","h",1,0.556972358441271,NA,NA,NA
"experimental",4,7,"hd","lower","retona","nw","nw","h","h",1,0.51769094554038,NA,NA,NA
"experimental",4,8,"hd","lower","sweeping","w","w","g","g",1,0.623669713320851,NA,NA,NA
"experimental",4,9,"hd","lower","boulder","w","w","g","g",1,0.781749818605022,NA,NA,NA
"experimental",4,10,"hd","lower","presently","w","w","g","g",1,0.981806566640444,NA,NA,NA
"experimental",4,11,"hd","lower","slimped","nw","nw","h","h",1,0.87779435977427,NA,NA,NA
"experimental",4,12,"hd","lower","kickoff","w","w","g","g",1,0.592916202032939,NA,NA,NA
"experimental",4,13,"hd","lower","phambled","nw","nw","h","h",1,0.672182643116685,NA,NA,NA
"experimental",4,14,"hd","lower","peahem","nw","nw","h","h",1,0.50018870428903,NA,NA,NA
"experimental",4,15,"hd","lower","outfit","w","w","g","g",1,0.503639165974164,NA,NA,NA
"experimental",4,16,"hd","lower","axis","w","w","g","g",1,0.586316526227165,NA,NA,NA
"experimental",4,17,"hd","lower","vergas","nw","nw","h","h",1,0.681626059595146,NA,NA,NA
"experimental",4,18,"hd","lower","suddenly","w","w","g","g",1,0.645724173322378,NA,NA,NA
"experimental",4,19,"hd","lower","trewl","nw","nw","h","h",1,0.627075199161482,NA,NA,NA
"experimental",4,20,"hd","lower","latirizes","nw","nw","h","h",1,0.48118445120781,NA,NA,NA
"experimental",4,21,"hd","lower","arbitrary","w","w","g","g",1,0.76513592559786,NA,NA,NA
"experimental",4,22,"hd","lower","arrow","w","w","g","g",1,0.685833564217319,NA,NA,NA
"experimental",4,23,"hd","lower","ulcer","w","w","g","g",1,0.630937084104517,NA,NA,NA
"experimental",4,24,"hd","lower","browting","nw","nw","h","h",1,0.652968603404588,NA,NA,NA
"experimental",4,25,"hd","lower","riosk","nw","nw","h","h",1,0.562027763240621,NA,NA,NA
"experimental",4,26,"hd","lower","monkey","target","target","q","g",0,0.619358070005546,1,1,NA
"experimental",4,27,"hd","lower","iflaid","aftertar1","nw","h","h",1,0.641497953918588,NA,NA,NA
"experimental",4,28,"hd","lower","uncle","aftertar2","w","g","g",1,0.72679749600502,NA,NA,NA
"experimental",4,29,"hd","lower","planar","aftertar3","w","g","g",1,0.696906373756065,NA,NA,NA
"experimental",4,30,"hd","lower","robbery","w","w","g","g",1,0.483418452335172,NA,NA,NA
"experimental",5,1,"ld","upper","laser","w","w","g","g",1,0.791433206824877,NA,NA,NA
"experimental",5,2,"ld","upper","ireology","nw","nw","h","h",1,0.870790806984587,NA,NA,NA
"experimental",5,3,"ld","upper","cassette","w","w","g","g",1,0.770824916180572,NA,NA,NA
"experimental",5,4,"ld","upper","allained","nw","nw","h","h",1,0.70691093170899,NA,NA,NA
"experimental",5,5,"ld","upper","pakened","nw","nw","h","h",1,0.693523224908859,NA,NA,NA
"experimental",5,6,"ld","upper","urgency","w","w","g","g",1,0.512960936393938,NA,NA,NA
"experimental",5,7,"ld","upper","army","w","w","g","g",1,0.570734360800998,NA,NA,NA
"experimental",5,8,"ld","upper","sonkers","nw","nw","h","h",1,0.51466217005509,NA,NA,NA
"experimental",5,9,"ld","upper","fullity","nw","nw","h","h",1,0.501359585301543,NA,NA,NA
"experimental",5,10,"ld","upper","wrecber","nw","nw","h","h",1,0.528095758250856,NA,NA,NA
"experimental",5,11,"ld","upper","prominent","w","w","g","g",1,0.594105797827069,NA,NA,NA
"experimental",5,12,"ld","upper","provide","w","w","g","g",1,0.53750476368441,NA,NA,NA
"experimental",5,13,"ld","upper","fracture","w","w","g","g",1,0.498838221785263,NA,NA,NA
"experimental",5,14,"ld","upper","godomy","nw","nw","h","h",1,0.614237163485086,NA,NA,NA
"experimental",5,15,"ld","upper","pamine","nw","nw","h","h",1,0.540939529098978,NA,NA,NA
"experimental",5,16,"ld","upper","giving","w","w","g","g",1,0.517323894411675,NA,NA,NA
"experimental",5,17,"ld","upper","currowing","nw","nw","h","h",1,0.694231066096108,NA,NA,NA
"experimental",5,18,"ld","upper","matter","w","w","g","g",1,0.626001212403935,NA,NA,NA
"experimental",5,19,"ld","upper","lovud","nw","nw","h","h",1,0.576534432642802,NA,NA,NA
"experimental",5,20,"ld","upper","goltish","nw","nw","h","h",1,0.584781914447376,NA,NA,NA
"experimental",5,21,"ld","upper","uncarled","nw","nw","h","h",1,0.560151757694257,NA,NA,NA
"experimental",5,22,"ld","upper","teamwork","w","w","g","g",1,0.520852837413258,NA,NA,NA
"experimental",5,23,"ld","upper","ensues","w","w","g","g",1,0.746860945138906,NA,NA,NA
"experimental",5,24,"ld","upper","spigat","nw","nw","h","h",1,0.484385281903087,NA,NA,NA
"experimental",5,25,"ld","upper","guitar","w","w","g","g",1,0.887548079343105,NA,NA,NA
"experimental",5,26,"ld","upper","classify","w","w","g","g",1,0.594066859019222,NA,NA,NA
"experimental",5,27,"ld","upper","release","w","w","g","g",1,0.553452772823221,NA,NA,NA
"experimental",5,28,"ld","upper","dusmy","nw","nw","h","h",1,0.642016534366121,NA,NA,NA
"experimental",5,29,"ld","upper","befriend","w","w","g","g",1,0.895404361916007,NA,NA,NA
"experimental",5,30,"ld","upper","planofoad","nw","nw","h","h",1,0.546707001005416,NA,NA,NA
"experimental",6,1,"ld","upper","afternoon","w","w","g","g",1,0.628224346888601,NA,NA,NA
"experimental",6,2,"ld","upper","oalis","nw","nw","h","h",1,0.433272205402318,NA,NA,NA
"experimental",6,3,"ld","upper","sooled","nw","nw","h","h",1,0.471277089352952,NA,NA,NA
"experimental",6,4,"ld","upper","mennel","nw","nw","h","h",1,0.579362175187271,NA,NA,NA
"experimental",6,5,"ld","upper","rudder","w","w","g","g",1,0.739343339671905,NA,NA,NA
"experimental",6,6,"ld","upper","blipover","nw","nw","h","h",1,0.532706838006561,NA,NA,NA
"experimental",6,7,"ld","upper","nimono","nw","nw","h","h",1,0.486824541876558,NA,NA,NA
"experimental",6,8,"ld","upper","obtuse","w","w","g","g",1,0.626168437993329,NA,NA,NA
"experimental",6,9,"ld","upper","partner","w","w","g","g",1,0.502962415463116,NA,NA,NA
"experimental",6,10,"ld","upper","amplifier","w","w","g","g",1,0.544739836383087,NA,NA,NA
"experimental",6,11,"ld","upper","budget","w","w","g","g",1,0.523527843230113,NA,NA,NA
"experimental",6,12,"ld","upper","shazer","nw","nw","h","h",1,0.565109664537886,NA,NA,NA
"experimental",6,13,"ld","upper","addition","w","w","g","g",1,1.14987523176387,NA,NA,NA
"experimental",6,14,"ld","upper","whirling","w","w","g","g",1,0.719211672148958,NA,NA,NA
"experimental",6,15,"ld","upper","runabouk","nw","nw","h","h",1,0.481207693752367,NA,NA,NA
"experimental",6,16,"ld","upper","fabstand","nw","nw","h","h",1,0.597125215914275,NA,NA,NA
"experimental",6,17,"ld","upper","admire","w","w","g","g",1,0.540563120586739,NA,NA,NA
"experimental",6,18,"ld","upper","antonym","w","w","g","g",1,1.07796520757984,NA,NA,NA
"experimental",6,19,"ld","upper","corduroy","w","w","g","g",1,1.57716771656851,NA,NA,NA
"experimental",6,20,"ld","upper","legalize","w","w","g","g",1,0.481087858810497,NA,NA,NA
"experimental",6,21,"ld","upper","static","w","w","g","g",1,0.413019797386369,NA,NA,NA
"experimental",6,22,"ld","upper","lasprey","nw","nw","h","q",0,1.6677167538146,NA,NA,NA
"experimental",6,23,"ld","upper","student","w","w","g","g",1,0.695804616683745,NA,NA,NA
"experimental",6,24,"ld","upper","airbis","nw","nw","h","h",1,0.539185169611301,NA,NA,NA
"experimental",6,25,"ld","upper","tusied","nw","nw","h","h",1,0.580618781954399,NA,NA,NA
"experimental",6,26,"ld","upper","epthuse","nw","nw","h","h",1,0.78065470225556,NA,NA,NA
"experimental",6,27,"ld","upper","lindo","nw","nw","h","h",1,0.836670446813514,NA,NA,NA
"experimental",6,28,"ld","upper","postal","w","w","g","g",1,0.482041105067765,NA,NA,NA
"experimental",6,29,"ld","upper","haurded","nw","nw","h","h",1,0.565075857193733,NA,NA,NA
"experimental",6,30,"ld","upper","dontrite","nw","nw","h","h",1,0.501778856691089,NA,NA,NA
"experimental",7,1,"ld","upper","hanling","nw","nw","h","h",1,0.647896596790815,NA,NA,NA
"experimental",7,2,"ld","upper","religious","w","w","g","g",1,0.549049668581574,NA,NA,NA
"experimental",7,3,"ld","upper","peags","nw","nw","h","h",1,0.477358788411948,NA,NA,NA
"experimental",7,4,"ld","upper","golemic","nw","nw","h","h",1,0.433629295432183,NA,NA,NA
"experimental",7,5,"ld","upper","walnut","w","w","g","g",1,0.734920615097508,NA,NA,NA
"experimental",7,6,"ld","upper","edasion","nw","nw","h","h",1,0.648285079361813,NA,NA,NA
"experimental",7,7,"ld","upper","trake","nw","nw","h","h",1,0.50894148509542,NA,NA,NA
"experimental",7,8,"ld","upper","infancy","w","w","g","g",1,0.751217866141815,NA,NA,NA
"experimental",7,9,"ld","upper","parody","w","w","g","g",1,0.639742085171747,NA,NA,NA
"experimental",7,10,"ld","upper","prawls","nw","nw","h","h",1,0.909078525561199,NA,NA,NA
"experimental",7,11,"ld","upper","artifact","w","w","g","g",1,0.535785720792774,NA,NA,NA
"experimental",7,12,"ld","upper","tibs","nw","nw","h","h",1,0.528222233930137,NA,NA,NA
"experimental",7,13,"ld","upper","reses","nw","nw","h","h",1,0.571174761775183,NA,NA,NA
"experimental",7,14,"ld","upper","fassed","nw","nw","h","h",1,0.514194300609233,NA,NA,NA
"experimental",7,15,"ld","upper","index","w","w","g","g",1,0.620851630017569,NA,NA,NA
"experimental",7,16,"ld","upper","showdown","w","w","g","g",1,0.594942227646243,NA,NA,NA
"experimental",7,17,"ld","upper","tharcely","nw","nw","h","h",1,0.674360801764124,NA,NA,NA
"experimental",7,18,"ld","upper","sullen","w","w","g","g",1,0.67036127265601,NA,NA,NA
"experimental",7,19,"ld","upper","odacles","nw","nw","h","h",1,0.594407347227389,NA,NA,NA
"experimental",7,20,"ld","upper","standard","w","w","g","g",1,0.521762918950117,NA,NA,NA
"experimental",7,21,"ld","upper","wienegs","nw","nw","h","h",1,0.483849797776202,NA,NA,NA
"experimental",7,22,"ld","upper","irregular","w","w","g","g",1,0.526234845274303,NA,NA,NA
"experimental",7,23,"ld","upper","infusion","w","w","g","g",1,0.552172319803503,NA,NA,NA
"experimental",7,24,"ld","upper","mandate","w","w","g","g",1,0.4569442862703,NA,NA,NA
"experimental",7,25,"ld","upper","egpended","nw","nw","h","h",1,0.533613297317061,NA,NA,NA
"experimental",7,26,"ld","upper","plunging","w","w","g","g",1,0.519591401025536,NA,NA,NA
"experimental",7,27,"ld","upper","elpousal","nw","nw","h","h",1,0.497657983374665,NA,NA,NA
"experimental",7,28,"ld","upper","warden","w","w","g","g",1,0.651784742796735,NA,NA,NA
"experimental",7,29,"ld","upper","chemical","w","w","g","g",1,0.432565571616578,NA,NA,NA
"experimental",7,30,"ld","upper","seartfelt","nw","nw","h","h",1,0.862428017993807,NA,NA,NA
"experimental",8,1,"ld","upper","butler","w","w","g","g",1,0.538832305493997,NA,NA,NA
"experimental",8,2,"ld","upper","ifkling","nw","nw","h","h",1,0.4916103935102,NA,NA,NA
"experimental",8,3,"ld","upper","handbook","w","w","g","g",1,0.486262494850962,NA,NA,NA
"experimental",8,4,"ld","upper","gremieres","nw","nw","h","h",1,0.505395336564106,NA,NA,NA
"experimental",8,5,"ld","upper","butled","nw","nw","h","h",1,0.71632687971578,NA,NA,NA
"experimental",8,6,"ld","upper","arpired","nw","nw","h","h",1,0.759040643228218,NA,NA,NA
"experimental",8,7,"ld","upper","hangar","w","w","g","h",0,0.526806249697984,NA,NA,NA
"experimental",8,8,"ld","upper","nimp","nw","nw","h","h",1,0.784744183038129,NA,NA,NA
"experimental",8,9,"ld","upper","fallacy","w","w","g","h",0,0.504147483479755,NA,NA,NA
"experimental",8,10,"ld","upper","mantos","nw","nw","h","h",1,0.530848339833028,NA,NA,NA
"experimental",8,11,"ld","upper","throttle","w","w","g","g",1,0.484851642082504,NA,NA,NA
"experimental",8,12,"ld","upper","drobate","nw","nw","h","h",1,0.536217971792212,NA,NA,NA
"experimental",8,13,"ld","upper","mixture","w","w","g","g",1,0.617733808416233,NA,NA,NA
"experimental",8,14,"ld","upper","impirt","nw","nw","h","h",1,0.519647545363114,NA,NA,NA
"experimental",8,15,"ld","upper","companion","w","w","g","g",1,0.609061320043111,NA,NA,NA
"experimental",8,16,"ld","upper","micron","w","w","g","h",0,0.527734442301153,NA,NA,NA
"experimental",8,17,"ld","upper","pranny","nw","nw","h","h",1,0.704842646919133,NA,NA,NA
"experimental",8,18,"ld","upper","medium","w","w","g","g",1,0.435518280581164,NA,NA,NA
"experimental",8,19,"ld","upper","dialect","w","w","g","g",1,0.632797091529937,NA,NA,NA
"experimental",8,20,"ld","upper","monopoly","w","w","g","g",1,0.534141838863434,NA,NA,NA
"experimental",8,21,"ld","upper","misobeyed","nw","nw","h","g",0,0.654483896702004,NA,NA,NA
"experimental",8,22,"ld","upper","geissue","nw","nw","h","h",1,0.578497069494915,NA,NA,NA
"experimental",8,23,"ld","upper","harfing","nw","nw","h","h",1,0.554083340088255,NA,NA,NA
"experimental",8,24,"ld","upper","shurk","nw","nw","h","h",1,0.578799524446367,NA,NA,NA
"experimental",8,25,"ld","upper","scatter","w","w","g","g",1,0.610422367346473,NA,NA,NA
"experimental",8,26,"ld","upper","quickel","nw","nw","h","h",1,0.733605147332128,NA,NA,NA
"experimental",8,27,"ld","upper","hostade","nw","nw","h","h",1,0.473104798693385,NA,NA,NA
"experimental",8,28,"ld","upper","volume","w","w","g","g",1,0.531399822073581,NA,NA,NA
"experimental",8,29,"ld","upper","tablet","w","w","g","g",1,0.42883469012304,NA,NA,NA
"experimental",8,30,"ld","upper","posing","w","w","g","g",1,0.658183385668963,NA,NA,NA
"experimental",9,1,"hd","lower","crazy","w","w","g","g",1,0.534897976256616,NA,NA,NA
"experimental",9,2,"hd","lower","ragtam","nw","nw","h","g",0,0.487440620294365,NA,NA,NA
"experimental",9,3,"hd","lower","theles","nw","nw","h","h",1,0.433957709596143,NA,NA,NA
"experimental",9,4,"hd","lower","hindsight","w","w","g","g",1,0.423307491815649,NA,NA,NA
"experimental",9,5,"hd","lower","aqueduct","w","w","g","h",0,0.548743289560662,NA,NA,NA
"experimental",9,6,"hd","lower","buaint","nw","nw","h","h",1,0.525398717305507,NA,NA,NA
"experimental",9,7,"hd","lower","rearrange","w","w","g","g",1,0.518741387895716,NA,NA,NA
"experimental",9,8,"hd","lower","trophy","w","w","g","g",1,0.52880510869727,NA,NA,NA
"experimental",9,9,"hd","lower","teliever","nw","nw","h","h",1,0.530167967110174,NA,NA,NA
"experimental",9,10,"hd","lower","puggers","nw","nw","h","h",1,0.691521347391244,NA,NA,NA
"experimental",9,11,"hd","lower","dredigest","nw","nw","h","h",1,0.66227045164851,NA,NA,NA
"experimental",9,12,"hd","lower","dabble","w","w","g","g",1,0.777390784649469,NA,NA,NA
"experimental",9,13,"hd","lower","cookbook","w","w","g","g",1,0.672657455135777,NA,NA,NA
"experimental",9,14,"hd","lower","enabled","w","w","g","g",1,0.588047945013386,NA,NA,NA
"experimental",9,15,"hd","lower","kraums","nw","nw","h","h",1,0.553566570742987,NA,NA,NA
"experimental",9,16,"hd","lower","rootsie","nw","nw","h","h",1,0.729729075392243,NA,NA,NA
"experimental",9,17,"hd","lower","houted","nw","nw","h","h",1,0.547659643561929,NA,NA,NA
"experimental",9,18,"hd","lower","adok","nw","nw","h","h",1,0.372968965632026,NA,NA,NA
"experimental",9,19,"hd","lower","graveyard","w","w","g","g",1,0.876285707206989,NA,NA,NA
"experimental",9,20,"hd","lower","joadbed","nw","nw","h","h",1,0.535597667461843,NA,NA,NA
"experimental",9,21,"hd","lower","dumult","nw","nw","h","h",1,0.536957507356419,NA,NA,NA
"experimental",9,22,"hd","lower","oppose","w","w","g","g",1,0.688726808482897,NA,NA,NA
"experimental",9,23,"hd","lower","ounside","nw","nw","h","h",1,0.563342627305246,NA,NA,NA
"experimental",9,24,"hd","lower","incidonts","nw","nw","h","h",1,0.523458115589165,NA,NA,NA
"experimental",9,25,"hd","lower","miability","nw","nw","h","h",1,0.476839604256384,NA,NA,NA
"experimental",9,26,"hd","lower","regards","w","w","g","g",1,0.472133139512152,NA,NA,NA
"experimental",9,27,"hd","lower","tragedy","w","w","g","g",1,0.659437275775417,NA,NA,NA
"experimental",9,28,"hd","lower","attract","w","w","g","g",1,0.49548857841728,NA,NA,NA
"experimental",9,29,"hd","lower","latter","w","w","g","g",1,0.83435011623078,NA,NA,NA
"experimental",9,30,"hd","lower","observer","w","w","g","g",1,0.46358652311028,NA,NA,NA
"experimental",10,1,"hd","lower","unspoken","w","w","g","g",1,0.587462353578303,NA,NA,NA
"experimental",10,2,"hd","lower","olgies","nw","nw","h","h",1,0.490100533541408,NA,NA,NA
"experimental",10,3,"hd","lower","birn","nw","nw","h","h",1,0.644830089913739,NA,NA,NA
"experimental",10,4,"hd","lower","antwers","nw","nw","h","h",1,0.553598868827976,NA,NA,NA
"experimental",10,5,"hd","lower","meteoroid","w","w","g","h",0,0.480786309402902,NA,NA,NA
"experimental",10,6,"hd","lower","sefraud","nw","nw","h","h",1,0.572055563738104,NA,NA,NA
"experimental",10,7,"hd","lower","acroad","nw","nw","h","h",1,0.460322001803434,NA,NA,NA
"experimental",10,8,"hd","lower","duplex","w","w","g","g",1,0.630075902474346,NA,NA,NA
"experimental",10,9,"hd","lower","childhood","w","w","g","g",1,0.515510372075369,NA,NA,NA
"experimental",10,10,"hd","lower","minimum","w","w","g","g",1,0.54206271761359,NA,NA,NA
"experimental",10,11,"hd","lower","bloves","nw","nw","h","h",1,0.58330676737387,NA,NA,NA
"experimental",10,12,"hd","lower","cessation","w","w","g","g",1,0.702869143424323,NA,NA,NA
"experimental",10,13,"hd","lower","massacre","w","w","g","g",1,0.672886862092128,NA,NA,NA
"experimental",10,14,"hd","lower","chining","nw","nw","h","h",1,0.708200138418761,NA,NA,NA
"experimental",10,15,"hd","lower","cegalia","nw","nw","h","h",1,0.558254018862499,NA,NA,NA
"experimental",10,16,"hd","lower","illness","w","w","g","g",1,0.598284928433714,NA,NA,NA
"experimental",10,17,"hd","lower","congraks","nw","nw","h","h",1,0.628032067637832,NA,NA,NA
"experimental",10,18,"hd","lower","rarely","w","w","g","g",1,0.593375317788741,NA,NA,NA
"experimental",10,19,"hd","lower","remain","w","w","g","g",1,0.584021249283978,NA,NA,NA
"experimental",10,20,"hd","lower","ausht","nw","nw","h","h",1,0.527350185657269,NA,NA,NA
"experimental",10,21,"hd","lower","pircus","nw","nw","h","h",1,0.512745112740959,NA,NA,NA
"experimental",10,22,"hd","lower","flamingo","target","target","q","g",0,1.01874923602736,NA,NA,NA
"experimental",10,23,"hd","lower","terming","aftertar1","w","g","h",0,0.608141277421964,NA,NA,NA
"experimental",10,24,"hd","lower","antique","aftertar2","w","g","g",1,0.526335361741076,NA,NA,NA
"experimental",10,25,"hd","lower","slutches","aftertar3","nw","h","h",1,0.663571732402488,NA,NA,NA
"experimental",10,26,"hd","lower","shockwave","nw","w","g","g",1,0.762647463860048,NA,NA,NA
"experimental",10,27,"hd","lower","splinging","w","nw","h","h",1,0.842622349839075,NA,NA,NA
"experimental",10,28,"hd","lower","ecistle","nw","nw","h","h",1,0.495336747240799,NA,NA,NA
"experimental",10,29,"hd","lower","innocent","nw","w","g","g",1,0.570158428607101,NA,NA,NA
"experimental",10,30,"hd","lower","combat","w","w","g","h",0,0.513511211218429,NA,NA,NA
"experimental",11,1,"ld","upper","daylight","w","w","g","g",1,0.713945877032529,NA,NA,NA
"experimental",11,2,"ld","upper","scack","nw","nw","h","h",1,0.524151769772288,NA,NA,NA
"experimental",11,3,"ld","upper","esdings","nw","nw","h","h",1,0.582165165928018,NA,NA,NA
"experimental",11,4,"ld","upper","revising","w","w","g","h",0,0.365625226477278,NA,NA,NA
"experimental",11,5,"ld","upper","coster","nw","nw","h","h",1,0.693630080248113,NA,NA,NA
"experimental",11,6,"ld","upper","athcan","nw","nw","h","h",1,0.488371227700554,NA,NA,NA
"experimental",11,7,"ld","upper","kiner","nw","nw","h","h",1,0.467198475213081,NA,NA,NA
"experimental",11,8,"ld","upper","phonology","w","w","g","h",0,0.726826171878201,NA,NA,NA
"experimental",11,9,"ld","upper","ofsters","nw","nw","h","h",1,0.480506191437598,NA,NA,NA
"experimental",11,10,"ld","upper","jinds","nw","nw","h","h",1,0.522925649980607,NA,NA,NA
"experimental",11,11,"ld","upper","markot","nw","nw","h","h",1,0.484423315159802,NA,NA,NA
"experimental",11,12,"ld","upper","comment","w","w","g","g",1,0.623601494939066,NA,NA,NA
"experimental",11,13,"ld","upper","triangle","w","w","g","g",1,0.644908873080567,NA,NA,NA
"experimental",11,14,"ld","upper","brother","w","w","g","g",1,0.481680090961163,NA,NA,NA
"experimental",11,15,"ld","upper","grested","nw","nw","h","h",1,0.573019072944589,NA,NA,NA
"experimental",11,16,"ld","upper","heuls","nw","nw","h","h",1,0.460485001480265,NA,NA,NA
"experimental",11,17,"ld","upper","atch","nw","nw","h","h",1,0.560478058905574,NA,NA,NA
"experimental",11,18,"ld","upper","emission","w","w","g","g",1,0.72844801867177,NA,NA,NA
"experimental",11,19,"ld","upper","mortgage","w","w","g","g",1,0.649883079895517,NA,NA,NA
"experimental",11,20,"ld","upper","anterior","w","w","g","g",1,0.486551064648665,NA,NA,NA
"experimental",11,21,"ld","upper","omission","w","w","g","g",1,0.608228814286122,NA,NA,NA
"experimental",11,22,"ld","upper","dolphin","target","target","q","g",0,0.550240773627593,NA,NA,NA
"experimental",11,23,"ld","upper","hubris","aftertar1","w","g","q",0,0.0309473470479134,NA,NA,1
"experimental",11,24,"ld","upper","glates","aftertar2","nw","h","h",1,0.836310941973352,NA,NA,NA
"experimental",11,25,"ld","upper","tuckel","aftertar3","nw","h","h",1,0.601003400821355,NA,NA,NA
"experimental",11,26,"ld","upper","igiom","nw","nw","h","h",1,0.439717031520559,NA,NA,NA
"experimental",11,27,"ld","upper","presence","nw","w","g","g",1,0.460459344125411,NA,NA,NA
"experimental",11,28,"ld","upper","peanimate","w","nw","h","h",1,0.79934201152355,NA,NA,NA
"experimental",11,29,"ld","upper","colored","nw","w","g","g",1,0.517989778280025,NA,NA,NA
"experimental",11,30,"ld","upper","miracle","w","w","g","g",1,0.448461058636895,NA,NA,NA
"experimental",12,1,"hd","lower","dorte","nw","nw","h","h",1,0.997355528415937,NA,NA,NA
"experimental",12,2,"hd","lower","eyesight","w","w","g","g",1,0.508098414546112,NA,NA,NA
"experimental",12,3,"hd","lower","supplier","w","w","g","g",1,0.494136284803972,NA,NA,NA
"experimental",12,4,"hd","lower","intersect","w","w","g","g",1,0.68876906765945,NA,NA,NA
"experimental",12,5,"hd","lower","inversion","w","w","g","g",1,0.443570162780816,NA,NA,NA
"experimental",12,6,"hd","lower","phraining","nw","nw","h","h",1,0.591145240723563,NA,NA,NA
"experimental",12,7,"hd","lower","retreat","w","w","g","g",1,0.485889406700153,NA,NA,NA
"experimental",12,8,"hd","lower","zears","nw","nw","h","h",1,0.456524713030376,NA,NA,NA
"experimental",12,9,"hd","lower","reason","w","w","g","g",1,0.56449177502509,NA,NA,NA
"experimental",12,10,"hd","lower","ascending","w","w","g","g",1,0.828541894406953,NA,NA,NA
"experimental",12,11,"hd","lower","cogantly","nw","nw","h","h",1,0.753859064607241,NA,NA,NA
"experimental",12,12,"hd","lower","infested","w","w","g","g",1,0.617905863633496,NA,NA,NA
"experimental",12,13,"hd","lower","metebing","nw","nw","h","h",1,0.775869756187603,NA,NA,NA
"experimental",12,14,"hd","lower","atsless","nw","nw","h","h",1,0.646481216266693,NA,NA,NA
"experimental",12,15,"hd","lower","squadroim","nw","nw","h","h",1,0.523050314550346,NA,NA,NA
"experimental",12,16,"hd","lower","endgume","nw","nw","h","h",1,0.476251296167902,NA,NA,NA
"experimental",12,17,"hd","lower","unamufed","nw","nw","h","h",1,0.567389848911262,NA,NA,NA
"experimental",12,18,"hd","lower","togglo","nw","nw","h","h",1,0.375418488561991,NA,NA,NA
"experimental",12,19,"hd","lower","trecious","nw","nw","h","h",1,0.382812033160008,NA,NA,NA
"experimental",12,20,"hd","lower","bedding","w","w","g","g",1,0.604833591387433,NA,NA,NA
"experimental",12,21,"hd","lower","bamps","nw","nw","h","h",1,0.554860305222974,NA,NA,NA
"experimental",12,22,"hd","lower","humanize","w","w","g","g",1,0.675676571372605,NA,NA,NA
"experimental",12,23,"hd","lower","virulent","w","w","g","h",0,0.567528700485127,NA,NA,NA
"experimental",12,24,"hd","lower","pripend","nw","nw","h","h",1,0.879610900621628,NA,NA,NA
"experimental",12,25,"hd","lower","airmen","w","w","g","h",0,0.617864811858453,NA,NA,NA
"experimental",12,26,"hd","lower","egcused","nw","nw","h","h",1,0.591898359612969,NA,NA,NA
"experimental",12,27,"hd","lower","squirrel","target","target","q","g",0,0.438323686132208,NA,NA,NA
"experimental",12,28,"hd","lower","schinter","aftertar1","nw","h","q",0,0.498964697449992,NA,NA,1
"experimental",12,29,"hd","lower","forfeit","aftertar2","w","g","g",1,1.5493747623841,NA,NA,NA
"experimental",12,30,"hd","lower","unversed","aftertar3","w","g","h",0,0.893981736960995,NA,NA,NA
"experimental",13,1,"hd","lower","rivet","w","w","g","h",0,1.22383995742712,NA,NA,NA
"experimental",13,2,"hd","lower","checkout","w","w","g","g",1,0.645183255874144,NA,NA,NA
"experimental",13,3,"hd","lower","blerapies","nw","nw","h","h",1,0.633926920774684,NA,NA,NA
"experimental",13,4,"hd","lower","entertain","w","w","g","g",1,0.623237462321413,NA,NA,NA
"experimental",13,5,"hd","lower","harmful","w","w","g","g",1,0.724575870779518,NA,NA,NA
"experimental",13,6,"hd","lower","havel","nw","nw","h","h",1,0.565854331587616,NA,NA,NA
"experimental",13,7,"hd","lower","contain","w","w","g","g",1,0.556956964021083,NA,NA,NA
"experimental",13,8,"hd","lower","slooping","nw","nw","h","h",1,0.60583151163155,NA,NA,NA
"experimental",13,9,"hd","lower","plartly","nw","nw","h","h",1,0.6188576006316,NA,NA,NA
"experimental",13,10,"hd","lower","fuhrek","nw","nw","h","h",1,0.455715147967567,NA,NA,NA
"experimental",13,11,"hd","lower","gestalion","nw","nw","h","h",1,0.523733102076221,NA,NA,NA
"experimental",13,12,"hd","lower","greakable","nw","nw","h","h",1,0.620875778113259,NA,NA,NA
"experimental",13,13,"hd","lower","gontracts","nw","nw","h","h",1,1.04355869242863,NA,NA,NA
"experimental",13,14,"hd","lower","insertion","w","w","g","g",1,0.560443044159911,NA,NA,NA
"experimental",13,15,"hd","lower","spiud","nw","nw","h","h",1,0.87238578900724,NA,NA,NA
"experimental",13,16,"hd","lower","ounwit","nw","nw","h","h",1,0.674953939480474,NA,NA,NA
"experimental",13,17,"hd","lower","caterpillar","target","target","q","g",0,0.597802570126078,NA,NA,NA
"experimental",13,18,"hd","lower","talate","aftertar1","nw","h","h",1,0.532861385843717,NA,NA,NA
"experimental",13,19,"hd","lower","tasher","aftertar2","nw","h","h",1,0.598292474714981,NA,NA,NA
"experimental",13,20,"hd","lower","ergonomic","aftertar3","w","g","g",1,0.916958352543588,NA,NA,NA
"experimental",13,21,"hd","lower","pillage","w","w","g","g",1,0.815090496987978,NA,NA,NA
"experimental",13,22,"hd","lower","misest","w","nw","h","h",1,0.660944419090811,NA,NA,NA
"experimental",13,23,"hd","lower","envelop","nw","w","g","g",1,0.993065920250956,NA,NA,NA
"experimental",13,24,"hd","lower","create","w","w","g","g",1,0.575760787876789,NA,NA,NA
"experimental",13,25,"hd","lower","coupling","w","w","g","g",1,0.662209175839962,NA,NA,NA
"experimental",13,26,"hd","lower","seldom","w","w","g","g",1,0.706192525722145,NA,NA,NA
"experimental",13,27,"hd","lower","midday","w","w","g","g",1,0.524160825305444,NA,NA,NA
"experimental",13,28,"hd","lower","undertake","w","w","g","g",1,0.581546370856813,NA,NA,NA
"experimental",13,29,"hd","lower","beartiset","w","nw","h","h",1,0.628951808401325,NA,NA,NA
"experimental",13,30,"hd","lower","marinate","nw","w","g","g",1,0.634362492128275,NA,NA,NA
"experimental",14,1,"hd","lower","abraid","nw","nw","h","g",0,1.14219492846314,NA,NA,NA
"experimental",14,2,"hd","lower","deceit","w","w","g","g",1,0.493555221131828,NA,NA,NA
"experimental",14,3,"hd","lower","exploit","w","w","g","g",1,0.576251899874478,NA,NA,NA
"experimental",14,4,"hd","lower","gaioty","nw","nw","h","h",1,0.560324416612275,NA,NA,NA
"experimental",14,5,"hd","lower","flacked","nw","nw","h","h",1,0.736985277675558,NA,NA,NA
"experimental",14,6,"hd","lower","pleamed","nw","nw","h","h",1,0.849644315552723,NA,NA,NA
"experimental",14,7,"hd","lower","draze","nw","nw","h","h",1,0.718307023940724,NA,NA,NA
"experimental",14,8,"hd","lower","nelvet","nw","nw","h","h",1,0.647671415761579,NA,NA,NA
"experimental",14,9,"hd","lower","forecast","w","w","g","h",0,0.508494443383825,NA,NA,NA
"experimental",14,10,"hd","lower","paterways","nw","nw","h","g",0,2.47742972346168,NA,NA,NA
"experimental",14,11,"hd","lower","melodic","w","w","g","g",1,0.736912229665904,NA,NA,NA
"experimental",14,12,"hd","lower","delegate","w","w","g","g",1,0.561514616107161,NA,NA,NA
"experimental",14,13,"hd","lower","snays","nw","nw","h","h",1,0.513578825906734,NA,NA,NA
"experimental",14,14,"hd","lower","talent","w","w","g","g",1,0.571538794392836,NA,NA,NA
"experimental",14,15,"hd","lower","noblest","w","w","g","h",0,0.627004565969401,NA,NA,NA
"experimental",14,16,"hd","lower","rowel","nw","nw","h","h",1,0.632249835201947,NA,NA,NA
"experimental",14,17,"hd","lower","portify","nw","nw","h","h",1,0.757670842242078,NA,NA,NA
"experimental",14,18,"hd","lower","acorn","w","w","g","g",1,0.637710928087472,NA,NA,NA
"experimental",14,19,"hd","lower","naxis","nw","nw","h","h",1,0.961427381094836,NA,NA,NA
"experimental",14,20,"hd","lower","audience","w","w","g","g",1,0.56941859118524,NA,NA,NA
"experimental",14,21,"hd","lower","hardest","w","w","g","g",1,0.568803720183496,NA,NA,NA
"experimental",14,22,"hd","lower","spider","target","target","q","g",0,0.376151987104095,NA,NA,NA
"experimental",14,23,"hd","lower","doads","aftertar1","nw","h","h",1,1.75942942764959,NA,NA,NA
"experimental",14,24,"hd","lower","geborn","aftertar2","nw","h","g",0,0.45534900239727,NA,NA,NA
"experimental",14,25,"hd","lower","leather","aftertar3","w","g","g",1,0.403400099778082,NA,NA,NA
"experimental",14,26,"hd","lower","vivid","w","w","g","g",1,0.488231168725179,NA,NA,NA
"experimental",14,27,"hd","lower","peadgear","w","nw","h","h",1,0.530975419213064,NA,NA,NA
"experimental",14,28,"hd","lower","destroy","nw","w","g","g",1,0.515489544341108,NA,NA,NA
"experimental",14,29,"hd","lower","actual","w","w","g","g",1,0.510081879132485,NA,NA,NA
"experimental",14,30,"hd","lower","insole","w","w","g","g",1,0.768577935443318,NA,NA,NA
"experimental",15,1,"ld","upper","alomalous","nw","nw","h","h",1,0.784061395504978,NA,NA,NA
"experimental",15,2,"ld","upper","imotope","nw","nw","h","h",1,0.69478466129658,NA,NA,NA
"experimental",15,3,"ld","upper","defeat","w","w","g","g",1,0.424522141256602,NA,NA,NA
"experimental",15,4,"ld","upper","module","w","w","g","g",1,0.573736573373026,NA,NA,NA
"experimental",15,5,"ld","upper","sampling","w","w","g","g",1,0.613153819344006,NA,NA,NA
"experimental",15,6,"ld","upper","assent","w","w","g","g",1,0.611196615813242,NA,NA,NA
"experimental",15,7,"ld","upper","metrol","nw","nw","h","h",1,0.697265576745849,NA,NA,NA
"experimental",15,8,"ld","upper","function","w","w","g","g",1,0.563966251989768,NA,NA,NA
"experimental",15,9,"ld","upper","nopping","nw","nw","h","h",1,0.94797598367586,NA,NA,NA
"experimental",15,10,"ld","upper","abhorrent","w","w","g","g",1,0.683985932693759,NA,NA,NA
"experimental",15,11,"ld","upper","jiggling","w","w","g","g",1,0.446483932930278,NA,NA,NA
"experimental",15,12,"ld","upper","shamrock","w","w","g","g",1,0.435066711099353,NA,NA,NA
"experimental",15,13,"ld","upper","triplet","w","w","g","g",1,0.599753736634739,NA,NA,NA
"experimental",15,14,"ld","upper","topefuls","nw","nw","h","h",1,0.646458577422891,NA,NA,NA
"experimental",15,15,"ld","upper","withep","nw","nw","h","h",1,0.61919114626653,NA,NA,NA
"experimental",15,16,"ld","upper","surdens","nw","nw","h","h",1,0.504543512324744,NA,NA,NA
"experimental",15,17,"ld","upper","yash","nw","nw","h","h",1,0.546593203085649,NA,NA,NA
"experimental",15,18,"ld","upper","knowledge","w","w","g","g",1,0.699327220812847,NA,NA,NA
"experimental",15,19,"ld","upper","permute","w","w","g","g",1,1.02083502819733,NA,NA,NA
"experimental",15,20,"ld","upper","batire","nw","nw","h","h",1,0.570229967357591,NA,NA,NA
"experimental",15,21,"ld","upper","flieves","nw","nw","h","g",0,0.737942146144633,NA,NA,NA
"experimental",15,22,"ld","upper","shests","nw","nw","h","h",1,0.649046951919445,NA,NA,NA
"experimental",15,23,"ld","upper","refebs","nw","nw","h","h",1,0.597794721994433,NA,NA,NA
"experimental",15,24,"ld","upper","cavern","w","w","g","g",1,0.748432986474654,NA,NA,NA
"experimental",15,25,"ld","upper","guffy","nw","nw","h","h",1,1.05319982147194,NA,NA,NA
"experimental",15,26,"ld","upper","pimorous","nw","nw","h","h",1,0.609121086592495,NA,NA,NA
"experimental",15,27,"ld","upper","earnest","w","w","g","g",1,0.719368634803686,NA,NA,NA
"experimental",15,28,"ld","upper","season","w","w","g","g",1,0.456647264647472,NA,NA,NA
"experimental",15,29,"ld","upper","stuggard","nw","nw","h","h",1,0.660637738212245,NA,NA,NA
"experimental",15,30,"ld","upper","ordinary","w","w","g","g",1,0.464713635694352,NA,NA,NA
"experimental",16,1,"ld","upper","irfirm","nw","nw","h","h",1,0.820531063982344,NA,NA,NA
"experimental",16,2,"ld","upper","violate","w","w","g","g",1,0.417852134109125,NA,NA,NA
"experimental",16,3,"ld","upper","arrival","w","w","g","g",1,0.399268057968584,NA,NA,NA
"experimental",16,4,"ld","upper","century","w","w","g","g",1,0.477930192835629,NA,NA,NA
"experimental",16,5,"ld","upper","defensa","nw","nw","h","h",1,0.43235035167163,NA,NA,NA
"experimental",16,6,"ld","upper","ethical","w","w","g","g",1,0.50964328925329,NA,NA,NA
"experimental",16,7,"ld","upper","rejoiced","w","w","g","g",1,0.551599104277557,NA,NA,NA
"experimental",16,8,"ld","upper","migmarole","nw","nw","h","h",1,0.527753458933148,NA,NA,NA
"experimental",16,9,"ld","upper","bamboo","w","w","g","g",1,0.537099377448612,NA,NA,NA
"experimental",16,10,"ld","upper","priant","nw","nw","h","h",1,0.657765925388958,NA,NA,NA
"experimental",16,11,"ld","upper","farochial","nw","nw","h","h",1,0.429919543523283,NA,NA,NA
"experimental",16,12,"ld","upper","rangel","nw","nw","h","h",1,0.602016413635283,NA,NA,NA
"experimental",16,13,"ld","upper","boutique","w","w","g","h",0,0.399665596065461,NA,NA,NA
"experimental",16,14,"ld","upper","slending","nw","nw","h","g",0,0.63920750660327,NA,NA,NA
"experimental",16,15,"ld","upper","veclors","nw","nw","h","h",1,0.50843346943293,NA,NA,NA
"experimental",16,16,"ld","upper","inverted","w","w","g","g",1,0.709593181949458,NA,NA,NA
"experimental",16,17,"ld","upper","podges","nw","nw","h","h",1,0.711515974435315,NA,NA,NA
"experimental",16,18,"ld","upper","fillings","w","w","g","g",1,1.02557228177466,NA,NA,NA
"experimental",16,19,"ld","upper","redefloy","nw","nw","h","h",1,0.598949906750931,NA,NA,NA
"experimental",16,20,"ld","upper","unmarked","w","w","g","g",1,0.573604664372397,NA,NA,NA
"experimental",16,21,"ld","upper","sheerio","nw","nw","h","h",1,0.836978033243213,NA,NA,NA
"experimental",16,22,"ld","upper","quittint","nw","nw","h","h",1,0.537690100354666,NA,NA,NA
"experimental",16,23,"ld","upper","statute","w","w","g","g",1,0.897557768767001,NA,NA,NA
"experimental",16,24,"ld","upper","cartles","nw","nw","h","h",1,0.532137546535523,NA,NA,NA
"experimental",16,25,"ld","upper","machinery","w","w","g","g",1,0.645449186828046,NA,NA,NA
"experimental",16,26,"ld","upper","record","w","w","g","g",1,0.546077641141892,NA,NA,NA
"experimental",16,27,"ld","upper","living","w","w","g","g",1,0.54685128590063,NA,NA,NA
"experimental",16,28,"ld","upper","fallint","nw","nw","h","h",1,0.73148584968294,NA,NA,NA
"experimental",16,29,"ld","upper","brouhuha","nw","nw","h","h",1,0.612879436550429,NA,NA,NA
"experimental",16,30,"ld","upper","persona","w","w","g","g",1,0.770934186330123,NA,NA,NA
"experimental",17,1,"ld","upper","collute","nw","nw","h","h",1,0.722102501611516,NA,NA,NA
"experimental",17,2,"ld","upper","fetching","w","w","g","g",1,0.555445292950026,NA,NA,NA
"experimental",17,3,"ld","upper","dorth","nw","nw","h","h",1,0.579507365640893,NA,NA,NA
"experimental",17,4,"ld","upper","gund","nw","nw","h","h",1,0.78561653316865,NA,NA,NA
"experimental",17,5,"ld","upper","alchemist","w","w","g","g",1,0.968401654310583,NA,NA,NA
"experimental",17,6,"ld","upper","patio","w","w","g","g",1,0.704340366435645,NA,NA,NA
"experimental",17,7,"ld","upper","equitable","w","w","g","g",1,0.858745734556578,NA,NA,NA
"experimental",17,8,"ld","upper","failure","w","w","g","g",1,0.447027868882287,NA,NA,NA
"experimental",17,9,"ld","upper","ciping","nw","nw","h","h",1,0.562815293160384,NA,NA,NA
"experimental",17,10,"ld","upper","kettle","w","w","g","g",1,0.778729796809785,NA,NA,NA
"experimental",17,11,"ld","upper","exemplify","w","w","g","g",1,0.594119984831195,NA,NA,NA
"experimental",17,12,"ld","upper","personify","w","w","g","g",1,0.424895833115443,NA,NA,NA
"experimental",17,13,"ld","upper","detrabe","nw","nw","h","h",1,0.52619651016721,NA,NA,NA
"experimental",17,14,"ld","upper","chyme","nw","nw","h","h",1,0.82353599320777,NA,NA,NA
"experimental",17,15,"ld","upper","walsams","nw","nw","h","h",1,0.524932055261161,NA,NA,NA
"experimental",17,16,"ld","upper","binder","w","w","g","g",1,0.566340312099783,NA,NA,NA
"experimental",17,17,"ld","upper","dariner","nw","nw","h","h",1,0.486346409496036,NA,NA,NA
"experimental",17,18,"ld","upper","amidst","w","w","g","g",1,0.784033625190204,NA,NA,NA
"experimental",17,19,"ld","upper","ringlat","nw","nw","h","h",1,0.646738997238572,NA,NA,NA
"experimental",17,20,"ld","upper","previous","w","w","g","g",1,0.771430731641885,NA,NA,NA
"experimental",17,21,"ld","upper","beggarlan","nw","nw","h","h",1,0.498862671731331,NA,NA,NA
"experimental",17,22,"ld","upper","veirs","nw","nw","h","h",1,0.861456056962197,NA,NA,NA
"experimental",17,23,"ld","upper","gumdrep","nw","nw","h","h",1,0.609541867233929,NA,NA,NA
"experimental",17,24,"ld","upper","nogwhell","nw","nw","h","h",1,0.463547282444779,NA,NA,NA
"experimental",17,25,"ld","upper","unrealon","nw","nw","h","h",1,0.707560515613295,NA,NA,NA
"experimental",17,26,"ld","upper","buttress","w","w","g","h",0,0.84469093647931,NA,NA,NA
"experimental",17,27,"ld","upper","column","w","w","g","g",1,0.594383500982076,NA,NA,NA
"experimental",17,28,"ld","upper","worps","nw","nw","h","h",1,0.720150127701345,NA,NA,NA
"experimental",17,29,"ld","upper","demon","w","w","g","g",1,0.609428974872571,NA,NA,NA
"experimental",17,30,"ld","upper","resonant","w","w","g","g",1,0.903586945707502,NA,NA,NA
"experimental",18,1,"ld","upper","lightels","nw","nw","h","h",1,0.560682714050927,NA,NA,NA
"experimental",18,2,"ld","upper","elalt","nw","nw","h","h",1,0.49757950205094,NA,NA,NA
"experimental",18,3,"ld","upper","owner","w","w","g","g",1,0.491307033000339,NA,NA,NA
"experimental",18,4,"ld","upper","paying","w","w","g","g",1,0.782066762418253,NA,NA,NA
"experimental",18,5,"ld","upper","dileting","nw","nw","h","h",1,0.685538051839103,NA,NA,NA
"experimental",18,6,"ld","upper","lanthers","nw","nw","h","h",1,0.704133296479995,NA,NA,NA
"experimental",18,7,"ld","upper","expensive","w","w","g","g",1,0.546214983463869,NA,NA,NA
"experimental",18,8,"ld","upper","maunches","nw","nw","h","h",1,0.634817381971516,NA,NA,NA
"experimental",18,9,"ld","upper","scabry","nw","nw","h","h",1,0.423466567430296,NA,NA,NA
"experimental",18,10,"ld","upper","bloodless","w","w","g","g",1,0.501034793356666,NA,NA,NA
"experimental",18,11,"ld","upper","susher","nw","nw","h","h",1,0.663033229764551,NA,NA,NA
"experimental",18,12,"ld","upper","overcoat","w","w","g","g",1,0.498914891999448,NA,NA,NA
"experimental",18,13,"ld","upper","sength","nw","nw","h","h",1,0.540626811198308,NA,NA,NA
"experimental",18,14,"ld","upper","bother","w","w","g","g",1,0.445389118423918,NA,NA,NA
"experimental",18,15,"ld","upper","sliding","w","w","g","g",1,0.48202601250523,NA,NA,NA
"experimental",18,16,"ld","upper","extend","w","w","g","g",1,0.485400407662382,NA,NA,NA
"experimental",18,17,"ld","upper","horks","nw","nw","h","h",1,0.624086268049723,NA,NA,NA
"experimental",18,18,"ld","upper","whirlpool","w","w","g","g",1,0.41349551496387,NA,NA,NA
"experimental",18,19,"ld","upper","nauling","nw","nw","h","h",1,0.491495991889678,NA,NA,NA
"experimental",18,20,"ld","upper","finstrel","nw","nw","h","h",1,0.493416973265994,NA,NA,NA
"experimental",18,21,"ld","upper","egect","nw","nw","h","h",1,0.631983904248045,NA,NA,NA
"experimental",18,22,"ld","upper","roughly","w","w","g","g",1,0.44626267595595,NA,NA,NA
"experimental",18,23,"ld","upper","efficient","w","w","g","g",1,0.449973937124014,NA,NA,NA
"experimental",18,24,"ld","upper","downtrund","nw","nw","h","h",1,0.565475810108182,NA,NA,NA
"experimental",18,25,"ld","upper","inforl","nw","nw","h","h",1,0.805428238352761,NA,NA,NA
"experimental",18,26,"ld","upper","forgery","w","w","g","g",1,0.572210413432913,NA,NA,NA
"experimental",18,27,"ld","upper","spaceship","w","w","g","g",1,0.532193087172345,NA,NA,NA
"experimental",18,28,"ld","upper","scrooner","nw","nw","h","h",1,0.613419750297908,NA,NA,NA
"experimental",18,29,"ld","upper","seasoning","w","w","g","h",0,0.459507908977685,NA,NA,NA
"experimental",18,30,"ld","upper","subpoena","w","w","g","g",1,0.750107959080196,NA,NA,NA
"experimental",19,1,"hd","lower","fravity","nw","nw","h","h",1,0.790621226951771,NA,NA,NA
"experimental",19,2,"hd","lower","smallash","nw","nw","h","h",1,0.461328072036849,NA,NA,NA
"experimental",19,3,"hd","lower","glattery","nw","nw","h","h",1,0.473357146343915,NA,NA,NA
"experimental",19,4,"hd","lower","mustled","nw","nw","h","h",1,0.428726023674244,NA,NA,NA
"experimental",19,5,"hd","lower","managed","w","w","g","g",1,0.562072135369817,NA,NA,NA
"experimental",19,6,"hd","lower","cherry","w","w","g","g",1,0.425217908399645,NA,NA,NA
"experimental",19,7,"hd","lower","pracking","nw","nw","h","h",1,0.766550098720472,NA,NA,NA
"experimental",19,8,"hd","lower","unwose","nw","nw","h","h",1,0.48647771479591,NA,NA,NA
"experimental",19,9,"hd","lower","stable","w","w","g","g",1,0.513245883972559,NA,NA,NA
"experimental",19,10,"hd","lower","footstep","w","w","g","g",1,0.45936815184541,NA,NA,NA
"experimental",19,11,"hd","lower","category","w","w","g","g",1,0.423249838226184,NA,NA,NA
"experimental",19,12,"hd","lower","pender","nw","nw","h","h",1,0.620642748945102,NA,NA,NA
"experimental",19,13,"hd","lower","crimb","nw","nw","h","g",0,0.538036323741835,NA,NA,NA
"experimental",19,14,"hd","lower","mopping","w","w","g","g",1,0.898686692453339,NA,NA,NA
"experimental",19,15,"hd","lower","repayment","w","w","g","g",1,0.693427538055403,NA,NA,NA
"experimental",19,16,"hd","lower","obviously","w","w","g","g",1,0.400126522930805,NA,NA,NA
"experimental",19,17,"hd","lower","anonymous","w","w","g","g",1,0.652537257970835,NA,NA,NA
"experimental",19,18,"hd","lower","recipus","nw","nw","h","h",1,0.728554270302993,NA,NA,NA
"experimental",19,19,"hd","lower","relaying","w","w","g","g",1,0.562566869579314,NA,NA,NA
"experimental",19,20,"hd","lower","deadly","w","w","g","g",1,0.611201747276937,NA,NA,NA
"experimental",19,21,"hd","lower","hodels","nw","nw","h","h",1,0.577304153339355,NA,NA,NA
"experimental",19,22,"hd","lower","peems","nw","nw","h","h",1,0.560614193818765,NA,NA,NA
"experimental",19,23,"hd","lower","eightiech","nw","nw","h","h",1,0.736677993096237,NA,NA,NA
"experimental",19,24,"hd","lower","brimitive","nw","nw","h","h",1,0.784554318597657,NA,NA,NA
"experimental",19,25,"hd","lower","lancos","nw","nw","h","h",1,0.431164981804613,NA,NA,NA
"experimental",19,26,"hd","lower","committed","w","w","g","h",0,0.581413858155429,NA,NA,NA
"experimental",19,27,"hd","lower","forbid","w","w","g","g",1,0.683760147949215,NA,NA,NA
"experimental",19,28,"hd","lower","upstairs","w","w","g","g",1,0.543148476579518,NA,NA,NA
"experimental",19,29,"hd","lower","grieving","w","w","g","g",1,0.47189346961386,NA,NA,NA
"experimental",19,30,"hd","lower","seighing","nw","nw","h","g",0,0.667205417797959,NA,NA,NA
"experimental",20,1,"hd","lower","ebciting","nw","nw","h","h",1,0.678816126266611,NA,NA,NA
"experimental",20,2,"hd","lower","prillway","nw","nw","h","h",1,0.481095706934866,NA,NA,NA
"experimental",20,3,"hd","lower","carbled","nw","nw","h","h",1,0.660463268191961,NA,NA,NA
"experimental",20,4,"hd","lower","omners","nw","nw","h","h",1,0.888488949698512,NA,NA,NA
"experimental",20,5,"hd","lower","fidelity","w","w","g","g",1,0.603185785388632,NA,NA,NA
"experimental",20,6,"hd","lower","railroad","w","w","g","g",1,0.47327775946178,NA,NA,NA
"experimental",20,7,"hd","lower","superstar","w","w","g","g",1,0.460548390241456,NA,NA,NA
"experimental",20,8,"hd","lower","sording","nw","nw","h","h",1,0.46461825069855,NA,NA,NA
"experimental",20,9,"hd","lower","arrive","w","w","g","g",1,0.395879173942376,NA,NA,NA
"experimental",20,10,"hd","lower","bickering","w","w","g","h",0,0.521101562851982,NA,NA,NA
"experimental",20,11,"hd","lower","germeated","nw","nw","h","h",1,1.00256125514716,NA,NA,NA
"experimental",20,12,"hd","lower","uncorked","w","w","g","g",1,0.569162621322903,NA,NA,NA
"experimental",20,13,"hd","lower","ottans","nw","nw","h","h",1,0.545139789297536,NA,NA,NA
"experimental",20,14,"hd","lower","offonents","nw","nw","h","h",1,0.489884709895705,NA,NA,NA
"experimental",20,15,"hd","lower","sonnet","w","w","g","g",1,0.66061208085739,NA,NA,NA
"experimental",20,16,"hd","lower","traze","nw","nw","h","h",1,0.576657587953378,NA,NA,NA
"experimental",20,17,"hd","lower","protest","w","w","g","g",1,0.456020621437347,NA,NA,NA
"experimental",20,18,"hd","lower","setwixt","nw","nw","h","h",1,0.556086123164278,NA,NA,NA
"experimental",20,19,"hd","lower","mubby","nw","nw","h","h",1,0.796075075406407,NA,NA,NA
"experimental",20,20,"hd","lower","frowsed","nw","nw","h","h",1,0.617836135992547,NA,NA,NA
"experimental",20,21,"hd","lower","mandlers","nw","nw","h","h",1,0.639102160515904,NA,NA,NA
"experimental",20,22,"hd","lower","surround","w","w","g","g",1,0.507796865145792,NA,NA,NA
"experimental",20,23,"hd","lower","restock","w","w","g","g",1,0.461828541410796,NA,NA,NA
"experimental",20,24,"hd","lower","calcify","w","w","g","g",1,0.777787115344836,NA,NA,NA
"experimental",20,25,"hd","lower","causality","w","w","g","g",1,0.665162186662201,NA,NA,NA
"experimental",20,26,"hd","lower","number","w","w","g","g",1,0.493241295829648,NA,NA,NA
"experimental",20,27,"hd","lower","maintain","w","w","g","g",1,0.799945412174566,NA,NA,NA
"experimental",20,28,"hd","lower","racile","nw","nw","h","h",1,0.790553008569987,NA,NA,NA
"experimental",20,29,"hd","lower","armada","w","w","g","h",0,0.541353669017553,NA,NA,NA
"experimental",20,30,"hd","lower","butterfly","target","target","q","g",0,0.525159047407215,NA,NA,NA
"experimental",21,1,"ld","upper","culinary","w","w","g","g",1,0.655263276639744,NA,NA,NA
"experimental",21,2,"ld","upper","angry","w","w","g","g",1,0.443262878201494,NA,NA,NA
"experimental",21,3,"ld","upper","exit","w","w","g","g",1,0.461889213511313,NA,NA,NA
"experimental",21,4,"ld","upper","digar","nw","nw","h","h",1,0.44962318596663,NA,NA,NA
"experimental",21,5,"ld","upper","fards","nw","nw","h","h",1,0.495960070074943,NA,NA,NA
"experimental",21,6,"ld","upper","miurnal","nw","nw","h","h",1,0.54624033896107,NA,NA,NA
"experimental",21,7,"ld","upper","chight","nw","nw","h","h",1,0.459115502344503,NA,NA,NA
"experimental",21,8,"ld","upper","erlighten","nw","nw","h","h",1,0.575146520583075,NA,NA,NA
"experimental",21,9,"ld","upper","measure","w","w","g","g",1,0.518474551390682,NA,NA,NA
"experimental",21,10,"ld","upper","octopus","target","target","q","g",0,0.479939012933755,NA,NA,NA
"experimental",21,11,"ld","upper","itself","aftertar1","w","g","h",0,1.699276811647,NA,NA,NA
"experimental",21,12,"ld","upper","treenery","aftertar2","nw","h","h",1,0.870047951044398,NA,NA,NA
"experimental",21,13,"ld","upper","govern","aftertar3","w","g","g",1,0.792407280823682,NA,NA,NA
"experimental",21,14,"ld","upper","mogus","w","nw","h","h",1,0.487146315317659,NA,NA,NA
"experimental",21,15,"ld","upper","glaims","nw","nw","h","h",1,0.505583691745414,NA,NA,NA
"experimental",21,16,"ld","upper","huntry","nw","nw","h","h",1,0.595661237341119,NA,NA,NA
"experimental",21,17,"ld","upper","loached","nw","nw","h","h",1,0.818368903448572,NA,NA,NA
"experimental",21,18,"ld","upper","afford","nw","w","g","g",1,0.631731254747137,NA,NA,NA
"experimental",21,19,"ld","upper","noils","w","nw","h","h",1,0.557135961818858,NA,NA,NA
"experimental",21,20,"ld","upper","gablus","nw","nw","h","h",1,0.477174961000856,NA,NA,NA
"experimental",21,21,"ld","upper","acting","nw","w","g","g",1,0.576578201078519,NA,NA,NA
"experimental",21,22,"ld","upper","mitten","w","w","g","h",0,0.903181257614051,NA,NA,NA
"experimental",21,23,"ld","upper","incorrect","w","w","g","g",1,0.713974854748813,NA,NA,NA
"experimental",21,24,"ld","upper","oleandur","w","nw","h","h",1,0.547107255770243,NA,NA,NA
"experimental",21,25,"ld","upper","probable","nw","w","g","g",1,0.571677645973978,NA,NA,NA
"experimental",21,26,"ld","upper","elvisages","w","nw","h","h",1,0.555048962254659,NA,NA,NA
"experimental",21,27,"ld","upper","larger","nw","w","g","g",1,0.555110238055931,NA,NA,NA
"experimental",21,28,"ld","upper","maroon","w","w","g","h",0,0.523123664403101,NA,NA,NA
"experimental",21,29,"ld","upper","baladroit","w","nw","h","h",1,0.524516406083421,NA,NA,NA
"experimental",21,30,"ld","upper","unbridled","nw","w","g","g",1,0.644725951227883,NA,NA,NA
"experimental",22,1,"hd","lower","purport","w","w","g","h",0,0.593510547158075,NA,NA,NA
"experimental",22,2,"hd","lower","wimpid","nw","nw","h","h",1,0.432189766805095,NA,NA,NA
"experimental",22,3,"hd","lower","preclude","w","w","g","g",1,0.517772445367882,NA,NA,NA
"experimental",22,4,"hd","lower","slowning","nw","nw","h","g",0,0.478935961218667,NA,NA,NA
"experimental",22,5,"hd","lower","iolize","nw","nw","h","h",1,0.586362407608249,NA,NA,NA
"experimental",22,6,"hd","lower","typical","w","w","g","g",1,0.585092217537749,NA,NA,NA
"experimental",22,7,"hd","lower","alticles","nw","nw","h","g",0,0.52771904788824,NA,NA,NA
"experimental",22,8,"hd","lower","garment","w","w","g","g",1,0.529063795227557,NA,NA,NA
"experimental",22,9,"hd","lower","fraft","nw","nw","h","h",1,0.553551478180452,NA,NA,NA
"experimental",22,10,"hd","lower","party","w","w","g","g",1,0.625429807980254,NA,NA,NA
"experimental",22,11,"hd","lower","tapling","nw","nw","h","h",1,0.846809630435018,NA,NA,NA
"experimental",22,12,"hd","lower","scrib","nw","nw","h","h",1,0.531503960752161,NA,NA,NA
"experimental",22,13,"hd","lower","trembla","nw","nw","h","h",1,0.98890610813396,NA,NA,NA
"experimental",22,14,"hd","lower","lentils","w","w","g","h",0,0.531565236560709,NA,NA,NA
"experimental",22,15,"hd","lower","ganter","nw","nw","h","h",1,1.22901459346758,NA,NA,NA
"experimental",22,16,"hd","lower","fission","w","w","g","g",1,0.609499004363897,NA,NA,NA
"experimental",22,17,"hd","lower","hivinity","nw","nw","h","h",1,0.512400398605678,NA,NA,NA
"experimental",22,18,"hd","lower","educate","w","w","g","g",1,0.561420740363246,NA,NA,NA
"experimental",22,19,"hd","lower","neally","nw","nw","h","h",1,0.545495370075514,NA,NA,NA
"experimental",22,20,"hd","lower","gensions","nw","nw","h","h",1,0.546141029903083,NA,NA,NA
"experimental",22,21,"hd","lower","trallion","nw","nw","h","h",1,0.72280913538998,NA,NA,NA
"experimental",22,22,"hd","lower","hangar","w","w","g","g",1,0.546902600617614,NA,NA,NA
"experimental",22,23,"hd","lower","consonant","w","w","g","h",0,0.707761548539565,NA,NA,NA
"experimental",22,24,"hd","lower","recollect","w","w","g","g",1,0.518360753470915,NA,NA,NA
"experimental",22,25,"hd","lower","painter","w","w","g","h",0,0.456254556156637,NA,NA,NA
"experimental",22,26,"hd","lower","ugifies","nw","nw","h","h",1,0.523408008280967,NA,NA,NA
"experimental",22,27,"hd","lower","happen","w","w","g","g",1,0.429581470118137,NA,NA,NA
"experimental",22,28,"hd","lower","moral","w","w","g","g",1,0.513910862282501,NA,NA,NA
"experimental",22,29,"hd","lower","coyote","target","target","q","g",0,0.556016697366431,NA,NA,NA
"experimental",22,30,"hd","lower","stelled","aftertar1","nw","h","h",1,2.56888461631752,NA,NA,NA
"experimental",23,1,"hd","lower","cemoir","nw","nw","h","h",1,2.186617471918,NA,NA,NA
"experimental",23,2,"hd","lower","ebince","nw","nw","h","h",1,0.44929869587213,NA,NA,NA
"experimental",23,3,"hd","lower","apop","nw","nw","h","h",1,0.43792826099525,NA,NA,NA
"experimental",23,4,"hd","lower","dishwater","w","w","g","g",1,1.14663063264015,NA,NA,NA
"experimental",23,5,"hd","lower","treason","w","w","g","g",1,0.507351936394116,NA,NA,NA
"experimental",23,6,"hd","lower","befin","nw","nw","h","h",1,0.517420486816263,NA,NA,NA
"experimental",23,7,"hd","lower","puyer","nw","nw","h","h",1,0.446770993468817,NA,NA,NA
"experimental",23,8,"hd","lower","pallir","nw","nw","h","h",1,0.37148657412763,NA,NA,NA
"experimental",23,9,"hd","lower","fudden","nw","nw","h","h",1,0.377922344705439,NA,NA,NA
"experimental",23,10,"hd","lower","divider","w","w","g","h",0,0.562270149799588,NA,NA,NA
"experimental",23,11,"hd","lower","rabbit","target","target","q","g",0,0.46520746434544,NA,NA,NA
"experimental",23,12,"hd","lower","dests","aftertar1","nw","h","h",1,1.97330190756475,NA,NA,NA
"experimental",23,13,"hd","lower","gonesty","aftertar2","nw","h","h",1,0.507483543537091,NA,NA,NA
"experimental",23,14,"hd","lower","attended","aftertar3","w","g","g",1,0.701668077279464,NA,NA,NA
"experimental",23,15,"hd","lower","nollow","w","nw","h","g",0,0.544285852098255,NA,NA,NA
"experimental",23,16,"hd","lower","skiing","nw","w","g","g",1,0.593606535847357,NA,NA,NA
"experimental",23,17,"hd","lower","wrestle","w","w","g","g",1,0.552120703243418,NA,NA,NA
"experimental",23,18,"hd","lower","correct","w","w","g","g",1,0.583348422842391,NA,NA,NA
"experimental",23,19,"hd","lower","gaining","w","w","g","g",1,0.918453723657876,NA,NA,NA
"experimental",23,20,"hd","lower","sequence","w","w","g","g",1,0.503818767465418,NA,NA,NA
"experimental",23,21,"hd","lower","volition","w","w","g","g",1,0.897966173513851,NA,NA,NA
"experimental",23,22,"hd","lower","prame","w","nw","h","h",1,0.524617828101327,NA,NA,NA
"experimental",23,23,"hd","lower","other","nw","w","g","g",1,0.461989126277331,NA,NA,NA
"experimental",23,24,"hd","lower","clattest","w","nw","h","h",1,0.586072026701004,NA,NA,NA
"experimental",23,25,"hd","lower","finish","nw","w","g","g",1,0.704752997102332,NA,NA,NA
"experimental",23,26,"hd","lower","hatred","w","w","g","g",1,0.538754729721404,NA,NA,NA
"experimental",23,27,"hd","lower","tinion","w","nw","h","h",1,0.51454474991624,NA,NA,NA
"experimental",23,28,"hd","lower","elormity","nw","nw","h","h",1,0.517648988214205,NA,NA,NA
"experimental",23,29,"hd","lower","encrusted","nw","w","g","h",0,0.581784531503217,NA,NA,NA
"experimental",23,30,"hd","lower","unlined","w","w","g","g",1,1.07712696665112,NA,NA,NA
"experimental",24,1,"hd","lower","brudent","nw","nw","h","h",1,0.960329246227047,NA,NA,NA
"experimental",24,2,"hd","lower","bropic","nw","nw","h","h",1,0.456220446969382,NA,NA,NA
"experimental",24,3,"hd","lower","bullet","w","w","g","g",1,0.588262561257579,NA,NA,NA
"experimental",24,4,"hd","lower","sunshine","w","w","g","g",1,0.619001583683712,NA,NA,NA
"experimental",24,5,"hd","lower","imprives","nw","nw","h","h",1,0.727077312119945,NA,NA,NA
"experimental",24,6,"hd","lower","uncounted","w","w","g","g",1,0.744699992021197,NA,NA,NA
"experimental",24,7,"hd","lower","smolvers","nw","nw","h","h",1,0.514057561988011,NA,NA,NA
"experimental",24,8,"hd","lower","scarlet","w","w","g","g",1,0.988400205424114,NA,NA,NA
"experimental",24,9,"hd","lower","hegacy","nw","nw","h","h",1,0.611073158652289,NA,NA,NA
"experimental",24,10,"hd","lower","lizard","target","target","q","g",0,0.601113576529315,NA,NA,NA
"experimental",24,11,"hd","lower","oldest","aftertar1","w","g","q",0,0.286215707899828,NA,NA,1
"experimental",24,12,"hd","lower","sponto","aftertar2","nw","h","h",1,0.521807894787344,NA,NA,NA
"experimental",24,13,"hd","lower","stagger","aftertar3","w","g","g",1,0.57019072669209,NA,NA,NA
"experimental",24,14,"hd","lower","hecture","w","nw","h","h",1,0.841522705719399,NA,NA,NA
"experimental",24,15,"hd","lower","rewrite","nw","w","g","g",1,0.486243176368589,NA,NA,NA
"experimental",24,16,"hd","lower","result","w","w","g","g",1,0.688953498778574,NA,NA,NA
"experimental",24,17,"hd","lower","opert","w","nw","h","h",1,0.531608703146048,NA,NA,NA
"experimental",24,18,"hd","lower","acidic","nw","w","g","g",1,0.701101200633275,NA,NA,NA
"experimental",24,19,"hd","lower","elderly","w","w","g","h",0,0.511084327146818,NA,NA,NA
"experimental",24,20,"hd","lower","nomma","w","nw","h","g",0,0.529126882138371,NA,NA,NA
"experimental",24,21,"hd","lower","urgent","nw","w","g","g",1,0.465543726641044,NA,NA,NA
"experimental",24,22,"hd","lower","erony","w","nw","h","h",1,0.749556476839643,NA,NA,NA
"experimental",24,23,"hd","lower","begut","nw","nw","h","h",1,0.526195302758424,NA,NA,NA
"experimental",24,24,"hd","lower","amkles","nw","nw","h","h",1,0.599571418475534,NA,NA,NA
"experimental",24,25,"hd","lower","integral","nw","w","g","g",1,0.526304874765628,NA,NA,NA
"experimental",24,26,"hd","lower","rillains","w","nw","h","h",1,0.487584301488823,NA,NA,NA
"experimental",24,27,"hd","lower","thesis","nw","w","g","g",1,0.522292667898,NA,NA,NA
"experimental",24,28,"hd","lower","thorifies","w","nw","h","h",1,0.451761198397435,NA,NA,NA
"experimental",24,29,"hd","lower","caloric","nw","w","g","g",1,0.67974703553773,NA,NA,NA
"experimental",24,30,"hd","lower","series","w","w","g","g",1,0.546196872383007,NA,NA,NA
"experimental",25,1,"ld","upper","appain","nw","nw","h","h",1,0.595682366918481,NA,NA,NA
"experimental",25,2,"ld","upper","veranpah","nw","nw","h","h",1,0.426285254434333,NA,NA,NA
"experimental",25,3,"ld","upper","define","w","w","g","g",1,0.511569402107853,NA,NA,NA
"experimental",25,4,"ld","upper","earmaff","nw","nw","h","h",1,0.441583377825736,NA,NA,NA
"experimental",25,5,"ld","upper","ignoble","w","w","g","h",0,0.566224401220097,NA,NA,NA
"experimental",25,6,"ld","upper","fuack","nw","nw","h","h",1,0.470214572946134,NA,NA,NA
"experimental",25,7,"ld","upper","doxing","nw","nw","h","h",1,0.672604933024559,NA,NA,NA
"experimental",25,8,"ld","upper","disperse","w","w","g","g",1,0.54785675243329,NA,NA,NA
"experimental",25,9,"ld","upper","lifetime","w","w","g","g",1,0.532588512316579,NA,NA,NA
"experimental",25,10,"ld","upper","potatoes","w","w","g","g",1,0.565914098129724,NA,NA,NA
"experimental",25,11,"ld","upper","tunneg","nw","nw","h","h",1,0.581931533059105,NA,NA,NA
"experimental",25,12,"ld","upper","atabaster","nw","nw","h","h",1,0.461326562777686,NA,NA,NA
"experimental",25,13,"ld","upper","charcoal","w","w","g","g",1,0.489341679487552,NA,NA,NA
"experimental",25,14,"ld","upper","ludictous","nw","nw","h","h",1,0.708067323859723,NA,NA,NA
"experimental",25,15,"ld","upper","overflow","w","w","g","g",1,1.12607094004488,NA,NA,NA
"experimental",25,16,"ld","upper","collision","w","w","g","h",0,0.559513342290302,NA,NA,NA
"experimental",25,17,"ld","upper","frigs","nw","nw","h","g",0,0.558574283044436,NA,NA,NA
"experimental",25,18,"ld","upper","turntable","w","w","g","g",1,1.06255630478699,NA,NA,NA
"experimental",25,19,"ld","upper","sodent","nw","nw","h","h",1,0.594612606080773,NA,NA,NA
"experimental",25,20,"ld","upper","snife","nw","nw","h","h",1,0.625362495149602,NA,NA,NA
"experimental",25,21,"ld","upper","trooper","w","w","g","g",1,0.542685134896601,NA,NA,NA
"experimental",25,22,"ld","upper","extruded","w","w","g","h",0,0.415494072112779,NA,NA,NA
"experimental",25,23,"ld","upper","professor","w","w","g","g",1,0.605523925201851,NA,NA,NA
"experimental",25,24,"ld","upper","nearsipe","nw","nw","h","h",1,0.531450834940188,NA,NA,NA
"experimental",25,25,"ld","upper","legalosm","nw","nw","h","h",1,0.466844705551921,NA,NA,NA
"experimental",25,26,"ld","upper","deficit","w","w","g","g",1,0.718733841618814,NA,NA,NA
"experimental",25,27,"ld","upper","shillac","nw","nw","h","h",1,0.568646757528768,NA,NA,NA
"experimental",25,28,"ld","upper","amaze","w","w","g","g",1,0.44869559705694,NA,NA,NA
"experimental",25,29,"ld","upper","engineer","w","w","g","g",1,0.605230827633932,NA,NA,NA
"experimental",25,30,"ld","upper","bureaug","nw","nw","h","h",1,0.539242521350388,NA,NA,NA
"experimental",26,1,"ld","upper","eugenifs","nw","nw","h","h",1,0.851776592804526,NA,NA,NA
"experimental",26,2,"ld","upper","apticle","nw","nw","h","h",1,0.527787869978056,NA,NA,NA
"experimental",26,3,"ld","upper","felevance","nw","nw","h","h",1,0.593133534937806,NA,NA,NA
"experimental",26,4,"ld","upper","mineluyer","nw","nw","h","h",1,0.599849725331296,NA,NA,NA
"experimental",26,5,"ld","upper","razelle","nw","nw","h","h",1,0.566576057928614,NA,NA,NA
"experimental",26,6,"ld","upper","tenpince","nw","nw","h","h",1,0.526574126080959,NA,NA,NA
"experimental",26,7,"ld","upper","frogmy","nw","nw","h","h",1,0.575963631919876,NA,NA,NA
"experimental",26,8,"ld","upper","rainfall","w","w","g","g",1,0.799349557804817,NA,NA,NA
"experimental",26,9,"ld","upper","intercede","w","w","g","g",1,0.534022305764665,NA,NA,NA
"experimental",26,10,"ld","upper","pretzel","w","w","g","g",1,0.526795986756042,NA,NA,NA
"experimental",26,11,"ld","upper","cervical","w","w","g","g",1,0.663137368443131,NA,NA,NA
"experimental",26,12,"ld","upper","theery","nw","nw","h","h",1,0.667259449168341,NA,NA,NA
"experimental",26,13,"ld","upper","senalize","nw","nw","h","h",1,0.494517221086426,NA,NA,NA
"experimental",26,14,"ld","upper","glocked","nw","nw","h","h",1,0.457210820932232,NA,NA,NA
"experimental",26,15,"ld","upper","lavilion","nw","nw","h","h",1,0.501199604135763,NA,NA,NA
"experimental",26,16,"ld","upper","aviation","w","w","g","g",1,0.695269132556859,NA,NA,NA
"experimental",26,17,"ld","upper","parlayid","nw","nw","h","h",1,0.514020736140083,NA,NA,NA
"experimental",26,18,"ld","upper","chonemic","nw","nw","h","h",1,1.54681747856375,NA,NA,NA
"experimental",26,19,"ld","upper","acoustic","w","w","g","g",1,0.755960854883597,NA,NA,NA
"experimental",26,20,"ld","upper","trises","nw","nw","h","h",1,0.507613943278557,NA,NA,NA
"experimental",26,21,"ld","upper","loneliest","w","w","g","g",1,0.573765852946963,NA,NA,NA
"experimental",26,22,"ld","upper","overwork","w","w","g","g",1,0.589229088967841,NA,NA,NA
"experimental",26,23,"ld","upper","geadpan","nw","nw","h","h",1,0.507809844741132,NA,NA,NA
"experimental",26,24,"ld","upper","strenuous","w","w","g","h",0,0.645844611972279,NA,NA,NA
"experimental",26,25,"ld","upper","marvel","w","w","g","g",1,0.490580477031472,NA,NA,NA
"experimental",26,26,"ld","upper","maiden","w","w","g","g",1,0.749237118216115,NA,NA,NA
"experimental",26,27,"ld","upper","pester","w","w","g","h",0,0.637835592657211,NA,NA,NA
"experimental",26,28,"ld","upper","renown","w","w","g","g",1,0.49775065171707,NA,NA,NA
"experimental",26,29,"ld","upper","reprint","w","w","g","g",1,0.3973002896455,NA,NA,NA
"experimental",26,30,"ld","upper","standard","w","w","g","g",1,0.611026975406276,NA,NA,NA
"experimental",27,1,"ld","upper","nores","nw","nw","h","h",1,0.545821973129932,NA,NA,NA
"experimental",27,2,"ld","upper","reborn","w","w","g","g",1,0.45055318967934,NA,NA,NA
"experimental",27,3,"ld","upper","favoting","nw","nw","h","h",1,0.462496538239066,NA,NA,NA
"experimental",27,4,"ld","upper","blueberry","w","w","g","g",1,0.481612476280134,NA,NA,NA
"experimental",27,5,"ld","upper","dislokes","nw","nw","h","h",1,0.493907481548376,NA,NA,NA
"experimental",27,6,"ld","upper","profats","nw","nw","h","h",1,0.423539615432674,NA,NA,NA
"experimental",27,7,"ld","upper","system","w","w","g","g",1,0.756963906605961,NA,NA,NA
"experimental",27,8,"ld","upper","single","w","w","g","g",1,0.396997834686772,NA,NA,NA
"experimental",27,9,"ld","upper","border","w","w","g","g",1,0.491685856322874,NA,NA,NA
"experimental",27,10,"ld","upper","lecked","nw","nw","h","h",1,0.622465930515318,NA,NA,NA
"experimental",27,11,"ld","upper","brongs","nw","nw","h","h",1,0.562562643659476,NA,NA,NA
"experimental",27,12,"ld","upper","realize","w","w","g","g",1,0.674918019183679,NA,NA,NA
"experimental",27,13,"ld","upper","exclusion","w","w","g","g",1,0.51063970024552,NA,NA,NA
"experimental",27,14,"ld","upper","ameld","nw","nw","h","h",1,0.497267689708679,NA,NA,NA
"experimental",27,15,"ld","upper","design","w","w","g","g",1,0.57100542322587,NA,NA,NA
"experimental",27,16,"ld","upper","buzzer","w","w","g","g",1,0.458212967096188,NA,NA,NA
"experimental",27,17,"ld","upper","duries","nw","nw","h","h",1,0.646244564879453,NA,NA,NA
"experimental",27,18,"ld","upper","deserve","w","w","g","g",1,0.594586345017888,NA,NA,NA
"experimental",27,19,"ld","upper","huffle","nw","nw","h","h",1,0.569672448087658,NA,NA,NA
"experimental",27,20,"ld","upper","temelity","nw","nw","h","h",1,0.713099184264138,NA,NA,NA
"experimental",27,21,"ld","upper","flicking","w","w","g","h",0,0.459115200494125,NA,NA,NA
"experimental",27,22,"ld","upper","numbled","nw","nw","h","h",1,1.28637599091599,NA,NA,NA
"experimental",27,23,"ld","upper","mosary","nw","nw","h","h",1,0.745811106484325,NA,NA,NA
"experimental",27,24,"ld","upper","dialogues","w","w","g","g",1,0.649627713733935,NA,NA,NA
"experimental",27,25,"ld","upper","ucility","nw","nw","h","h",1,0.710187828917697,NA,NA,NA
"experimental",27,26,"ld","upper","anemic","w","w","g","g",1,0.664264782884857,NA,NA,NA
"experimental",27,27,"ld","upper","turning","w","w","g","g",1,0.484285067286692,NA,NA,NA
"experimental",27,28,"ld","upper","padicals","nw","nw","h","h",1,0.638983834825922,NA,NA,NA
"experimental",27,29,"ld","upper","describe","w","w","g","g",1,0.483846175557119,NA,NA,NA
"experimental",27,30,"ld","upper","filny","nw","nw","h","h",1,0.598381218987925,NA,NA,NA
"experimental",28,1,"ld","upper","swatches","w","w","g","g",1,0.596944708864612,NA,NA,NA
"experimental",28,2,"ld","upper","fuestion","nw","nw","h","h",1,0.515548707189737,NA,NA,NA
"experimental",28,3,"ld","upper","advantage","w","w","g","g",1,0.572444348152203,NA,NA,NA
"experimental",28,4,"ld","upper","podes","nw","nw","h","h",1,0.507789620707626,NA,NA,NA
"experimental",28,5,"ld","upper","located","w","w","g","g",1,0.662119224165508,NA,NA,NA
"experimental",28,6,"ld","upper","suspect","w","w","g","g",1,0.44278836803278,NA,NA,NA
"experimental",28,7,"ld","upper","poughest","nw","nw","h","h",1,0.575832628477656,NA,NA,NA
"experimental",28,8,"ld","upper","curtail","w","w","g","g",1,1.10212689118634,NA,NA,NA
"experimental",28,9,"ld","upper","fomrade","nw","nw","h","h",1,0.576190020357899,NA,NA,NA
"experimental",28,10,"ld","upper","ronvince","nw","nw","h","h",1,0.679535135954211,NA,NA,NA
"experimental",28,11,"ld","upper","submit","w","w","g","g",1,0.514875880740874,NA,NA,NA
"experimental",28,12,"ld","upper","stranded","w","w","g","g",1,0.492931294596929,NA,NA,NA
"experimental",28,13,"ld","upper","cripet","nw","nw","h","h",1,0.551551713630033,NA,NA,NA
"experimental",28,14,"ld","upper","poars","nw","nw","h","h",1,0.911599889084755,NA,NA,NA
"experimental",28,15,"ld","upper","ralliep","nw","nw","h","h",1,0.70575212474796,NA,NA,NA
"experimental",28,16,"ld","upper","gelented","nw","nw","h","h",1,0.547703110139992,NA,NA,NA
"experimental",28,17,"ld","upper","affluent","w","w","g","g",1,0.555486948418547,NA,NA,NA
"experimental",28,18,"ld","upper","expected","w","w","g","g",1,0.419410592126951,NA,NA,NA
"experimental",28,19,"ld","upper","caution","w","w","g","g",1,0.44877830430778,NA,NA,NA
"experimental",28,20,"ld","upper","vinegar","w","w","g","g",1,0.469472622564354,NA,NA,NA
"experimental",28,21,"ld","upper","gymnasium","w","w","g","g",1,0.544871141675685,NA,NA,NA
"experimental",28,22,"ld","upper","greft","nw","nw","h","h",1,0.697456950438209,NA,NA,NA
"experimental",28,23,"ld","upper","hotplate","w","w","g","h",0,0.539887577477202,NA,NA,NA
"experimental",28,24,"ld","upper","pived","nw","nw","h","h",1,0.636979240647634,NA,NA,NA
"experimental",28,25,"ld","upper","except","w","w","g","g",1,0.617727771394129,NA,NA,NA
"experimental",28,26,"ld","upper","reloant","nw","nw","h","h",1,0.558990535922931,NA,NA,NA
"experimental",28,27,"ld","upper","pressures","w","w","g","g",1,0.479011122173688,NA,NA,NA
"experimental",28,28,"ld","upper","mamps","nw","nw","h","h",1,0.521454426969285,NA,NA,NA
"experimental",28,29,"ld","upper","halents","nw","nw","h","h",1,0.666729700220458,NA,NA,NA
"experimental",28,30,"ld","upper","fuintets","nw","nw","h","h",1,0.462892868934432,NA,NA,NA
"experimental",29,1,"hd","lower","baseline","w","w","g","g",1,0.803033954209241,NA,NA,NA
"experimental",29,2,"hd","lower","brighten","w","w","g","g",1,0.440049369746703,NA,NA,NA
"experimental",29,3,"hd","lower","alber","nw","nw","h","h",1,0.477593326839269,NA,NA,NA
"experimental",29,4,"hd","lower","hasks","nw","nw","h","h",1,0.679924825926719,NA,NA,NA
"experimental",29,5,"hd","lower","casino","w","w","g","g",1,0.603387120172556,NA,NA,NA
"experimental",29,6,"hd","lower","huests","nw","nw","h","h",1,0.481357713826583,NA,NA,NA
"experimental",29,7,"hd","lower","forgive","w","w","g","g",1,0.420770733879181,NA,NA,NA
"experimental",29,8,"hd","lower","rational","w","w","g","h",0,0.434109842637554,NA,NA,NA
"experimental",29,9,"hd","lower","splatter","w","w","g","g",1,0.414756951351592,NA,NA,NA
"experimental",29,10,"hd","lower","arrigns","nw","nw","h","h",1,0.508794483532256,NA,NA,NA
"experimental",29,11,"hd","lower","comply","w","w","g","h",0,0.446870302526804,NA,NA,NA
"experimental",29,12,"hd","lower","airline","w","w","g","g",1,0.586883101030253,NA,NA,NA
"experimental",29,13,"hd","lower","publish","w","w","g","g",1,0.569287889593397,NA,NA,NA
"experimental",29,14,"hd","lower","epic","w","w","g","g",1,0.536749833692738,NA,NA,NA
"experimental",29,15,"hd","lower","clume","nw","nw","h","h",1,0.489312701763993,NA,NA,NA
"experimental",29,16,"hd","lower","otoist","nw","nw","h","h",1,0.483999214149662,NA,NA,NA
"experimental",29,17,"hd","lower","hutting","nw","nw","h","h",1,0.742718942245119,NA,NA,NA
"experimental",29,18,"hd","lower","unstatle","nw","nw","h","g",0,0.911448359758651,NA,NA,NA
"experimental",29,19,"hd","lower","ahead","w","w","g","h",0,0.433489538307185,NA,NA,NA
"experimental",29,20,"hd","lower","lofty","w","w","g","g",1,0.563619123044191,NA,NA,NA
"experimental",29,21,"hd","lower","borrent","nw","nw","h","h",1,0.715558064577635,NA,NA,NA
"experimental",29,22,"hd","lower","practice","w","w","g","g",1,0.50970305580995,NA,NA,NA
"experimental",29,23,"hd","lower","sequence","w","w","g","g",1,0.669231745261641,NA,NA,NA
"experimental",29,24,"hd","lower","lonnote","nw","nw","h","h",1,0.760899443252129,NA,NA,NA
"experimental",29,25,"hd","lower","manage","w","w","g","g",1,0.737480615578534,NA,NA,NA
"experimental",29,26,"hd","lower","plashed","nw","nw","h","h",1,0.802781002857955,NA,NA,NA
"experimental",29,27,"hd","lower","reddar","nw","nw","h","h",1,0.736898042661778,NA,NA,NA
"experimental",29,28,"hd","lower","cheathe","nw","nw","h","h",1,0.60149179615837,NA,NA,NA
"experimental",29,29,"hd","lower","erithets","nw","nw","h","h",1,0.535538806463592,NA,NA,NA
"experimental",29,30,"hd","lower","addma","nw","nw","h","h",1,0.543419538997114,NA,NA,NA
"experimental",30,1,"hd","lower","tiery","nw","nw","h","h",1,0.920748396885756,NA,NA,NA
"experimental",30,2,"hd","lower","clarms","nw","nw","h","h",1,0.67410694485443,NA,NA,NA
"experimental",30,3,"hd","lower","preight","nw","nw","h","h",1,0.565462830505567,NA,NA,NA
"experimental",30,4,"hd","lower","pressing","w","w","g","h",0,0.533590960323636,NA,NA,NA
"experimental",30,5,"hd","lower","preserve","w","w","g","g",1,0.462917620730877,NA,NA,NA
"experimental",30,6,"hd","lower","fivalve","nw","nw","h","h",1,0.714922969542386,NA,NA,NA
"experimental",30,7,"hd","lower","awful","w","w","g","g",1,0.428007617687399,NA,NA,NA
"experimental",30,8,"hd","lower","rumblos","nw","nw","h","h",1,0.505301762677846,NA,NA,NA
"experimental",30,9,"hd","lower","digested","w","w","g","g",1,0.555366207918269,NA,NA,NA
"experimental",30,10,"hd","lower","female","w","w","g","g",1,0.427402405926841,NA,NA,NA
"experimental",30,11,"hd","lower","become","w","w","g","g",1,0.400962650906877,NA,NA,NA
"experimental",30,12,"hd","lower","surfaced","w","w","g","g",1,0.542822477218579,NA,NA,NA
"experimental",30,13,"hd","lower","ifling","nw","nw","h","h",1,0.495531441294588,NA,NA,NA
"experimental",30,14,"hd","lower","embrace","w","w","g","g",1,0.40219299661112,NA,NA,NA
"experimental",30,15,"hd","lower","derived","w","w","g","g",1,0.616306353833352,NA,NA,NA
"experimental",30,16,"hd","lower","fragment","w","w","g","g",1,0.420340897690039,NA,NA,NA
"experimental",30,17,"hd","lower","saucer","w","w","g","g",1,0.378452697361354,NA,NA,NA
"experimental",30,18,"hd","lower","coverall","w","w","g","g",1,0.489054618941736,NA,NA,NA
"experimental",30,19,"hd","lower","itfidels","nw","nw","h","h",1,0.524347671234864,NA,NA,NA
"experimental",30,20,"hd","lower","gackpedal","nw","nw","h","h",1,0.726142780637019,NA,NA,NA
"experimental",30,21,"hd","lower","dingly","nw","nw","h","h",1,0.551462365656334,NA,NA,NA
"experimental",30,22,"hd","lower","halms","nw","nw","h","h",1,0.783558209470357,NA,NA,NA
"experimental",30,23,"hd","lower","earterner","nw","nw","h","h",1,0.598771814504289,NA,NA,NA
"experimental",30,24,"hd","lower","jaguar","target","target","q","g",0,0.517610049399082,NA,NA,NA
"experimental",30,25,"hd","lower","splum","aftertar1","nw","h","h",1,1.20606514449901,NA,NA,NA
"experimental",30,26,"hd","lower","kilotin","aftertar2","nw","h","h",1,0.467997173633194,NA,NA,NA
"experimental",30,27,"hd","lower","fictional","aftertar3","w","g","g",1,1.06331093292101,NA,NA,NA
"experimental",30,28,"hd","lower","ipiocy","w","nw","h","h",1,0.635307588403521,NA,NA,NA
"experimental",30,29,"hd","lower","drine","nw","nw","h","h",1,0.62399420341535,NA,NA,NA
"experimental",30,30,"hd","lower","satisfies","nw","w","g","g",1,0.605444538319716,NA,NA,NA
"experimental",31,1,"ld","upper","sefine","nw","nw","h","h",1,0.732237459305907,NA,NA,NA
"experimental",31,2,"ld","upper","frader","nw","nw","h","h",1,0.516500142344739,NA,NA,NA
"experimental",31,3,"ld","upper","gures","nw","nw","h","g",0,0.414513659234217,NA,NA,NA
"experimental",31,4,"ld","upper","gradielts","nw","nw","h","h",1,0.460561973552103,NA,NA,NA
"experimental",31,5,"ld","upper","plymie","nw","nw","h","h",1,0.552608494865126,NA,NA,NA
"experimental",31,6,"ld","upper","flooted","nw","nw","h","g",0,0.480646552270628,NA,NA,NA
"experimental",31,7,"ld","upper","minister","w","w","g","g",1,0.514714088465553,NA,NA,NA
"experimental",31,8,"ld","upper","primal","w","w","g","h",0,0.460734632462845,NA,NA,NA
"experimental",31,9,"ld","upper","gunrunker","nw","nw","h","h",1,0.581339602751541,NA,NA,NA
"experimental",31,10,"ld","upper","hemoter","nw","nw","h","h",1,0.604644934348471,NA,NA,NA
"experimental",31,11,"ld","upper","neuran","nw","nw","h","h",1,0.555273841433518,NA,NA,NA
"experimental",31,12,"ld","upper","target","w","w","g","g",1,0.57970900228247,NA,NA,NA
"experimental",31,13,"ld","upper","criminal","w","w","g","g",1,0.963227621970873,NA,NA,NA
"experimental",31,14,"ld","upper","olerates","nw","nw","h","h",1,1.39526309553185,NA,NA,NA
"experimental",31,15,"ld","upper","dricked","nw","nw","h","g",0,0.570002673361159,NA,NA,NA
"experimental",31,16,"ld","upper","moisture","w","w","g","g",1,0.63927300832438,NA,NA,NA
"experimental",31,17,"ld","upper","slogan","w","w","g","g",1,0.596105864235142,NA,NA,NA
"experimental",31,18,"ld","upper","usage","w","w","g","g",1,0.522730050368409,NA,NA,NA
"experimental",31,19,"ld","upper","shimble","nw","nw","h","h",1,0.692153423915443,NA,NA,NA
"experimental",31,20,"ld","upper","unsmilung","nw","nw","h","h",1,0.597795929403219,NA,NA,NA
"experimental",31,21,"ld","upper","expired","w","w","g","g",1,0.468426406114304,NA,NA,NA
"experimental",31,22,"ld","upper","expounded","w","w","g","h",0,0.823141775472322,NA,NA,NA
"experimental",31,23,"ld","upper","tycoon","w","w","g","h",0,0.532513049503905,NA,NA,NA
"experimental",31,24,"ld","upper","distrust","w","w","g","g",1,0.557891495511285,NA,NA,NA
"experimental",31,25,"ld","upper","compose","w","w","g","g",1,0.453956864417705,NA,NA,NA
"experimental",31,26,"ld","upper","arcients","nw","nw","h","g",0,0.377976677933475,NA,NA,NA
"experimental",31,27,"ld","upper","dealer","w","w","g","g",1,0.44931439213542,NA,NA,NA
"experimental",31,28,"ld","upper","dominion","w","w","g","h",0,0.573195052224037,NA,NA,NA
"experimental",31,29,"ld","upper","twarfs","nw","nw","h","h",1,0.725488970820152,NA,NA,NA
"experimental",31,30,"ld","upper","gorilla","target","target","q","g",0,0.509856094395218,NA,NA,NA
"experimental",32,1,"hd","lower","sporidic","nw","nw","h","h",1,3.76737928411603,NA,NA,NA
"experimental",32,2,"hd","lower","urique","nw","nw","h","h",1,1.01498183053627,NA,NA,NA
"experimental",32,3,"hd","lower","burrowing","w","w","g","g",1,0.796293313862407,NA,NA,NA
"experimental",32,4,"hd","lower","louches","nw","nw","h","h",1,1.09099703175889,NA,NA,NA
"experimental",32,5,"hd","lower","asthmatic","w","w","g","g",1,0.757755360587907,NA,NA,NA
"experimental",32,6,"hd","lower","tredits","nw","nw","h","h",1,0.589714465786528,NA,NA,NA
"experimental",32,7,"hd","lower","castaway","w","w","g","g",1,0.572426538928994,NA,NA,NA
"experimental",32,8,"hd","lower","bumbo","nw","nw","h","h",1,0.891777015400294,NA,NA,NA
"experimental",32,9,"hd","lower","outflow","w","w","g","g",1,0.517761276874808,NA,NA,NA
"experimental",32,10,"hd","lower","handle","w","w","g","g",1,0.734424673493777,NA,NA,NA
"experimental",32,11,"hd","lower","atble","nw","nw","h","h",1,0.567256430658745,NA,NA,NA
"experimental",32,12,"hd","lower","dehydrate","w","w","g","g",1,0.781477850621741,NA,NA,NA
"experimental",32,13,"hd","lower","grefab","nw","nw","h","h",1,0.548890291123826,NA,NA,NA
"experimental",32,14,"hd","lower","icepick","w","w","g","g",1,0.861625395518786,NA,NA,NA
"experimental",32,15,"hd","lower","holdup","w","w","g","h",0,0.553714477857284,NA,NA,NA
"experimental",32,16,"hd","lower","ufionize","nw","nw","h","h",1,0.729828988150985,NA,NA,NA
"experimental",32,17,"hd","lower","contusiok","nw","nw","h","h",1,0.571043758340238,NA,NA,NA
"experimental",32,18,"hd","lower","slightly","w","w","g","g",1,0.586454774092999,NA,NA,NA
"experimental",32,19,"hd","lower","kangaroo","target","target","q","g",0,0.705088655689906,NA,NA,NA
"experimental",32,20,"hd","lower","aefated","aftertar1","nw","h","h",1,0.907311488321284,NA,NA,NA
"experimental",32,21,"hd","lower","lutton","aftertar2","nw","h","h",1,0.700215569057036,NA,NA,NA
"experimental",32,22,"hd","lower","chone","aftertar3","nw","h","h",1,0.542841795700951,NA,NA,NA
"experimental",32,23,"hd","lower","resent","nw","w","g","g",1,0.615468716605392,NA,NA,NA
"experimental",32,24,"hd","lower","sorping","w","nw","h","h",1,0.693592348841776,NA,NA,NA
"experimental",32,25,"hd","lower","rocket","nw","w","g","g",1,0.599066119480995,NA,NA,NA
"experimental",32,26,"hd","lower","decant","w","w","g","g",1,0.557734834706935,NA,NA,NA
"experimental",32,27,"hd","lower","contund","w","nw","h","h",1,0.734333816260914,NA,NA,NA
"experimental",32,28,"hd","lower","carony","nw","nw","h","h",1,0.775754750851775,NA,NA,NA
"experimental",32,29,"hd","lower","stifle","nw","w","g","h",0,0.655044736333366,NA,NA,NA
"experimental",32,30,"hd","lower","dreaded","w","w","g","g",1,1.07424730568891,NA,NA,NA
"experimental",33,1,"hd","lower","despise","w","w","g","g",1,2.99831632096902,NA,NA,NA
"experimental",33,2,"hd","lower","bettled","nw","nw","h","h",1,0.884958497430489,NA,NA,NA
"experimental",33,3,"hd","lower","glamorous","w","w","g","g",1,0.582157317796373,NA,NA,NA
"experimental",33,4,"hd","lower","mystery","w","w","g","g",1,0.493347547475423,NA,NA,NA
"experimental",33,5,"hd","lower","clooped","nw","nw","h","h",1,0.664127742413257,NA,NA,NA
"experimental",33,6,"hd","lower","inside","w","w","g","g",1,0.604119109470048,NA,NA,NA
"experimental",33,7,"hd","lower","chiffol","nw","nw","h","h",1,1.48221829174872,NA,NA,NA
"experimental",33,8,"hd","lower","poyride","nw","nw","h","h",1,0.925619370565982,NA,NA,NA
"experimental",33,9,"hd","lower","slooch","nw","nw","h","h",1,0.702905365578772,NA,NA,NA
"experimental",33,10,"hd","lower","graiking","nw","nw","h","h",1,0.560957398687606,NA,NA,NA
"experimental",33,11,"hd","lower","contact","w","w","g","g",1,0.561004185634374,NA,NA,NA
"experimental",33,12,"hd","lower","volder","nw","nw","h","h",1,0.704148992736009,NA,NA,NA
"experimental",33,13,"hd","lower","natch","nw","nw","h","h",1,0.530066545092268,NA,NA,NA
"experimental",33,14,"hd","lower","moyeur","nw","nw","h","h",1,0.675436599631212,NA,NA,NA
"experimental",33,15,"hd","lower","agony","w","w","g","h",0,0.581585611522314,NA,NA,NA
"experimental",33,16,"hd","lower","solidity","w","w","g","g",1,0.396924786684394,NA,NA,NA
"experimental",33,17,"hd","lower","diatonic","w","w","g","g",1,0.780311497379444,NA,NA,NA
"experimental",33,18,"hd","lower","nostril","w","w","g","h",0,0.508287373428175,NA,NA,NA
"experimental",33,19,"hd","lower","vaporize","w","w","g","h",0,0.517475725595432,NA,NA,NA
"experimental",33,20,"hd","lower","porcupine","target","target","q","q",1,1.93473467473086,1,NA,NA
"experimental",33,21,"hd","lower","catgup","aftertar1","nw","h","h",1,0.95794190466404,NA,NA,NA
"experimental",33,22,"hd","lower","lenie","aftertar2","nw","h","h",1,0.717996117156872,NA,NA,NA
"experimental",33,23,"hd","lower","shivering","aftertar3","w","g","g",1,0.6708218976637,NA,NA,NA
"experimental",33,24,"hd","lower","nature","w","w","g","g",1,0.61009244392335,NA,NA,NA
"experimental",33,25,"hd","lower","curricula","w","w","g","g",1,0.84018942873081,NA,NA,NA
"experimental",33,26,"hd","lower","prama","w","nw","h","h",1,0.612903282795742,NA,NA,NA
"experimental",33,27,"hd","lower","decency","nw","w","g","g",1,0.578931735297374,NA,NA,NA
"experimental",33,28,"hd","lower","thrapping","w","nw","h","h",1,0.625335026685207,NA,NA,NA
"experimental",33,29,"hd","lower","guivers","nw","nw","h","h",1,0.591592282435158,NA,NA,NA
"experimental",33,30,"hd","lower","landing","nw","w","g","g",1,0.797325645151432,NA,NA,NA
"experimental",34,1,"hd","lower","porghum","nw","nw","h","h",1,0.476894843042828,NA,NA,NA
"experimental",34,2,"hd","lower","digest","w","w","g","g",1,0.416199498489732,NA,NA,NA
"experimental",34,3,"hd","lower","fashing","nw","nw","h","h",1,0.582177541837154,NA,NA,NA
"experimental",34,4,"hd","lower","vented","w","w","g","g",1,0.709642081856146,NA,NA,NA
"experimental",34,5,"hd","lower","orange","w","w","g","g",1,0.734620876799454,NA,NA,NA
"experimental",34,6,"hd","lower","desert","w","w","g","g",1,0.405489514159854,NA,NA,NA
"experimental",34,7,"hd","lower","handed","w","w","g","g",1,0.451364867702068,NA,NA,NA
"experimental",34,8,"hd","lower","hinsome","nw","nw","h","h",1,0.638948518222605,NA,NA,NA
"experimental",34,9,"hd","lower","entropy","w","w","g","g",1,0.692378604951955,NA,NA,NA
"experimental",34,10,"hd","lower","soluced","nw","nw","h","h",1,0.575627671474649,NA,NA,NA
"experimental",34,11,"hd","lower","issue","w","w","g","g",1,0.478849329905643,NA,NA,NA
"experimental",34,12,"hd","lower","sustain","w","w","g","g",1,0.890243309186189,NA,NA,NA
"experimental",34,13,"hd","lower","crocodile","target","target","q","g",0,0.524977031098388,NA,NA,NA
"experimental",34,14,"hd","lower","frunted","aftertar1","nw","h","h",1,1.50932211952022,NA,NA,NA
"experimental",34,15,"hd","lower","plogging","aftertar2","nw","h","h",1,0.646483027376235,NA,NA,NA
"experimental",34,16,"hd","lower","tyena","aftertar3","nw","h","h",1,0.644026561865758,NA,NA,NA
"experimental",34,17,"hd","lower","trocess","nw","nw","h","h",1,0.696732507436536,NA,NA,NA
"experimental",34,18,"hd","lower","bingu","nw","nw","h","h",1,1.1634893270093,NA,NA,NA
"experimental",34,19,"hd","lower","sopes","nw","nw","h","h",1,0.571470274160674,NA,NA,NA
"experimental",34,20,"hd","lower","sprea","nw","nw","h","h",1,0.434825833806826,NA,NA,NA
"experimental",34,21,"hd","lower","summon","nw","w","g","g",1,0.59085214316292,NA,NA,NA
"experimental",34,22,"hd","lower","enacted","w","w","g","g",1,0.573566329265304,NA,NA,NA
"experimental",34,23,"hd","lower","regional","w","w","g","g",1,0.483979593809636,NA,NA,NA
"experimental",34,24,"hd","lower","servant","w","w","g","g",1,0.45404591053375,NA,NA,NA
"experimental",34,25,"hd","lower","gairs","w","nw","h","h",1,0.697987303094123,NA,NA,NA
"experimental",34,26,"hd","lower","pollute","nw","w","g","g",1,0.652725311294489,NA,NA,NA
"experimental",34,27,"hd","lower","tipoff","w","w","g","g",1,0.696753335170797,NA,NA,NA
"experimental",34,28,"hd","lower","optional","w","w","g","g",1,0.731402840588999,NA,NA,NA
"experimental",34,29,"hd","lower","slears","w","nw","h","h",1,0.756804830991314,NA,NA,NA
"experimental",34,30,"hd","lower","pregs","nw","nw","h","h",1,1.10891854439251,NA,NA,NA
"experimental",35,1,"ld","upper","gelfry","nw","nw","h","h",1,1.00652878802794,NA,NA,NA
"experimental",35,2,"ld","upper","ghists","nw","nw","h","h",1,1.14089183659962,NA,NA,NA
"experimental",35,3,"ld","upper","ezulated","nw","nw","h","h",1,0.68559419617668,NA,NA,NA
"experimental",35,4,"ld","upper","remade","w","w","g","h",0,0.543517942503968,NA,NA,NA
"experimental",35,5,"ld","upper","glapula","nw","nw","h","h",1,0.663341419895005,NA,NA,NA
"experimental",35,6,"ld","upper","chrayed","nw","nw","h","h",1,0.604255244383239,NA,NA,NA
"experimental",35,7,"ld","upper","pastnoss","nw","nw","h","h",1,0.617419883106777,NA,NA,NA
"experimental",35,8,"ld","upper","gounts","nw","nw","h","h",1,0.406673978475737,NA,NA,NA
"experimental",35,9,"ld","upper","dentures","w","w","g","g",1,0.556793360643496,NA,NA,NA
"experimental",35,10,"ld","upper","frequency","w","w","g","g",1,0.476856206078082,NA,NA,NA
"experimental",35,11,"ld","upper","vorm","nw","nw","h","h",1,0.608071247930638,NA,NA,NA
"experimental",35,12,"ld","upper","helpful","w","w","g","g",1,0.574112378177233,NA,NA,NA
"experimental",35,13,"ld","upper","clypaper","nw","nw","h","h",1,0.525482933800959,NA,NA,NA
"experimental",35,14,"ld","upper","mining","w","w","g","g",1,0.670826727284293,NA,NA,NA
"experimental",35,15,"ld","upper","staircase","w","w","g","g",1,0.626224582330906,NA,NA,NA
"experimental",35,16,"ld","upper","disuse","w","w","g","h",0,0.517311518509814,NA,NA,NA
"experimental",35,17,"ld","upper","foster","w","w","g","g",1,0.669933247569134,NA,NA,NA
"experimental",35,18,"ld","upper","plapping","nw","nw","h","h",1,0.793252464332909,NA,NA,NA
"experimental",35,19,"ld","upper","remover","w","w","g","g",1,0.559955554381304,NA,NA,NA
"experimental",35,20,"ld","upper","mounting","w","w","g","g",1,0.656025752912683,NA,NA,NA
"experimental",35,21,"ld","upper","halter","w","w","g","h",0,0.524056686626864,NA,NA,NA
"experimental",35,22,"ld","upper","rualify","nw","nw","h","h",1,0.613430013239849,NA,NA,NA
"experimental",35,23,"ld","upper","menarthe","nw","nw","h","h",1,0.651453611964826,NA,NA,NA
"experimental",35,24,"ld","upper","rasuals","nw","nw","h","h",1,0.734033172411728,NA,NA,NA
"experimental",35,25,"ld","upper","pigned","nw","nw","h","h",1,0.71099045140727,NA,NA,NA
"experimental",35,26,"ld","upper","seeming","w","w","g","g",1,0.840143849192827,NA,NA,NA
"experimental",35,27,"ld","upper","catacomb","w","w","g","g",1,0.589568369781773,NA,NA,NA
"experimental",35,28,"ld","upper","prison","w","w","g","g",1,0.524763924106082,NA,NA,NA
"experimental",35,29,"ld","upper","actively","w","w","g","h",0,0.406023489020299,NA,NA,NA
"experimental",35,30,"ld","upper","brank","nw","nw","h","h",1,0.564001266735431,NA,NA,NA
"experimental",36,1,"ld","upper","achieve","w","w","g","g",1,0.723903648038686,NA,NA,NA
"experimental",36,2,"ld","upper","vintnel","nw","nw","h","h",1,0.517294916695391,NA,NA,NA
"experimental",36,3,"ld","upper","hackal","nw","nw","h","h",1,0.494605965352093,NA,NA,NA
"experimental",36,4,"ld","upper","reforest","w","w","g","g",1,0.505350964434911,NA,NA,NA
"experimental",36,5,"ld","upper","huzzles","nw","nw","h","g",0,0.71544336109946,NA,NA,NA
"experimental",36,6,"ld","upper","snocks","nw","nw","h","h",1,0.685451722383732,NA,NA,NA
"experimental",36,7,"ld","upper","ilcurring","nw","nw","h","h",1,0.544091761737945,NA,NA,NA
"experimental",36,8,"ld","upper","prohibit","w","w","g","g",1,0.752800472262606,NA,NA,NA
"experimental",36,9,"ld","upper","otiates","nw","nw","h","g",0,0.776816059857083,NA,NA,NA
"experimental",36,10,"ld","upper","corg","nw","nw","h","h",1,0.663198946102057,NA,NA,NA
"experimental",36,11,"ld","upper","emergence","w","w","g","g",1,0.603241929718934,NA,NA,NA
"experimental",36,12,"ld","upper","rapport","w","w","g","g",1,0.809245147458569,NA,NA,NA
"experimental",36,13,"ld","upper","pepperoni","w","w","g","g",1,1.18335083765123,NA,NA,NA
"experimental",36,14,"ld","upper","stretches","w","w","g","g",1,2.59871506647323,NA,NA,NA
"experimental",36,15,"ld","upper","rationale","w","w","g","g",1,0.629434166708961,NA,NA,NA
"experimental",36,16,"ld","upper","company","w","w","g","g",1,0.48072292064171,NA,NA,NA
"experimental",36,17,"ld","upper","subber","nw","nw","h","h",1,0.844855143557652,NA,NA,NA
"experimental",36,18,"ld","upper","couple","w","w","g","g",1,0.601387657472515,NA,NA,NA
"experimental",36,19,"ld","upper","undue","w","w","g","g",1,0.815416496341641,NA,NA,NA
"experimental",36,20,"ld","upper","aligning","w","w","g","g",1,0.605207886939752,NA,NA,NA
"experimental",36,21,"ld","upper","even","w","w","g","g",1,0.515196144922811,NA,NA,NA
"experimental",36,22,"ld","upper","rascaps","nw","nw","h","h",1,0.789358281304885,NA,NA,NA
"experimental",36,23,"ld","upper","grummer","nw","nw","h","h",1,0.75605291951797,NA,NA,NA
"experimental",36,24,"ld","upper","outset","w","w","g","g",1,0.628045650948479,NA,NA,NA
"experimental",36,25,"ld","upper","asclibed","nw","nw","h","h",1,0.672592557115422,NA,NA,NA
"experimental",36,26,"ld","upper","frose","nw","nw","h","h",1,1.00397180605796,NA,NA,NA
"experimental",36,27,"ld","upper","eaglot","nw","nw","h","h",1,0.769874990284734,NA,NA,NA
"experimental",36,28,"ld","upper","ignore","w","w","g","g",1,0.574496332978015,NA,NA,NA
"experimental",36,29,"ld","upper","latpin","nw","nw","h","h",1,0.66987740508921,NA,NA,NA
"experimental",36,30,"ld","upper","cooray","nw","nw","h","h",1,0.641165615685168,NA,NA,NA
"experimental",37,1,"ld","upper","widely","w","w","g","g",1,0.694506958141574,NA,NA,NA
"experimental",37,2,"ld","upper","miteous","nw","nw","h","h",1,0.712145334306115,NA,NA,NA
"experimental",37,3,"ld","upper","rarren","nw","nw","h","h",1,0.674264209366811,NA,NA,NA
"experimental",37,4,"ld","upper","hustle","w","w","g","g",1,0.637607694960025,NA,NA,NA
"experimental",37,5,"ld","upper","flougy","nw","nw","h","h",1,0.546334516555362,NA,NA,NA
"experimental",37,6,"ld","upper","tinker","w","w","g","h",0,0.827061917712854,NA,NA,NA
