"procedure","block","trial","PMdemand","context","stim","role","word_type","correct_key","response","correct","reaction_time","pressedQ","pressedQ_blank","pressedQ_fix"
"LDTpractice",1,1,NA,"upper","lurshing","","nw","h","g",0,0.655568117421353,NA,NA,NA
"LDTpractice",2,1,NA,"upper","summary","","w","g","g",1,0.658192412214703,NA,NA,NA
"LDTpractice",3,1,NA,"upper","unscrew","","w","g","g",1,0.788548687254661,NA,NA,NA
"LDTpractice",4,1,NA,"upper","trotch","","nw","h","h",1,0.693030876514968,NA,NA,NA
"LDTpractice",5,1,NA,"upper","overshoot","","w","g","g",1,0.687584876199253,NA,NA,NA
"LDTpractice",6,1,NA,"upper","lumbigo","","nw","h","h",1,0.866394314492936,NA,NA,NA
"LDTpractice",7,1,NA,"upper","raestro","","nw","h","h",1,0.782827398579684,NA,NA,NA
"LDTpractice",8,1,NA,"upper","revival","","w","g","g",1,0.670171379213571,NA,NA,NA
"LDTpractice",9,1,NA,"upper","reputable","","w","g","g",1,0.545187754643848,NA,NA,NA
"LDTpractice",10,1,NA,"upper","alolition","","nw","h","h",1,0.794293520302745,NA,NA,NA
"LDTpractice",11,1,NA,"upper","crinklo","","nw","h","h",1,0.664047119134921,NA,NA,NA
"LDTpractice",12,1,NA,"upper","umpire","","w","g","g",1,0.612006151874084,NA,NA,NA
"LDTpractice",13,1,NA,"upper","tricycle","","w","g","g",1,0.482071864898899,NA,NA,NA
"LDTpractice",14,1,NA,"upper","curlecs","","nw","h","h",1,0.645501076243818,NA,NA,NA
"LDTpractice",1,2,NA,"lower","grocus","","nw","h","h",1,0.745830697822385,NA,NA,NA
"LDTpractice",2,2,NA,"lower","slumber","","w","g","g",1,0.771307245478965,NA,NA,NA
"LDTpractice",3,2,NA,"lower","picture","","w","g","g",1,0.514586980090826,NA,NA,NA
"LDTpractice",4,2,NA,"lower","hasking","","nw","h","h",1,0.652551415972994,NA,NA,NA
"LDTpractice",5,2,NA,"lower","hiring","","w","g","g",1,0.600502902452718,NA,NA,NA
"LDTpractice",6,2,NA,"lower","turative","","nw","h","h",1,0.709567495607189,NA,NA,NA
"LDTpractice",7,2,NA,"lower","julled","","nw","h","h",1,0.694971780074411,NA,NA,NA
"LDTpractice",8,2,NA,"lower","grimace","","w","g","g",1,0.666276894349721,NA,NA,NA
"LDTpractice",9,2,NA,"lower","busted","","w","g","g",1,0.542387178720674,NA,NA,NA
"LDTpractice",10,2,NA,"lower","grutch","","nw","h","h",1,0.655184464470949,NA,NA,NA
"LDTpractice",11,2,NA,"lower","treeps","","nw","h","h",1,0.803236769250361,NA,NA,NA
"LDTpractice",12,2,NA,"lower","sponsor","","w","g","g",1,0.824139364878647,NA,NA,NA
"LDTpractice",13,2,NA,"lower","infinity","","w","g","g",1,0.541351225212566,NA,NA,NA
"LDTpractice",14,2,NA,"lower","latador","","nw","h","h",1,0.606242604044382,NA,NA,NA
"experimental",1,1,"hd","upper","bureaug","nw","nw","h","h",1,0.864259320558631,NA,NA,NA
"experimental",1,2,"hd","upper","rowel","nw","nw","h","h",1,0.676824180860422,NA,NA,NA
"experimental",1,3,"hd","upper","intercede","w","w","g","g",1,0.752883754204959,NA,NA,NA
"experimental",1,4,"hd","upper","prama","nw","nw","h","h",1,0.784636996861082,NA,NA,NA
"experimental",1,5,"hd","upper","surround","w","w","g","g",1,0.712047807348426,NA,NA,NA
"experimental",1,6,"hd","upper","hardest","w","w","g","g",1,0.738682256429456,NA,NA,NA
"experimental",1,7,"hd","upper","detrabe","nw","nw","h","h",1,0.988099532580236,NA,NA,NA
"experimental",1,8,"hd","upper","innocent","w","w","g","g",1,0.715468385766144,NA,NA,NA
"experimental",1,9,"hd","upper","failure","w","w","g","g",1,0.830176389950793,NA,NA,NA
"experimental",1,10,"hd","upper","minimum","w","w","g","g",1,0.68416641074873,NA,NA,NA
"experimental",1,11,"hd","upper","atsless","nw","nw","h","h",1,0.759582739090547,NA,NA,NA
"experimental",1,12,"hd","upper","begut","nw","nw","h","g",0,0.808260479665478,NA,NA,NA
"experimental",1,13,"hd","upper","criminal","w","w","g","g",1,0.765981683813152,NA,NA,NA
"experimental",1,14,"hd","upper","dricked","nw","nw","h","h",1,0.758596289189882,NA,NA,NA
"experimental",1,15,"hd","upper","infested","w","w","g","g",1,0.647308259707643,NA,NA,NA
"experimental",1,16,"hd","upper","hubris","w","w","g","g",1,0.995637663945672,NA,NA,NA
"experimental",1,17,"hd","upper","igiom","nw","nw","h","h",1,1.1870143773267,NA,NA,NA
"experimental",1,18,"hd","upper","giraffe","target","target","q","q",1,0.707077826460591,1,NA,NA
"experimental",1,19,"hd","upper","newstrint","aftertar1","nw","h","h",1,0.886301404651022,NA,NA,NA
"experimental",1,20,"hd","upper","stelled","aftertar2","nw","h","h",1,1.008639001142,NA,NA,NA
"experimental",1,21,"hd","upper","charcoal","aftertar3","w","g","g",1,0.632224148852401,NA,NA,NA
"experimental",1,22,"hd","upper","hangar","w","w","g","g",1,0.589199478548835,NA,NA,NA
"experimental",1,23,"hd","upper","sefraud","w","nw","h","h",1,0.70863507706963,NA,NA,NA
"experimental",1,24,"hd","upper","fonducts","nw","nw","h","h",1,0.791315455833683,NA,NA,NA
"experimental",1,25,"hd","upper","cutout","nw","w","g","g",1,0.630681387105142,NA,NA,NA
"experimental",1,26,"hd","upper","slutches","w","nw","h","h",1,1.188787451596,NA,NA,NA
"experimental",1,27,"hd","upper","landing","nw","w","g","g",1,0.81209731096169,NA,NA,NA
"experimental",1,28,"hd","upper","mineluyer","w","nw","h","h",1,0.96282945117855,NA,NA,NA
"experimental",1,29,"hd","upper","bullet","nw","w","g","g",1,0.706534494209336,NA,NA,NA
"experimental",1,30,"hd","upper","schinter","w","nw","h","h",1,0.717228782261373,NA,NA,NA
"experimental",2,1,"hd","upper","oppose","w","w","g","g",1,0.679261026030872,NA,NA,NA
"experimental",2,2,"hd","upper","erithets","nw","nw","h","h",1,0.699287045601523,NA,NA,NA
"experimental",2,3,"hd","upper","potatoes","w","w","g","g",1,0.734546592400875,NA,NA,NA
"experimental",2,4,"hd","upper","aggepting","nw","nw","h","h",1,0.734929339785594,NA,NA,NA
"experimental",2,5,"hd","upper","warmer","w","w","g","g",1,0.808370051687234,NA,NA,NA
"experimental",2,6,"hd","upper","joadbed","nw","nw","h","h",1,0.773875094091636,NA,NA,NA
"experimental",2,7,"hd","upper","trecious","nw","nw","h","h",1,0.893322162970435,NA,NA,NA
"experimental",2,8,"hd","upper","mamps","nw","nw","h","h",1,0.785801538993837,NA,NA,NA
"experimental",2,9,"hd","upper","fuack","nw","nw","h","h",1,0.689839403203223,NA,NA,NA
"experimental",2,10,"hd","upper","wrecber","nw","nw","h","h",1,0.80516650431673,NA,NA,NA
"experimental",2,11,"hd","upper","octopus","target","target","q","q",1,0.995791909939726,1,NA,NA
"experimental",2,12,"hd","upper","army","aftertar1","w","g","g",1,1.05828115648183,NA,NA,NA
"experimental",2,13,"hd","upper","stalemate","aftertar2","w","g","h",0,1.01491177205753,NA,NA,NA
"experimental",2,14,"hd","upper","roughly","aftertar3","w","g","g",1,0.725613002694445,NA,NA,NA
"experimental",2,15,"hd","upper","dominion","w","w","g","g",1,1.44769251636171,NA,NA,NA
"experimental",2,16,"hd","upper","gigoho","w","nw","h","h",1,0.725039485318121,NA,NA,NA
"experimental",2,17,"hd","upper","cills","nw","nw","h","h",1,0.791100839604042,NA,NA,NA
"experimental",2,18,"hd","upper","finstrel","nw","nw","h","h",1,0.74244936008472,NA,NA,NA
"experimental",2,19,"hd","upper","publish","nw","w","g","g",1,0.759822107138461,NA,NA,NA
"experimental",2,20,"hd","upper","deficit","w","w","g","g",1,0.752451805063174,NA,NA,NA
"experimental",2,21,"hd","upper","ready","w","w","g","g",1,0.664246944652405,NA,NA,NA
"experimental",2,22,"hd","upper","enacted","w","w","g","g",1,0.652867152399267,NA,NA,NA
"experimental",2,23,"hd","upper","gerby","w","nw","h","h",1,0.785541041361284,NA,NA,NA
"experimental",2,24,"hd","upper","neuran","nw","nw","h","h",1,0.712910498245037,NA,NA,NA
"experimental",2,25,"hd","upper","guitar","nw","w","g","g",1,1.04365284102096,NA,NA,NA
"experimental",2,26,"hd","upper","sodent","w","nw","h","h",1,1.04909069136193,NA,NA,NA
"experimental",2,27,"hd","upper","surface","nw","w","g","g",1,0.726418643680518,NA,NA,NA
"experimental",2,28,"hd","upper","ascending","w","w","g","g",1,0.680494692089269,NA,NA,NA
"experimental",2,29,"hd","upper","sopes","w","nw","h","h",1,0.636510134805576,NA,NA,NA
"experimental",2,30,"hd","upper","hotplate","nw","w","g","g",1,0.663805034419056,NA,NA,NA
"experimental",3,1,"ld","lower","alticles","nw","nw","h","h",1,0.837557860504603,NA,NA,NA
"experimental",3,2,"ld","lower","egect","nw","nw","h","h",1,0.890862980813836,NA,NA,NA
"experimental",3,3,"ld","lower","scatter","w","w","g","g",1,1.50941113664885,NA,NA,NA
"experimental",3,4,"ld","lower","unspoken","w","w","g","g",1,1.3438919072214,NA,NA,NA
"experimental",3,5,"ld","lower","cheathe","nw","nw","h","h",1,0.95328491453256,NA,NA,NA
"experimental",3,6,"ld","lower","usually","w","w","g","g",1,0.689871097594732,NA,NA,NA
"experimental",3,7,"ld","lower","walnut","w","w","g","g",1,1.34126399020897,NA,NA,NA
"experimental",3,8,"ld","lower","urique","nw","nw","h","h",1,0.821177902224008,NA,NA,NA
"experimental",3,9,"ld","lower","halter","w","w","g","h",0,1.02060740334855,NA,NA,NA
"experimental",3,10,"ld","lower","target","w","w","g","g",1,0.698573771092924,NA,NA,NA
"experimental",3,11,"ld","lower","antwers","nw","nw","h","h",1,0.821014600704075,NA,NA,NA
"experimental",3,12,"ld","lower","phraining","nw","nw","h","h",1,1.02689617236319,NA,NA,NA
"experimental",3,13,"ld","lower","forgive","w","w","g","g",1,1.48886563106498,NA,NA,NA
"experimental",3,14,"ld","lower","nollow","nw","nw","h","h",1,0.724245616511325,NA,NA,NA
"experimental",3,15,"ld","lower","ements","nw","nw","h","h",1,0.686230469611473,NA,NA,NA
"experimental",3,16,"ld","lower","slightly","w","w","g","g",1,0.681533664115705,NA,NA,NA
"experimental",3,17,"ld","lower","treason","w","w","g","g",1,0.765580221646815,NA,NA,NA
"experimental",3,18,"ld","lower","gunrunker","nw","nw","h","h",1,1.10928496281849,NA,NA,NA
"experimental",3,19,"ld","lower","tapling","nw","nw","h","h",1,1.39197228416742,NA,NA,NA
"experimental",3,20,"ld","lower","bedding","w","w","g","g",1,0.887146286317147,NA,NA,NA
"experimental",3,21,"ld","lower","recollect","w","w","g","g",1,0.75418533681659,NA,NA,NA
"experimental",3,22,"ld","lower","compose","w","w","g","g",1,0.803555222330033,NA,NA,NA
"experimental",3,23,"ld","lower","purport","w","w","g","h",0,0.874137704697205,NA,NA,NA
"experimental",3,24,"ld","lower","pigned","nw","nw","h","h",1,0.822233777900692,NA,NA,NA
"experimental",3,25,"ld","lower","fassed","nw","nw","h","h",1,0.828279254827066,NA,NA,NA
"experimental",3,26,"ld","lower","burning","w","w","g","g",1,0.970378449186683,NA,NA,NA
"experimental",3,27,"ld","lower","efficient","w","w","g","g",1,0.721506316389423,NA,NA,NA
"experimental",3,28,"ld","lower","brimitar","nw","nw","h","h",1,0.796462019716273,NA,NA,NA
"experimental",3,29,"ld","lower","unsmilung","nw","nw","h","h",1,0.730701912980294,NA,NA,NA
"experimental",3,30,"ld","lower","nimp","nw","nw","h","h",1,1.00474662921624,NA,NA,NA
"experimental",4,1,"ld","lower","micron","w","w","g","h",0,0.611521982471459,NA,NA,NA
"experimental",4,2,"ld","lower","goltish","nw","nw","h","h",1,0.746234272955917,NA,NA,NA
"experimental",4,3,"ld","lower","quittint","nw","nw","h","h",1,0.642674842965789,NA,NA,NA
"experimental",4,4,"ld","lower","glocked","nw","nw","h","h",1,1.43209042874514,NA,NA,NA
"experimental",4,5,"ld","lower","sunshine","w","w","g","g",1,0.982116840721574,NA,NA,NA
"experimental",4,6,"ld","lower","divider","w","w","g","g",1,0.582099937062594,NA,NA,NA
"experimental",4,7,"ld","lower","potent","w","w","g","g",1,0.878092257960816,NA,NA,NA
"experimental",4,8,"ld","lower","outrank","w","w","g","g",1,0.777046343369875,NA,NA,NA
"experimental",4,9,"ld","lower","bailmenz","nw","nw","h","h",1,0.661599407307222,NA,NA,NA
"experimental",4,10,"ld","lower","ensues","w","w","g","g",1,0.7174889780581,NA,NA,NA
"experimental",4,11,"ld","lower","drobate","nw","nw","h","h",1,0.736112596699968,NA,NA,NA
"experimental",4,12,"ld","lower","brouhuha","nw","nw","h","h",1,0.721282946455176,NA,NA,NA
"experimental",4,13,"ld","lower","violate","w","w","g","g",1,0.675306774588535,NA,NA,NA
"experimental",4,14,"ld","lower","pariah","w","w","g","h",0,0.911355662436108,NA,NA,NA
"experimental",4,15,"ld","lower","ganter","nw","nw","h","h",1,0.833978508337168,NA,NA,NA
"experimental",4,16,"ld","lower","ausht","nw","nw","h","h",1,0.799362810255843,NA,NA,NA
"experimental",4,17,"ld","lower","loneliest","w","w","g","g",1,0.798467519445694,NA,NA,NA
"experimental",4,18,"ld","lower","crudios","nw","nw","h","h",1,0.742172864323948,NA,NA,NA
"experimental",4,19,"ld","lower","recipus","nw","nw","h","h",1,0.983492075043614,NA,NA,NA
"experimental",4,20,"ld","lower","cherry","w","w","g","g",1,0.814502159890253,NA,NA,NA
"experimental",4,21,"ld","lower","reconcile","w","w","g","g",1,0.981116505674436,NA,NA,NA
"experimental",4,22,"ld","lower","fudden","nw","nw","h","h",1,1.33326312087593,NA,NA,NA
"experimental",4,23,"ld","lower","deakers","nw","nw","h","h",1,0.96727964420279,NA,NA,NA
"experimental",4,24,"ld","lower","imprives","nw","nw","h","h",1,1.10338920414506,NA,NA,NA
"experimental",4,25,"ld","lower","inducing","w","w","g","g",1,1.25802548848151,NA,NA,NA
"experimental",4,26,"ld","lower","leuter","nw","nw","h","h",1,0.830725759224151,NA,NA,NA
"experimental",4,27,"ld","lower","efcorted","nw","nw","h","h",1,0.851820935946307,NA,NA,NA
"experimental",4,28,"ld","lower","garment","w","w","g","g",1,1.10447556679719,NA,NA,NA
"experimental",4,29,"ld","lower","arrival","w","w","g","g",1,0.731212947153836,NA,NA,NA
"experimental",4,30,"ld","lower","shockwave","w","w","g","g",1,0.829266610264312,NA,NA,NA
"experimental",5,1,"ld","lower","expired","w","w","g","g",1,0.800237877047039,NA,NA,NA
"experimental",5,2,"ld","lower","downtrund","nw","nw","h","h",1,0.729121419819421,NA,NA,NA
"experimental",5,3,"ld","lower","yellep","nw","nw","h","h",1,0.779051843099296,NA,NA,NA
"experimental",5,4,"ld","lower","caution","w","w","g","g",1,0.803176399000222,NA,NA,NA
"experimental",5,5,"ld","lower","hemoter","nw","nw","h","h",1,0.745818321913248,NA,NA,NA
"experimental",5,6,"ld","lower","twarfs","nw","nw","h","h",1,0.747216195071815,NA,NA,NA
"experimental",5,7,"ld","lower","retona","nw","nw","h","h",1,1.14059206930688,NA,NA,NA
"experimental",5,8,"ld","lower","markot","nw","nw","h","h",1,0.677968800810049,NA,NA,NA
"experimental",5,9,"ld","lower","forgery","w","w","g","g",1,1.86604778924084,NA,NA,NA
"experimental",5,10,"ld","lower","crimb","nw","nw","h","h",1,0.765713338041678,NA,NA,NA
"experimental",5,11,"ld","lower","intended","w","w","g","g",1,0.678395316630485,NA,NA,NA
"experimental",5,12,"ld","lower","surdens","nw","nw","h","h",1,0.778422181392671,NA,NA,NA
"experimental",5,13,"ld","lower","relaying","w","w","g","g",1,0.810465804926935,NA,NA,NA
"experimental",5,14,"ld","lower","mopping","w","w","g","h",0,0.697121564706322,NA,NA,NA
"experimental",5,15,"ld","lower","poughest","nw","nw","h","h",1,0.796486167819239,NA,NA,NA
"experimental",5,16,"ld","lower","shamrock","w","w","g","g",1,0.84386232579709,NA,NA,NA
"experimental",5,17,"ld","lower","axis","w","w","g","g",1,0.601194141825545,NA,NA,NA
"experimental",5,18,"ld","lower","moisture","w","w","g","g",1,0.695886389366933,NA,NA,NA
"experimental",5,19,"ld","lower","dredigest","nw","nw","h","h",1,0.778339775992208,NA,NA,NA
"experimental",5,20,"ld","lower","aicline","nw","nw","h","h",1,1.33824547765835,NA,NA,NA
"experimental",5,21,"ld","lower","tinker","w","w","g","g",1,0.658348469311022,NA,NA,NA
"experimental",5,22,"ld","lower","govern","w","w","g","g",1,0.83897656139743,NA,NA,NA
"experimental",5,23,"ld","lower","snorls","nw","nw","h","h",1,0.861094410167425,NA,NA,NA
"experimental",5,24,"ld","lower","chight","nw","nw","h","h",1,1.81827318760043,NA,NA,NA
"experimental",5,25,"ld","lower","brimitive","nw","nw","h","h",1,0.880312373948982,NA,NA,NA
"experimental",5,26,"ld","lower","heaviest","w","w","g","g",1,0.675252441375051,NA,NA,NA
"experimental",5,27,"ld","lower","chraps","nw","nw","h","h",1,0.783379484535544,NA,NA,NA
"experimental",5,28,"ld","lower","phonology","w","w","g","h",0,1.15906476233795,NA,NA,NA
"experimental",5,29,"ld","lower","rodeo","w","w","g","g",1,0.743947145994753,NA,NA,NA
"experimental",5,30,"ld","lower","graveyard","w","w","g","g",1,0.665348701732,NA,NA,NA
"experimental",6,1,"ld","lower","suddenly","w","w","g","g",1,0.68519300686603,NA,NA,NA
"experimental",6,2,"ld","lower","infusion","w","w","g","g",1,0.608560821667197,NA,NA,NA
"experimental",6,3,"ld","lower","buzzer","w","w","g","g",1,0.703284763614647,NA,NA,NA
"experimental",6,4,"ld","lower","corg","nw","nw","h","h",1,0.889903395684087,NA,NA,NA
"experimental",6,5,"ld","lower","gigglod","nw","nw","h","h",1,0.773316669277847,NA,NA,NA
"experimental",6,6,"ld","lower","flacked","nw","nw","h","g",0,1.17336738028098,NA,NA,NA
"experimental",6,7,"ld","lower","noblest","w","w","g","g",1,0.669389584480086,NA,NA,NA
"experimental",6,8,"ld","lower","fillings","w","w","g","g",1,0.769442408432951,NA,NA,NA
"experimental",6,9,"ld","lower","misobeyed","nw","nw","h","g",0,0.760538702001213,NA,NA,NA
"experimental",6,10,"ld","lower","withep","nw","nw","h","h",1,0.761176211861311,NA,NA,NA
"experimental",6,11,"ld","lower","companion","w","w","g","g",1,0.880773300799774,NA,NA,NA
"experimental",6,12,"ld","lower","become","w","w","g","g",1,0.860925977161969,NA,NA,NA
"experimental",6,13,"ld","lower","parent","w","w","g","g",1,1.26627870545781,NA,NA,NA
"experimental",6,14,"ld","lower","earterner","nw","nw","h","h",1,0.85528920685465,NA,NA,NA
"experimental",6,15,"ld","lower","forbid","w","w","g","g",1,1.14789173819008,NA,NA,NA
"experimental",6,16,"ld","lower","tining","nw","nw","h","h",1,0.860458711424144,NA,NA,NA
"experimental",6,17,"ld","lower","bamps","nw","nw","h","h",1,1.48901957520866,NA,NA,NA
"experimental",6,18,"ld","lower","ignore","w","w","g","g",1,0.65234102566319,NA,NA,NA
"experimental",6,19,"ld","lower","wienegs","nw","nw","h","h",1,0.753143648151308,NA,NA,NA
"experimental",6,20,"ld","lower","troven","nw","nw","h","h",1,1.24983203804004,NA,NA,NA
"experimental",6,21,"ld","lower","irfirm","nw","nw","h","g",0,0.687200317697716,NA,NA,NA
"experimental",6,22,"ld","lower","sputter","w","w","g","g",1,1.31456796346174,NA,NA,NA
"experimental",6,23,"ld","lower","ilcurring","nw","nw","h","h",1,0.749255200295011,NA,NA,NA
"experimental",6,24,"ld","lower","eyesight","w","w","g","g",1,0.782569617615081,NA,NA,NA
"experimental",6,25,"ld","lower","sength","nw","nw","h","h",1,0.837618834455498,NA,NA,NA
"experimental",6,26,"ld","lower","module","w","w","g","g",1,0.746926116014947,NA,NA,NA
"experimental",6,27,"ld","lower","rationale","w","w","g","g",1,0.708265309294802,NA,NA,NA
"experimental",6,28,"ld","lower","duries","nw","nw","h","h",1,0.663030785959563,NA,NA,NA
"experimental",6,29,"ld","lower","subpoena","w","w","g","g",1,0.747678631203598,NA,NA,NA
"experimental",6,30,"ld","lower","smallash","nw","nw","h","h",1,1.27712331543444,NA,NA,NA
"experimental",7,1,"hd","upper","gensions","nw","nw","h","h",1,0.743891907215584,NA,NA,NA
"experimental",7,2,"hd","upper","sequence","w","w","g","g",1,1.52129713346949,NA,NA,NA
"experimental",7,3,"hd","upper","bulmed","nw","nw","h","h",1,0.675667185001657,NA,NA,NA
"experimental",7,4,"hd","upper","lanthers","nw","nw","h","h",1,0.591523733208305,NA,NA,NA
"experimental",7,5,"hd","upper","porghum","nw","nw","h","h",1,0.662878049217397,NA,NA,NA
"experimental",7,6,"hd","upper","entropy","w","w","g","g",1,0.898943538879394,NA,NA,NA
"experimental",7,7,"hd","upper","cegalia","nw","nw","h","h",1,0.749620138449245,NA,NA,NA
"experimental",7,8,"hd","upper","system","w","w","g","g",1,0.726926357499906,NA,NA,NA
"experimental",7,9,"hd","upper","trallion","nw","nw","h","h",1,0.944021401403006,NA,NA,NA
"experimental",7,10,"hd","upper","brighten","w","w","g","g",1,0.809267153599649,NA,NA,NA
"experimental",7,11,"hd","upper","clume","nw","nw","h","h",1,0.720002795293112,NA,NA,NA
"experimental",7,12,"hd","upper","filny","nw","nw","h","h",1,1.11403579970647,NA,NA,NA
"experimental",7,13,"hd","upper","fomes","nw","nw","h","h",1,0.740680209870334,NA,NA,NA
"experimental",7,14,"hd","upper","latpin","nw","nw","h","h",1,0.94209528855572,NA,NA,NA
"experimental",7,15,"hd","upper","antique","w","w","g","g",1,1.06267490332539,NA,NA,NA
"experimental",7,16,"hd","upper","computer","w","w","g","g",1,0.772169936375576,NA,NA,NA
"experimental",7,17,"hd","upper","company","w","w","g","g",1,0.715227810302167,NA,NA,NA
"experimental",7,18,"hd","upper","unversed","w","w","g","h",0,0.76588629881735,NA,NA,NA
"experimental",7,19,"hd","upper","ordinary","w","w","g","g",1,0.718530364873004,NA,NA,NA
"experimental",7,20,"hd","upper","widely","w","w","g","g",1,0.592575684815529,NA,NA,NA
"experimental",7,21,"hd","upper","plashed","nw","nw","h","h",1,0.751932017214131,NA,NA,NA
"experimental",7,22,"hd","upper","veirs","nw","nw","h","h",1,0.832718883058988,NA,NA,NA
"experimental",7,23,"hd","upper","preight","nw","nw","h","h",1,0.780761830450501,NA,NA,NA
"experimental",7,24,"hd","upper","awful","w","w","g","g",1,0.820185113450862,NA,NA,NA
"experimental",7,25,"hd","upper","flieves","nw","nw","h","h",1,0.704998976871138,NA,NA,NA
"experimental",7,26,"hd","upper","togglo","nw","nw","h","h",1,0.915588522562757,NA,NA,NA
"experimental",7,27,"hd","upper","kangaroo","target","target","q","g",0,2.02176953067828,NA,NA,NA
"experimental",7,28,"hd","upper","alchemist","aftertar1","w","g","g",1,0.76303772853862,NA,NA,NA
"experimental",7,29,"hd","upper","extend","aftertar2","w","g","g",1,0.739056853839429,NA,NA,NA
"experimental",7,30,"hd","upper","moral","aftertar3","w","g","g",1,0.859859838543343,NA,NA,NA
"experimental",8,1,"hd","upper","mortgage","w","w","g","g",1,1.15964250563411,NA,NA,NA
"experimental",8,2,"hd","upper","anterior","w","w","g","g",1,0.552296049820143,NA,NA,NA
"experimental",8,3,"hd","upper","nores","nw","nw","h","h",1,0.777069887772086,NA,NA,NA
"experimental",8,4,"hd","upper","rangel","nw","nw","h","h",1,0.985017933140625,NA,NA,NA
"experimental",8,5,"hd","upper","latter","w","w","g","g",1,0.704409763231524,NA,NA,NA
"experimental",8,6,"hd","upper","category","w","w","g","g",1,0.643175614197389,NA,NA,NA
"experimental",8,7,"hd","upper","elalt","nw","nw","h","h",1,0.791645681121736,NA,NA,NA
"experimental",8,8,"hd","upper","skiing","w","w","g","g",1,1.0629562286922,NA,NA,NA
"experimental",8,9,"hd","upper","fragment","w","w","g","g",1,0.595571860365453,NA,NA,NA
"experimental",8,10,"hd","upper","scrib","nw","nw","h","h",1,0.667089176073205,NA,NA,NA
"experimental",8,11,"hd","upper","rejoiced","w","w","g","g",1,0.718979217694141,NA,NA,NA
"experimental",8,12,"hd","upper","owner","w","w","g","g",1,0.720990754445666,NA,NA,NA
"experimental",8,13,"hd","upper","esdings","nw","nw","h","h",1,0.978014078500564,NA,NA,NA
"experimental",8,14,"hd","upper","itfidels","nw","nw","h","h",1,0.82540019757289,NA,NA,NA
"experimental",8,15,"hd","upper","fivalve","nw","nw","h","h",1,1.14240589349356,NA,NA,NA
"experimental",8,16,"hd","upper","reses","nw","nw","h","h",1,0.823648554738611,NA,NA,NA
"experimental",8,17,"hd","upper","surfaced","w","w","g","g",1,0.724881013404229,NA,NA,NA
"experimental",8,18,"hd","upper","number","w","w","g","g",1,0.734207009736565,NA,NA,NA
"experimental",8,19,"hd","upper","tibs","nw","nw","h","h",1,1.33552459046768,NA,NA,NA
"experimental",8,20,"hd","upper","irregular","w","w","g","g",1,1.90504153790243,NA,NA,NA
"experimental",8,21,"hd","upper","jinds","nw","nw","h","h",1,0.659075327130267,NA,NA,NA
"experimental",8,22,"hd","upper","pender","nw","nw","h","h",1,0.87105791635986,NA,NA,NA
"experimental",8,23,"hd","upper","offonents","nw","nw","h","h",1,0.858413971043774,NA,NA,NA
"experimental",8,24,"hd","upper","painter","w","w","g","g",1,1.0615852203191,NA,NA,NA
"experimental",8,25,"hd","upper","odacles","nw","nw","h","h",1,1.01751614466775,NA,NA,NA
"experimental",8,26,"hd","upper","religious","w","w","g","g",1,0.711635176689015,NA,NA,NA
"experimental",8,27,"hd","upper","deserve","w","w","g","g",1,0.609552101188456,NA,NA,NA
"experimental",8,28,"hd","upper","infancy","w","w","g","g",1,0.839605015717098,NA,NA,NA
"experimental",8,29,"hd","upper","houted","nw","nw","h","h",1,0.804317396745319,NA,NA,NA
"experimental",8,30,"hd","upper","puyer","nw","nw","h","h",1,0.778415238819434,NA,NA,NA
"experimental",9,1,"hd","upper","ludictous","nw","nw","h","h",1,0.841595121019054,NA,NA,NA
"experimental",9,2,"hd","upper","appain","nw","nw","h","h",1,0.725058501950116,NA,NA,NA
"experimental",9,3,"hd","upper","punctual","w","w","g","g",1,0.73453421650629,NA,NA,NA
"experimental",9,4,"hd","upper","prison","w","w","g","g",1,0.632144761970267,NA,NA,NA
"experimental",9,5,"hd","upper","massacre","w","w","g","g",1,0.694163422420388,NA,NA,NA
"experimental",9,6,"hd","upper","teamwork","w","w","g","g",1,0.672153938256088,NA,NA,NA
"experimental",9,7,"hd","upper","lifetime","w","w","g","g",1,0.635511007159948,NA,NA,NA
"experimental",9,8,"hd","upper","dorth","nw","nw","h","h",1,0.680661313992459,NA,NA,NA
"experimental",9,9,"hd","upper","buttress","w","w","g","g",1,1.10815211507725,NA,NA,NA
"experimental",9,10,"hd","upper","glapula","nw","nw","h","h",1,0.78223939234158,NA,NA,NA
"experimental",9,11,"hd","upper","oleandur","nw","nw","h","h",1,0.821125078262412,NA,NA,NA
"experimental",9,12,"hd","upper","attrove","nw","nw","h","g",0,1.85098450611986,NA,NA,NA
"experimental",9,13,"hd","upper","sengry","nw","nw","h","h",1,0.687567972534453,NA,NA,NA
"experimental",9,14,"hd","upper","define","w","w","g","g",1,0.673413563534268,NA,NA,NA
"experimental",9,15,"hd","upper","airbis","nw","nw","h","h",1,0.796698972946615,NA,NA,NA
"experimental",9,16,"hd","upper","amidst","w","w","g","g",1,0.731304408094729,NA,NA,NA
"experimental",9,17,"hd","upper","uncarled","nw","nw","h","h",1,0.756778842798667,NA,NA,NA
"experimental",9,18,"hd","upper","larger","w","w","g","g",1,0.748760164235136,NA,NA,NA
"experimental",9,19,"hd","upper","carnival","w","w","g","g",1,0.781421375446371,NA,NA,NA
"experimental",9,20,"hd","upper","clattest","nw","nw","h","h",1,0.932800382899586,NA,NA,NA
"experimental",9,21,"hd","upper","mining","w","w","g","g",1,0.622196650205296,NA,NA,NA
"experimental",9,22,"hd","upper","vibrate","w","w","g","g",1,0.579537219920894,NA,NA,NA
"experimental",9,23,"hd","upper","attended","w","w","g","g",1,0.586014344124123,NA,NA,NA
"experimental",9,24,"hd","upper","rumblos","nw","nw","h","h",1,0.632618366580573,NA,NA,NA
"experimental",9,25,"hd","upper","flamingo","target","target","q","g",0,0.605890947321313,NA,NA,NA
"experimental",9,26,"hd","upper","pastnoss","aftertar1","nw","h","h",1,1.03593269336852,NA,NA,NA
"experimental",9,27,"hd","upper","fatho","aftertar2","nw","h","h",1,0.592150074560777,NA,NA,NA
"experimental",9,28,"hd","upper","grenavier","aftertar3","nw","h","h",1,0.662979169399478,NA,NA,NA
"experimental",9,29,"hd","upper","ciping","nw","nw","h","h",1,0.843706268686219,NA,NA,NA
"experimental",9,30,"hd","upper","tucker","nw","w","g","g",1,1.16079678482492,NA,NA,NA
"experimental",10,1,"ld","lower","rocket","w","w","g","g",1,1.1845044841466,NA,NA,NA
"experimental",10,2,"ld","lower","affluent","w","w","g","g",1,0.720010039731278,NA,NA,NA
"experimental",10,3,"ld","lower","minister","w","w","g","g",1,0.569327403107309,NA,NA,NA
"experimental",10,4,"ld","lower","afford","w","w","g","g",1,0.488612981556798,NA,NA,NA
"experimental",10,5,"ld","lower","ubefully","nw","nw","h","h",1,0.675331526392256,NA,NA,NA
"experimental",10,6,"ld","lower","patio","w","w","g","g",1,0.749847130602575,NA,NA,NA
"experimental",10,7,"ld","lower","neliefs","nw","nw","h","h",1,0.798564413693384,NA,NA,NA
"experimental",10,8,"ld","lower","collute","nw","nw","h","h",1,1.65321609245439,NA,NA,NA
"experimental",10,9,"ld","lower","potter","w","w","g","g",1,0.609186861169292,NA,NA,NA
"experimental",10,10,"ld","lower","removable","w","w","g","g",1,0.655305506821605,NA,NA,NA
"experimental",10,11,"ld","lower","perishing","w","w","g","g",1,0.947307656009798,NA,NA,NA
"experimental",10,12,"ld","lower","gablus","nw","nw","h","h",1,0.74799165094737,NA,NA,NA
"experimental",10,13,"ld","lower","colicky","w","w","g","h",0,0.804616531328065,NA,NA,NA
"experimental",10,14,"ld","lower","extruded","w","w","g","g",1,0.770827000131248,NA,NA,NA
"experimental",10,15,"ld","lower","sarlock","nw","nw","h","h",1,1.13811537977017,NA,NA,NA
"experimental",10,16,"ld","lower","sorping","nw","nw","h","h",1,1.37783749549999,NA,NA,NA
"experimental",10,17,"ld","lower","drine","nw","nw","h","h",1,0.832176758209243,NA,NA,NA
"experimental",10,18,"ld","lower","female","w","w","g","g",1,0.821737232603482,NA,NA,NA
"experimental",10,19,"ld","lower","welayed","nw","nw","h","h",1,1.74777250694751,NA,NA,NA
"experimental",10,20,"ld","lower","poars","nw","nw","h","h",1,1.06862408969027,NA,NA,NA
"experimental",10,21,"ld","lower","shurk","nw","nw","h","h",1,0.760703512787586,NA,NA,NA
"experimental",10,22,"ld","lower","brials","nw","nw","h","h",1,0.816936288407305,NA,NA,NA
"experimental",10,23,"ld","lower","pallir","nw","nw","h","h",1,0.66989367606584,NA,NA,NA
"experimental",10,24,"ld","lower","coyote","target","target","q","q",1,1.04917188934633,1,NA,NA
"experimental",10,25,"ld","lower","shimble","aftertar1","nw","h","h",1,1.08587066292239,NA,NA,NA
"experimental",10,26,"ld","lower","slogan","aftertar2","w","g","g",1,1.06460011063609,NA,NA,NA
"experimental",10,27,"ld","lower","earmaff","aftertar3","nw","h","h",1,1.22062249592273,NA,NA,NA
"experimental",10,28,"ld","lower","volume","nw","w","g","g",1,0.681920335555333,NA,NA,NA
"experimental",10,29,"ld","lower","gures","w","nw","h","h",1,0.980539064228651,NA,NA,NA
"experimental",10,30,"ld","lower","entitle","nw","w","g","g",1,0.732690207194537,NA,NA,NA
"experimental",11,1,"hd","upper","unstatle","nw","nw","h","h",1,1.06987888534786,NA,NA,NA
"experimental",11,2,"hd","upper","praiged","nw","nw","h","h",1,0.617230593386921,NA,NA,NA
"experimental",11,3,"hd","upper","lutton","nw","nw","h","h",1,0.543338613875676,NA,NA,NA
"experimental",11,4,"hd","upper","baseline","w","w","g","g",1,0.800036240412737,NA,NA,NA
"experimental",11,5,"hd","upper","dreaded","w","w","g","g",1,1.17379299056483,NA,NA,NA
"experimental",11,6,"hd","upper","flicking","w","w","g","g",1,0.715983042144217,NA,NA,NA
"experimental",11,7,"hd","upper","lignpost","nw","nw","h","h",1,0.782226110895863,NA,NA,NA
"experimental",11,8,"hd","upper","country","w","w","g","g",1,0.766273272121907,NA,NA,NA
"experimental",11,9,"hd","upper","movie","w","w","g","g",1,0.574386731983395,NA,NA,NA
"experimental",11,10,"hd","upper","function","w","w","g","g",1,0.997565889760153,NA,NA,NA
"experimental",11,11,"hd","upper","arcients","nw","nw","h","h",1,0.892514710882097,NA,NA,NA
"experimental",11,12,"hd","upper","pregs","nw","nw","h","h",1,1.19909869041294,NA,NA,NA
"experimental",11,13,"hd","upper","anonymous","w","w","g","g",1,0.765892335854005,NA,NA,NA
"experimental",11,14,"hd","upper","roaned","nw","nw","h","h",1,0.548796084534843,NA,NA,NA
"experimental",11,15,"hd","upper","chesume","nw","nw","h","h",1,0.813593889470212,NA,NA,NA
"experimental",11,16,"hd","upper","analysis","w","w","g","g",1,0.787471380113857,NA,NA,NA
"experimental",11,17,"hd","upper","fravity","nw","nw","h","h",1,0.714241058565676,NA,NA,NA
"experimental",11,18,"hd","upper","elephant","target","target","q","q",1,0.964257509447634,1,NA,NA
"experimental",11,19,"hd","upper","churnad","aftertar1","nw","h","h",1,0.684423889877507,NA,NA,NA
"experimental",11,20,"hd","upper","optional","aftertar2","w","g","g",1,0.639656632280094,NA,NA,NA
"experimental",11,21,"hd","upper","tycoon","aftertar3","w","g","g",1,0.907490758982021,NA,NA,NA
"experimental",11,22,"hd","upper","purpose","w","w","g","g",1,0.894447162601864,NA,NA,NA
"experimental",11,23,"hd","upper","numbled","w","nw","h","h",1,0.688072969671339,NA,NA,NA
"experimental",11,24,"hd","upper","harfing","nw","nw","h","h",1,0.778824850960518,NA,NA,NA
"experimental",11,25,"hd","upper","insertion","nw","w","g","g",1,0.762113460004912,NA,NA,NA
"experimental",11,26,"hd","upper","tablet","w","w","g","g",1,1.0342851892201,NA,NA,NA
"experimental",11,27,"hd","upper","dounger","w","nw","h","h",1,0.639479747434962,NA,NA,NA
"experimental",11,28,"hd","upper","arrested","nw","w","g","g",1,0.748168837628327,NA,NA,NA
"experimental",11,29,"hd","upper","gontracts","w","nw","h","h",1,0.723490384683828,NA,NA,NA
"experimental",11,30,"hd","upper","nopping","nw","nw","h","h",1,0.797140883194515,NA,NA,NA
"experimental",12,1,"hd","upper","plymie","nw","nw","h","h",1,0.747833782748785,NA,NA,NA
"experimental",12,2,"hd","upper","scrooner","nw","nw","h","h",1,0.860579451924423,NA,NA,NA
"experimental",12,3,"hd","upper","cassette","w","w","g","g",1,0.896627132358844,NA,NA,NA
"experimental",12,4,"hd","upper","foster","w","w","g","g",1,0.79537716631603,NA,NA,NA
"experimental",12,5,"hd","upper","gelfry","nw","nw","h","h",1,0.825974620500347,NA,NA,NA
"experimental",12,6,"hd","upper","peanimate","nw","nw","h","h",1,1.01421328824654,NA,NA,NA
"experimental",12,7,"hd","upper","bettled","nw","nw","h","h",1,0.860240774811246,NA,NA,NA
"experimental",12,8,"hd","upper","godomy","nw","nw","h","h",1,0.6722167233238,NA,NA,NA
"experimental",12,9,"hd","upper","hivinity","nw","nw","h","h",1,1.30760576430475,NA,NA,NA
"experimental",12,10,"hd","upper","contact","w","w","g","g",1,0.885590243109618,NA,NA,NA
"experimental",12,11,"hd","upper","chrik","nw","nw","h","h",1,0.928400900884299,NA,NA,NA
"experimental",12,12,"hd","upper","revising","w","w","g","g",1,0.688909399497788,NA,NA,NA
"experimental",12,13,"hd","upper","theery","nw","nw","h","h",1,1.39551722528995,NA,NA,NA
"experimental",12,14,"hd","upper","bloodless","w","w","g","g",1,0.890111974891624,NA,NA,NA
"experimental",12,15,"hd","upper","mogus","nw","nw","h","h",1,0.764813821311691,NA,NA,NA
"experimental",12,16,"hd","upper","paranoid","w","w","g","g",1,0.844793536918587,NA,NA,NA
"experimental",12,17,"hd","upper","incidonts","nw","nw","h","h",1,0.793486370064784,NA,NA,NA
"experimental",12,18,"hd","upper","renown","w","w","g","g",1,0.791133137681754,NA,NA,NA
"experimental",12,19,"hd","upper","portify","nw","nw","h","h",1,0.925739176513162,NA,NA,NA
"experimental",12,20,"hd","upper","rantho","nw","nw","h","h",1,0.823633764026454,NA,NA,NA
"experimental",12,21,"hd","upper","enabled","w","w","g","g",1,0.821471905350336,NA,NA,NA
"experimental",12,22,"hd","upper","trophy","w","w","g","g",1,0.64175993182289,NA,NA,NA
"experimental",12,23,"hd","upper","preclude","w","w","g","g",1,0.798266184647218,NA,NA,NA
"experimental",12,24,"hd","upper","volder","nw","nw","h","h",1,0.653036490941304,NA,NA,NA
"experimental",12,25,"hd","upper","ragtam","nw","nw","h","h",1,0.616860221882234,NA,NA,NA
"experimental",12,26,"hd","upper","euphoric","w","w","g","g",1,0.854872048425023,NA,NA,NA
"experimental",12,27,"hd","upper","vaporize","w","w","g","g",1,0.5867502574838,NA,NA,NA
"experimental",12,28,"hd","upper","usage","w","w","g","g",1,0.961374829974375,NA,NA,NA
"experimental",12,29,"hd","upper","vivid","w","w","g","g",1,0.569297519832617,NA,NA,NA
"experimental",12,30,"hd","upper","monkey","target","target","q","g",0,0.631653951830231,NA,NA,NA
"experimental",13,1,"ld","lower","schides","nw","nw","h","h",1,1.06161208507547,NA,NA,NA
"experimental",13,2,"ld","lower","abraid","nw","nw","h","h",1,0.73754639015533,NA,NA,NA
"experimental",13,3,"ld","lower","seighing","nw","nw","h","h",1,1.13836682186229,NA,NA,NA
"experimental",13,4,"ld","lower","chiffol","nw","nw","h","h",1,0.795080748372129,NA,NA,NA
"experimental",13,5,"ld","lower","hinsome","nw","nw","h","h",1,0.864729001114029,NA,NA,NA
"experimental",13,6,"ld","lower","ebuating","nw","nw","h","h",1,0.660742149761063,NA,NA,NA
"experimental",13,7,"ld","lower","alber","nw","nw","h","h",1,0.831580300131463,NA,NA,NA
"experimental",13,8,"ld","lower","batire","nw","nw","h","h",1,1.02092072495725,NA,NA,NA
"experimental",13,9,"ld","lower","doads","nw","nw","h","h",1,0.755061309158918,NA,NA,NA
"experimental",13,10,"ld","lower","solidity","w","w","g","g",1,1.08360255260777,NA,NA,NA
"experimental",13,11,"ld","lower","tracing","w","w","g","g",1,0.71881138838944,NA,NA,NA
"experimental",13,12,"ld","lower","stable","w","w","g","g",1,0.68793381623982,NA,NA,NA
"experimental",13,13,"ld","lower","gremieres","nw","nw","h","h",1,0.794708565779729,NA,NA,NA
"experimental",13,14,"ld","lower","miurnal","nw","nw","h","h",1,0.969217227393528,NA,NA,NA
"experimental",13,15,"ld","lower","coverall","w","w","g","g",1,0.936674945580307,NA,NA,NA
"experimental",13,16,"ld","lower","deceit","w","w","g","g",1,0.721375614783028,NA,NA,NA
"experimental",13,17,"ld","lower","sording","nw","nw","h","h",1,1.01075980805035,NA,NA,NA
"experimental",13,18,"ld","lower","official","w","w","g","g",1,0.936775160211255,NA,NA,NA
"experimental",13,19,"ld","lower","passet","nw","nw","h","h",1,0.94546274113236,NA,NA,NA
"experimental",13,20,"ld","lower","cavern","w","w","g","g",1,0.729245480688405,NA,NA,NA
"experimental",13,21,"ld","lower","railroad","w","w","g","g",1,0.922546193964081,NA,NA,NA
"experimental",13,22,"ld","lower","mixture","w","w","g","g",1,0.731995043752249,NA,NA,NA
"experimental",13,23,"ld","lower","shests","nw","nw","h","h",1,0.861273709815578,NA,NA,NA
"experimental",13,24,"ld","lower","airline","w","w","g","g",1,0.793315522241755,NA,NA,NA
"experimental",13,25,"ld","lower","bypassed","w","w","g","h",0,0.864067041315138,NA,NA,NA
"experimental",13,26,"ld","lower","culinary","w","w","g","h",0,1.50807785966026,NA,NA,NA
"experimental",13,27,"ld","lower","defeat","w","w","g","g",1,0.670161719972384,NA,NA,NA
"experimental",13,28,"ld","lower","delegate","w","w","g","g",1,0.769482856514514,NA,NA,NA
"experimental",13,29,"ld","lower","halms","nw","nw","h","h",1,0.656828950101044,NA,NA,NA
"experimental",13,30,"ld","lower","digest","w","w","g","g",1,0.610735358102829,NA,NA,NA
"experimental",14,1,"ld","lower","restock","w","w","g","g",1,1.44189546302368,NA,NA,NA
"experimental",14,2,"ld","lower","kettle","w","w","g","g",1,0.630615583519102,NA,NA,NA
"experimental",14,3,"ld","lower","childhood","w","w","g","g",1,0.739935240984778,NA,NA,NA
"experimental",14,4,"ld","lower","hangar","w","w","g","g",1,0.667574854727718,NA,NA,NA
"experimental",14,5,"ld","lower","stagger","w","w","g","g",1,0.639439903083257,NA,NA,NA
"experimental",14,6,"ld","lower","disperse","w","w","g","g",1,0.748388283493114,NA,NA,NA
"experimental",14,7,"ld","lower","slooping","nw","nw","h","h",1,0.989157219373738,NA,NA,NA
"experimental",14,8,"ld","lower","decant","w","w","g","g",1,1.10780558982515,NA,NA,NA
"experimental",14,9,"ld","lower","legalosm","nw","nw","h","h",1,0.781870831953711,NA,NA,NA
"experimental",14,10,"ld","lower","sponto","nw","nw","h","h",1,0.661219678426278,NA,NA,NA
"experimental",14,11,"ld","lower","retain","w","w","g","g",1,0.704368711449206,NA,NA,NA
"experimental",14,12,"ld","lower","gund","nw","nw","h","h",1,1.00232185810455,NA,NA,NA
"experimental",14,13,"ld","lower","amplifier","w","w","g","g",1,0.960313520976342,NA,NA,NA
"experimental",14,14,"ld","lower","racile","nw","nw","h","h",1,0.848347231731168,NA,NA,NA
"experimental",14,15,"ld","lower","pircus","nw","nw","h","h",1,1.02105353951629,NA,NA,NA
"experimental",14,16,"ld","lower","dislokes","nw","nw","h","h",1,1.2264717695216,NA,NA,NA
"experimental",14,17,"ld","lower","bingu","nw","nw","h","h",1,0.655829520605039,NA,NA,NA
"experimental",14,18,"ld","lower","mennel","nw","nw","h","h",1,0.699917009173078,NA,NA,NA
"experimental",14,19,"ld","lower","fullity","nw","nw","h","h",1,1.42176771958475,NA,NA,NA
"experimental",14,20,"ld","lower","ounside","nw","nw","h","h",1,0.849872184247943,NA,NA,NA
"experimental",14,21,"ld","lower","regards","w","w","g","g",1,1.25478571896383,NA,NA,NA
"experimental",14,22,"ld","lower","postal","w","w","g","g",1,1.61969913293433,NA,NA,NA
"experimental",14,23,"ld","lower","classify","w","w","g","g",1,0.849009191530058,NA,NA,NA
"experimental",14,24,"ld","lower","dazid","nw","nw","h","h",1,0.853768178392784,NA,NA,NA
"experimental",14,25,"ld","lower","border","w","w","g","g",1,1.04174483923998,NA,NA,NA
"experimental",14,26,"ld","lower","lasprey","nw","nw","h","h",1,0.718466070553404,NA,NA,NA
"experimental",14,27,"ld","lower","desert","w","w","g","g",1,0.790912786265835,NA,NA,NA
"experimental",14,28,"ld","lower","pranny","nw","nw","h","h",1,0.789536344556836,NA,NA,NA
"experimental",14,29,"ld","lower","contain","w","w","g","g",1,0.676285980065586,NA,NA,NA
"experimental",14,30,"ld","lower","sporidic","nw","nw","h","h",1,1.0315486057516,NA,NA,NA
"experimental",15,1,"ld","lower","atble","nw","nw","h","h",1,0.749772573355585,NA,NA,NA
"experimental",15,2,"ld","lower","release","w","w","g","g",1,0.677493988783681,NA,NA,NA
"experimental",15,3,"ld","lower","formation","w","w","g","g",1,0.984797883575084,NA,NA,NA
"experimental",15,4,"ld","lower","trises","nw","nw","h","h",1,0.639440506784013,NA,NA,NA
"experimental",15,5,"ld","lower","profats","nw","nw","h","h",1,1.03622760203143,NA,NA,NA
"experimental",15,6,"ld","lower","stretches","w","w","g","g",1,1.60110207719845,NA,NA,NA
"experimental",15,7,"ld","lower","dabble","w","w","g","g",1,0.894918654244975,NA,NA,NA
"experimental",15,8,"ld","lower","handed","w","w","g","h",0,1.60042049706681,NA,NA,NA
"experimental",15,9,"ld","lower","sludding","nw","nw","h","h",1,0.92654964713438,NA,NA,NA
"experimental",15,10,"ld","lower","grieving","w","w","g","g",1,0.751584888275829,NA,NA,NA
"experimental",15,11,"ld","lower","teliever","nw","nw","h","h",1,0.848010365720256,NA,NA,NA
"experimental",15,12,"ld","lower","iflaid","nw","nw","h","h",1,0.692603153293021,NA,NA,NA
"experimental",15,13,"ld","lower","professor","w","w","g","g",1,1.27940078315441,NA,NA,NA
"experimental",15,14,"ld","lower","mitten","w","w","g","g",1,1.39471188615425,NA,NA,NA
"experimental",15,15,"ld","lower","gairs","nw","nw","h","h",1,0.673327535914723,NA,NA,NA
"experimental",15,16,"ld","lower","smabled","nw","nw","h","h",1,0.628795420459937,NA,NA,NA
"experimental",15,17,"ld","lower","valif","nw","nw","h","h",1,0.770205488413922,NA,NA,NA
"experimental",15,18,"ld","lower","vintnel","nw","nw","h","h",1,1.05651079888048,NA,NA,NA
"experimental",15,19,"ld","lower","stifle","w","w","g","g",1,1.02055850344186,NA,NA,NA
"experimental",15,20,"ld","lower","railway","w","w","g","g",1,0.889952899291529,NA,NA,NA
"experimental",15,21,"ld","lower","encounter","w","w","g","g",1,0.668546212065849,NA,NA,NA
"experimental",15,22,"ld","lower","veranpah","nw","nw","h","h",1,1.67193600165774,NA,NA,NA
"experimental",15,23,"ld","lower","treenery","nw","nw","h","h",1,2.17939716094406,NA,NA,NA
"experimental",15,24,"ld","lower","pakened","nw","nw","h","h",1,0.65064220680506,NA,NA,NA
"experimental",15,25,"ld","lower","maiden","w","w","g","g",1,0.877724603153183,NA,NA,NA
"experimental",15,26,"ld","lower","ronic","nw","nw","h","h",1,0.809079100275994,NA,NA,NA
"experimental",15,27,"ld","lower","exclusion","w","w","g","g",1,0.887268536083866,NA,NA,NA
"experimental",15,28,"ld","lower","pracking","nw","nw","h","h",1,0.705819106733543,NA,NA,NA
"experimental",15,29,"ld","lower","filter","w","w","g","g",1,1.20387458095502,NA,NA,NA
"experimental",15,30,"ld","lower","venturous","w","w","g","g",1,1.76878769307223,NA,NA,NA
"experimental",16,1,"ld","lower","shillac","nw","nw","h","h",1,0.776237985715852,NA,NA,NA
"experimental",16,2,"ld","lower","snays","nw","nw","h","h",1,1.08753869295469,NA,NA,NA
"experimental",16,3,"ld","lower","ebince","nw","nw","h","h",1,1.03418920052354,NA,NA,NA
"experimental",16,4,"ld","lower","dorte","nw","nw","h","h",1,1.13490488984098,NA,NA,NA
"experimental",16,5,"ld","lower","drauns","nw","nw","h","h",1,0.599499850723078,NA,NA,NA
"experimental",16,6,"ld","lower","outfit","w","w","g","g",1,0.766174264921574,NA,NA,NA
"experimental",16,7,"ld","lower","comment","w","w","g","g",1,0.989130052766996,NA,NA,NA
"experimental",16,8,"ld","lower","gaining","w","w","g","g",1,0.779811602711561,NA,NA,NA
"experimental",16,9,"ld","lower","insole","w","w","g","g",1,1.09916207917558,NA,NA,NA
"experimental",16,10,"ld","lower","scack","nw","nw","h","h",1,0.845797796035185,NA,NA,NA
"experimental",16,11,"ld","lower","virulent","w","w","g","g",1,0.962558690604055,NA,NA,NA
"experimental",16,12,"ld","lower","penalize","w","w","g","g",1,1.4265291212505,NA,NA,NA
"experimental",16,13,"ld","lower","asclibed","nw","nw","h","h",1,0.927925183292246,NA,NA,NA
"experimental",16,14,"ld","lower","emergence","w","w","g","g",1,0.913325845554937,NA,NA,NA
"experimental",16,15,"ld","lower","knowledge","w","w","g","g",1,0.666318247953313,NA,NA,NA
"experimental",16,16,"ld","lower","imotope","nw","nw","h","h",1,0.990342287390376,NA,NA,NA
"experimental",16,17,"ld","lower","ephically","nw","nw","h","h",1,1.78915601197514,NA,NA,NA
"experimental",16,18,"ld","lower","picnic","w","w","g","g",1,0.898685154199484,NA,NA,NA
"experimental",16,19,"ld","lower","paterways","nw","nw","h","h",1,0.862164171005134,NA,NA,NA
"experimental",16,20,"ld","lower","alomalous","nw","nw","h","h",1,1.06630617391784,NA,NA,NA
"experimental",16,21,"ld","lower","peadgear","nw","nw","h","h",1,0.829465530245216,NA,NA,NA
"experimental",16,22,"ld","lower","miteous","nw","nw","h","h",1,0.890610029455274,NA,NA,NA
"experimental",16,23,"ld","lower","unmarked","w","w","g","g",1,1.07734517611971,NA,NA,NA
"experimental",16,24,"ld","lower","butcher","w","w","g","g",1,1.16874090612691,NA,NA,NA
"experimental",16,25,"ld","lower","melodic","w","w","g","g",1,1.23204967883066,NA,NA,NA
"experimental",16,26,"ld","lower","gewer","nw","nw","h","h",1,1.00536240579095,NA,NA,NA
"experimental",16,27,"ld","lower","collision","w","w","g","g",1,0.771506165459868,NA,NA,NA
"experimental",16,28,"ld","lower","slending","nw","nw","h","h",1,2.03487953433068,NA,NA,NA
"experimental",16,29,"ld","lower","abhorrent","w","w","g","g",1,0.990598559103091,NA,NA,NA
"experimental",16,30,"ld","lower","actual","w","w","g","g",1,0.661260730208596,NA,NA,NA
"experimental",17,1,"hd","upper","sequence","w","w","g","g",1,0.754195297908154,NA,NA,NA
"experimental",17,2,"hd","upper","committed","w","w","g","g",1,0.626189538597828,NA,NA,NA
"experimental",17,3,"hd","upper","arrigns","nw","nw","h","h",1,0.815520606018254,NA,NA,NA
"experimental",17,4,"hd","upper","heuls","nw","nw","h","h",1,0.780564419736038,NA,NA,NA
"experimental",17,5,"hd","upper","argue","w","w","g","g",1,0.802662648173282,NA,NA,NA
"experimental",17,6,"hd","upper","sullen","w","w","g","h",0,1.22475936735282,NA,NA,NA
"experimental",17,7,"hd","upper","hustle","w","w","g","g",1,1.11082108384289,NA,NA,NA
"experimental",17,8,"hd","upper","mosary","nw","nw","h","h",1,1.06532908140798,NA,NA,NA
"experimental",17,9,"hd","upper","consonant","w","w","g","g",1,1.38906907881028,NA,NA,NA
"experimental",17,10,"hd","upper","cemoir","nw","nw","h","h",1,0.859052990126656,NA,NA,NA
"experimental",17,11,"hd","upper","rabbit","target","target","q","q",1,0.647888417806826,1,NA,NA
"experimental",17,12,"hd","upper","peems","aftertar1","nw","h","h",1,0.995571256658877,NA,NA,NA
"experimental",17,13,"hd","upper","edasion","aftertar2","nw","h","h",1,0.954223068227293,NA,NA,NA
"experimental",17,14,"hd","upper","serving","aftertar3","w","g","g",1,0.650316207451397,NA,NA,NA
"experimental",17,15,"hd","upper","podes","w","nw","h","h",1,0.710898659628583,NA,NA,NA
"experimental",17,16,"hd","upper","arrow","nw","w","g","g",1,0.696985127942753,NA,NA,NA
"experimental",17,17,"hd","upper","flougy","w","nw","h","h",1,0.65164616407128,NA,NA,NA
"experimental",17,18,"hd","upper","bloves","nw","nw","h","h",1,0.823697152780369,NA,NA,NA
"experimental",17,19,"hd","upper","ugifies","nw","nw","h","h",1,0.644172025189619,NA,NA,NA
"experimental",17,20,"hd","upper","rarely","nw","w","g","g",1,0.77685195117374,NA,NA,NA
"experimental",17,21,"hd","upper","phambled","w","nw","h","h",1,0.66414008931315,NA,NA,NA
"experimental",17,22,"hd","upper","permute","nw","w","g","g",1,2.08420474585728,NA,NA,NA
"experimental",17,23,"hd","upper","engineer","w","w","g","g",1,0.558931344086886,NA,NA,NA
"experimental",17,24,"hd","upper","guffy","w","nw","h","h",1,0.64695328263042,NA,NA,NA
"experimental",17,25,"hd","upper","tritical","nw","nw","h","h",1,0.683761930064065,NA,NA,NA
"experimental",17,26,"hd","upper","tunneg","nw","nw","h","h",1,0.910394568039919,NA,NA,NA
"experimental",17,27,"hd","upper","describe","nw","w","g","g",1,0.991604931201437,NA,NA,NA
"experimental",17,28,"hd","upper","mestowal","w","nw","h","h",1,0.8850538534316,NA,NA,NA
"experimental",17,29,"hd","upper","rational","nw","w","g","g",1,1.48780100169824,NA,NA,NA
"experimental",17,30,"hd","upper","expected","w","w","g","g",1,0.554492017690791,NA,NA,NA
"experimental",18,1,"hd","upper","pegend","nw","nw","h","h",1,0.963482657287386,NA,NA,NA
"experimental",18,2,"hd","upper","colored","w","w","g","g",1,1.33144295780221,NA,NA,NA
"experimental",18,3,"hd","upper","rewrite","w","w","g","g",1,0.756774013163522,NA,NA,NA
"experimental",18,4,"hd","upper","arranged","w","w","g","g",1,0.644784481381066,NA,NA,NA
"experimental",18,5,"hd","upper","frunted","nw","nw","h","h",1,1.88148204753816,NA,NA,NA
"experimental",18,6,"hd","upper","ringlat","nw","nw","h","h",1,0.724866826392827,NA,NA,NA
"experimental",18,7,"hd","upper","previous","w","w","g","g",1,0.67826340762258,NA,NA,NA
"experimental",18,8,"hd","upper","smolvers","nw","nw","h","h",1,1.00960039738857,NA,NA,NA
"experimental",18,9,"hd","upper","illness","w","w","g","g",1,0.862680940364953,NA,NA,NA
"experimental",18,10,"hd","upper","ipiocy","nw","nw","h","h",1,0.658679600135656,NA,NA,NA
"experimental",18,11,"hd","upper","eightiech","nw","nw","h","h",1,1.83872542115569,NA,NA,NA
"experimental",18,12,"hd","upper","retreat","w","w","g","g",1,2.04343611182412,NA,NA,NA
"experimental",18,13,"hd","upper","coster","nw","nw","h","h",1,0.93614912070916,NA,NA,NA
"experimental",18,14,"hd","upper","bickering","w","w","g","g",1,1.13693483950919,NA,NA,NA
"experimental",18,15,"hd","upper","meteoroid","w","w","g","g",1,1.66561070861644,NA,NA,NA
"experimental",18,16,"hd","upper","congraks","nw","nw","h","h",1,0.820548844218138,NA,NA,NA
"experimental",18,17,"hd","upper","mubby","nw","nw","h","h",1,0.897369082740624,NA,NA,NA
"experimental",18,18,"hd","upper","undimmec","nw","nw","h","h",1,0.828890201752074,NA,NA,NA
"experimental",18,19,"hd","upper","digested","w","w","g","g",1,0.778133611587691,NA,NA,NA
"experimental",18,20,"hd","upper","deadly","w","w","g","g",1,0.705516048081336,NA,NA,NA
"experimental",18,21,"hd","upper","leather","w","w","g","g",1,0.827538511846797,NA,NA,NA
"experimental",18,22,"hd","upper","demise","w","w","g","g",1,0.616785060919938,NA,NA,NA
"experimental",18,23,"hd","upper","combat","w","w","g","g",1,0.614871927682543,NA,NA,NA
"experimental",18,24,"hd","upper","squadroim","nw","nw","h","h",1,0.676102152647218,NA,NA,NA
"experimental",18,25,"hd","upper","acroad","nw","nw","h","h",1,1.047344481849,NA,NA,NA
"experimental",18,26,"hd","upper","pester","w","w","g","g",1,1.38797335875279,NA,NA,NA
"experimental",18,27,"hd","upper","geadpan","nw","nw","h","h",1,1.05064492346719,NA,NA,NA
"experimental",18,28,"hd","upper","issue","w","w","g","g",1,0.83070644075633,NA,NA,NA
"experimental",18,29,"hd","upper","naxis","nw","nw","h","h",1,0.756080358987674,NA,NA,NA
"experimental",18,30,"hd","upper","chining","nw","nw","h","h",1,1.40411606195266,NA,NA,NA
"experimental",19,1,"hd","upper","noils","nw","nw","h","h",1,0.61787957357592,NA,NA,NA
"experimental",19,2,"hd","upper","exploit","w","w","g","g",1,0.567410043950076,NA,NA,NA
"experimental",19,3,"hd","upper","undertake","w","w","g","g",1,1.20673764011008,NA,NA,NA
"experimental",19,4,"hd","upper","slimped","nw","nw","h","h",1,0.756709718858474,NA,NA,NA
"experimental",19,5,"hd","upper","maintain","w","w","g","g",1,0.747614336883998,NA,NA,NA
"experimental",19,6,"hd","upper","populace","w","w","g","g",1,0.659504257768276,NA,NA,NA
"experimental",19,7,"hd","upper","rander","nw","nw","h","h",1,0.648960895327036,NA,NA,NA
"experimental",19,8,"hd","upper","culer","nw","nw","h","h",1,0.685258206736762,NA,NA,NA
"experimental",19,9,"hd","upper","tyena","nw","nw","h","h",1,1.18391798716038,NA,NA,NA
"experimental",19,10,"hd","upper","gorilla","target","target","q","q",1,0.846559668600094,1,NA,NA
"experimental",19,11,"hd","upper","gumdrep","aftertar1","nw","h","h",1,1.07532850788266,NA,NA,NA
"experimental",19,12,"hd","upper","pollute","aftertar2","w","g","g",1,0.798523663775995,NA,NA,NA
"experimental",19,13,"hd","upper","ameld","aftertar3","nw","h","h",1,0.74125614206423,NA,NA,NA
"experimental",19,14,"hd","upper","image","nw","w","g","g",1,0.789873512403574,NA,NA,NA
"experimental",19,15,"hd","upper","fuhrek","w","nw","h","h",1,0.98857887237682,NA,NA,NA
"experimental",19,16,"hd","upper","obviously","nw","w","g","g",1,1.53824517581961,NA,NA,NA
"experimental",19,17,"hd","upper","ottans","w","nw","h","h",1,0.770961022106349,NA,NA,NA
"experimental",19,18,"hd","upper","mebase","nw","nw","h","h",1,0.810332688532071,NA,NA,NA
"experimental",19,19,"hd","upper","anemic","nw","w","g","g",1,1.11239463444508,NA,NA,NA
"experimental",19,20,"hd","upper","fetching","w","w","g","g",1,0.834411061179708,NA,NA,NA
"experimental",19,21,"hd","upper","pleamed","w","nw","h","h",1,1.31905588791415,NA,NA,NA
"experimental",19,22,"hd","upper","tharcely","nw","nw","h","h",1,0.687607213185402,NA,NA,NA
"experimental",19,23,"hd","upper","antonym","nw","w","g","g",1,0.794194211252034,NA,NA,NA
"experimental",19,24,"hd","upper","sweeping","w","w","g","g",1,0.744865075670532,NA,NA,NA
"experimental",19,25,"hd","upper","showdown","w","w","g","g",1,0.817499844692065,NA,NA,NA
"experimental",19,26,"hd","upper","epthuse","w","nw","h","h",1,0.678898200814729,NA,NA,NA
"experimental",19,27,"hd","upper","inside","nw","w","g","g",1,1.44229903814266,NA,NA,NA
"experimental",19,28,"hd","upper","trewl","w","nw","h","h",1,0.597660671046469,NA,NA,NA
"experimental",19,29,"hd","upper","measure","nw","w","g","g",1,0.980932074555312,NA,NA,NA
"experimental",19,30,"hd","upper","unwose","w","nw","h","h",1,0.948924673168222,NA,NA,NA
"experimental",20,1,"ld","lower","grummer","nw","nw","h","h",1,0.757335154645261,NA,NA,NA
"experimental",20,2,"ld","lower","dialogues","w","w","g","g",1,0.725499204781954,NA,NA,NA
"experimental",20,3,"ld","lower","prillway","nw","nw","h","h",1,0.670751235476928,NA,NA,NA
"experimental",20,4,"ld","lower","pressures","w","w","g","g",1,0.810090603816207,NA,NA,NA
"experimental",20,5,"ld","lower","ecistle","nw","nw","h","h",1,0.839234040526208,NA,NA,NA
"experimental",20,6,"ld","lower","fallint","nw","nw","h","h",1,0.723858945057145,NA,NA,NA
"experimental",20,7,"ld","lower","reloant","nw","nw","h","h",1,0.637240312993526,NA,NA,NA
"experimental",20,8,"ld","lower","unamufed","nw","nw","h","h",1,0.697860496569774,NA,NA,NA
"experimental",20,9,"ld","lower","daylight","w","w","g","g",1,0.796603587950813,NA,NA,NA
"experimental",20,10,"ld","lower","hindsight","w","w","g","g",1,0.603308911711792,NA,NA,NA
"experimental",20,11,"ld","lower","baladroit","nw","nw","h","h",1,0.713355728832539,NA,NA,NA
"experimental",20,12,"ld","lower","elbalm","nw","nw","h","h",1,0.795359357085545,NA,NA,NA
"experimental",20,13,"ld","lower","submit","w","w","g","g",1,0.930089758636314,NA,NA,NA
"experimental",20,14,"ld","lower","humanize","w","w","g","g",1,0.666422386639169,NA,NA,NA
"experimental",20,15,"ld","lower","confined","w","w","g","g",1,0.670545071072411,NA,NA,NA
"experimental",20,16,"ld","lower","dumult","nw","nw","h","h",1,0.65770401689224,NA,NA,NA
"experimental",20,17,"ld","lower","cripet","nw","nw","h","h",1,0.637787871150067,NA,NA,NA
"experimental",20,18,"ld","lower","selongs","nw","nw","h","h",1,0.70534882247739,NA,NA,NA
"experimental",20,19,"ld","lower","butterfly","target","target","q","q",1,1.60361710183497,1,NA,NA
"experimental",20,20,"ld","lower","rapport","aftertar1","w","g","g",1,0.866437781063723,NA,NA,NA
"experimental",20,21,"ld","lower","monopoly","aftertar2","w","g","g",1,0.758482793113217,NA,NA,NA
"experimental",20,22,"ld","lower","terming","aftertar3","w","g","h",0,0.830489711559494,NA,NA,NA
"experimental",20,23,"ld","lower","maroon","w","w","g","g",1,0.851141770617687,NA,NA,NA
"experimental",20,24,"ld","lower","yash","w","nw","h","h",1,0.910858513409039,NA,NA,NA
"experimental",20,25,"ld","lower","deeper","nw","w","g","g",1,0.697009879746474,NA,NA,NA
"experimental",20,26,"ld","lower","uncorked","w","w","g","g",1,1.29964021156775,NA,NA,NA
"experimental",20,27,"ld","lower","jiggling","w","w","g","h",0,1.47841976657219,NA,NA,NA
"experimental",20,28,"ld","lower","tuckel","w","nw","h","h",1,1.017661033271,NA,NA,NA
"experimental",20,29,"ld","lower","favoting","nw","nw","h","h",1,0.895122705711401,NA,NA,NA
"experimental",20,30,"ld","lower","record","nw","w","g","g",1,1.95296887627046,NA,NA,NA
"experimental",21,1,"hd","upper","fidelity","w","w","g","g",1,0.817503466911148,NA,NA,NA
"experimental",21,2,"hd","upper","huntry","nw","nw","h","h",1,0.758960623657913,NA,NA,NA
"experimental",21,3,"hd","upper","plapping","nw","nw","h","h",1,0.806990591445356,NA,NA,NA
"experimental",21,4,"hd","upper","urgent","w","w","g","g",1,1.1330518249888,NA,NA,NA
"experimental",21,5,"hd","upper","whirling","w","w","g","g",1,1.08537985278235,NA,NA,NA
"experimental",21,6,"hd","upper","walsams","nw","nw","h","h",1,0.687000794016058,NA,NA,NA
"experimental",21,7,"hd","upper","epic","w","w","g","g",1,0.809556327105383,NA,NA,NA
"experimental",21,8,"hd","upper","abstain","w","w","g","g",1,1.02452845113294,NA,NA,NA
"experimental",21,9,"hd","upper","egpended","nw","nw","h","h",1,0.894316159159644,NA,NA,NA
"experimental",21,10,"hd","upper","remade","w","w","g","g",1,1.69695615021919,NA,NA,NA
"experimental",21,11,"hd","upper","brudent","nw","nw","h","h",1,0.69075340879499,NA,NA,NA
"experimental",21,12,"hd","upper","column","w","w","g","g",1,0.669415845535696,NA,NA,NA
"experimental",21,13,"hd","upper","despise","w","w","g","g",1,0.824736426657182,NA,NA,NA
"experimental",21,14,"hd","upper","posing","w","w","g","g",1,0.702010347609757,NA,NA,NA
"experimental",21,15,"hd","upper","haurded","nw","nw","h","h",1,0.640113936926355,NA,NA,NA
"experimental",21,16,"hd","upper","glating","nw","nw","h","h",1,0.684821126109455,NA,NA,NA
"experimental",21,17,"hd","upper","clooped","nw","nw","h","h",1,0.687494320824044,NA,NA,NA
"experimental",21,18,"hd","upper","otoist","nw","nw","h","h",1,0.914230191905517,NA,NA,NA
"experimental",21,19,"hd","upper","hutting","nw","nw","h","h",1,0.620275366964051,NA,NA,NA
"experimental",21,20,"hd","upper","fashing","nw","nw","h","h",1,1.02472797482915,NA,NA,NA
"experimental",21,21,"hd","upper","labitable","nw","nw","h","h",1,0.606079604360275,NA,NA,NA
"experimental",21,22,"hd","upper","manage","w","w","g","g",1,0.764043195056729,NA,NA,NA
"experimental",21,23,"hd","upper","oppose","w","w","g","g",1,0.692070989534841,NA,NA,NA
"experimental",21,24,"hd","upper","hasks","nw","nw","h","h",1,0.766814491420519,NA,NA,NA
"experimental",21,25,"hd","upper","lofty","w","w","g","g",1,0.862805303069763,NA,NA,NA
"experimental",21,26,"hd","upper","setwixt","nw","nw","h","h",1,0.954934833484003,NA,NA,NA
"experimental",21,27,"hd","upper","servant","w","w","g","g",1,1.01094484287023,NA,NA,NA
"experimental",21,28,"hd","upper","acting","w","w","g","g",1,0.792979561796528,NA,NA,NA
"experimental",21,29,"hd","upper","arpired","nw","nw","h","h",1,0.66367101247306,NA,NA,NA
"experimental",21,30,"hd","upper","chicken","target","target","q","q",1,0.641550748900045,1,NA,NA
"experimental",22,1,"hd","upper","forecast","w","w","g","g",1,0.991561766466475,NA,NA,NA
"experimental",22,2,"hd","upper","cartles","nw","nw","h","h",1,0.782225809045485,NA,NA,NA
"experimental",22,3,"hd","upper","triangle","w","w","g","g",1,0.661654646100942,NA,NA,NA
"experimental",22,4,"hd","upper","geborn","nw","nw","h","h",1,0.665558790205978,NA,NA,NA
"experimental",22,5,"hd","upper","senalize","nw","nw","h","h",1,0.764665914190118,NA,NA,NA
"experimental",22,6,"hd","upper","thrapping","nw","nw","h","h",1,0.940735750511522,NA,NA,NA
"experimental",22,7,"hd","upper","sampling","w","w","g","g",1,0.869342495672754,NA,NA,NA
"experimental",22,8,"hd","upper","ucility","nw","nw","h","h",1,0.784691631924943,NA,NA,NA
"experimental",22,9,"hd","upper","glassware","w","w","g","g",1,0.719356833622442,NA,NA,NA
"experimental",22,10,"hd","upper","legalize","w","w","g","g",1,0.656786389066838,NA,NA,NA
"experimental",22,11,"hd","upper","outflow","w","w","g","g",1,0.668802181942738,NA,NA,NA
"experimental",22,12,"hd","upper","sliding","w","w","g","g",1,0.632147176787839,NA,NA,NA
"experimental",22,13,"hd","upper","dileting","nw","nw","h","h",1,0.748642744103563,NA,NA,NA
"experimental",22,14,"hd","upper","ahead","w","w","g","g",1,0.709183842656785,NA,NA,NA
"experimental",22,15,"hd","upper","traze","nw","nw","h","h",1,0.735229379934026,NA,NA,NA
"experimental",22,16,"hd","upper","glates","nw","nw","h","h",1,0.711956346422085,NA,NA,NA
"experimental",22,17,"hd","upper","agony","w","w","g","g",1,0.673977723519783,NA,NA,NA
"experimental",22,18,"hd","upper","pocket","w","w","g","g",1,0.645426820847206,NA,NA,NA
"experimental",22,19,"hd","upper","yearnungs","nw","nw","h","h",1,0.610089094567229,NA,NA,NA
"experimental",22,20,"hd","upper","preserve","w","w","g","g",1,0.672169936369755,NA,NA,NA
"experimental",22,21,"hd","upper","causality","w","w","g","g",1,0.593391890608473,NA,NA,NA
"experimental",22,22,"hd","upper","aefated","nw","nw","h","h",1,0.856230077217333,NA,NA,NA
"experimental",22,23,"hd","upper","pammed","nw","nw","h","h",1,0.692626697695232,NA,NA,NA
"experimental",22,24,"hd","upper","nimono","nw","nw","h","h",1,0.720080974773737,NA,NA,NA
"experimental",22,25,"hd","upper","reborn","w","w","g","g",1,0.889196158197592,NA,NA,NA
"experimental",22,26,"hd","upper","statute","w","w","g","g",1,1.04397733112273,NA,NA,NA
"experimental",22,27,"hd","upper","lonnote","nw","nw","h","h",1,0.824633797223214,NA,NA,NA
"experimental",22,28,"hd","upper","spider","target","target","q","g",0,1.54202042944962,NA,NA,NA
"experimental",22,29,"hd","upper","metrol","aftertar1","nw","h","h",1,0.821847408311442,NA,NA,NA
"experimental",22,30,"hd","upper","tiery","aftertar2","nw","h","h",1,0.779065728260321,NA,NA,NA
"experimental",23,1,"ld","lower","marinate","w","w","g","g",1,1.41124971263343,NA,NA,NA
"experimental",23,2,"ld","lower","reason","w","w","g","g",1,0.633299946712214,NA,NA,NA
"experimental",23,3,"ld","lower","apticle","nw","nw","h","h",1,0.702595637179911,NA,NA,NA
"experimental",23,4,"ld","lower","iolize","nw","nw","h","h",1,0.704003773294971,NA,NA,NA
"experimental",23,5,"ld","lower","ounwit","nw","nw","h","h",1,1.25767685026221,NA,NA,NA
"experimental",23,6,"ld","lower","fracture","w","w","g","g",1,0.621714895605692,NA,NA,NA
"experimental",23,7,"ld","lower","sonkers","nw","nw","h","h",1,0.651113396612345,NA,NA,NA
"experimental",23,8,"ld","lower","expounded","w","w","g","g",1,0.967369294041418,NA,NA,NA
"experimental",23,9,"ld","lower","outlaved","nw","nw","h","h",1,0.846462774337851,NA,NA,NA
"experimental",23,10,"ld","lower","seldom","w","w","g","g",1,1.85004846537777,NA,NA,NA
"experimental",23,11,"ld","lower","laser","w","w","g","g",1,0.733882821499719,NA,NA,NA
"experimental",23,12,"ld","lower","priant","nw","nw","h","h",1,1.39928402708028,NA,NA,NA
"experimental",23,13,"ld","lower","trooper","w","w","g","g",1,0.750249196469667,NA,NA,NA
"experimental",23,14,"ld","lower","havel","nw","nw","h","h",1,1.04688114018063,NA,NA,NA
"experimental",23,15,"ld","lower","zears","nw","nw","h","h",1,0.803582690787152,NA,NA,NA
"experimental",23,16,"ld","lower","ifkling","nw","nw","h","h",1,0.721666901255958,NA,NA,NA
"experimental",23,17,"ld","lower","typical","w","w","g","g",1,0.77906210605579,NA,NA,NA
"experimental",23,18,"ld","lower","medium","w","w","g","g",1,0.786243147376808,NA,NA,NA
"experimental",23,19,"ld","lower","bamboo","w","w","g","g",1,0.896916607714957,NA,NA,NA
"experimental",23,20,"ld","lower","matter","w","w","g","g",1,0.850596627264167,NA,NA,NA
"experimental",23,21,"ld","lower","allained","nw","nw","h","h",1,1.01450910247513,NA,NA,NA
"experimental",23,22,"ld","lower","strenuous","w","w","g","g",1,1.54067628581834,NA,NA,NA
"experimental",23,23,"ld","lower","perform","w","w","g","g",1,0.845301854424179,NA,NA,NA
"experimental",23,24,"ld","lower","frigs","nw","nw","h","h",1,0.738016372561106,NA,NA,NA
"experimental",23,25,"ld","lower","pillage","w","w","g","g",1,0.586728222333477,NA,NA,NA
"experimental",23,26,"ld","lower","hodels","nw","nw","h","h",1,0.657426313729957,NA,NA,NA
"experimental",23,27,"ld","lower","dusmy","nw","nw","h","h",1,0.669468367646914,NA,NA,NA
"experimental",23,28,"ld","lower","beartiset","nw","nw","h","h",1,0.736837643416948,NA,NA,NA
"experimental",23,29,"ld","lower","repayment","w","w","g","g",1,0.704630416497821,NA,NA,NA
"experimental",23,30,"ld","lower","flooted","nw","nw","h","g",0,0.674561805702979,NA,NA,NA
"experimental",24,1,"ld","lower","jungle","w","w","g","g",1,0.830067119793966,NA,NA,NA
"experimental",24,2,"ld","lower","gepealed","nw","nw","h","h",1,0.668176444276469,NA,NA,NA
"experimental",24,3,"ld","lower","remover","w","w","g","g",1,0.74261175605352,NA,NA,NA
"experimental",24,4,"ld","lower","acidic","w","w","g","g",1,0.783244557023863,NA,NA,NA
"experimental",24,5,"ld","lower","derived","w","w","g","g",1,0.630622224256513,NA,NA,NA
"experimental",24,6,"ld","lower","rearrange","w","w","g","g",1,0.651976993045537,NA,NA,NA
"experimental",24,7,"ld","lower","rasuals","nw","nw","h","h",1,0.751924470925587,NA,NA,NA
"experimental",24,8,"ld","lower","bluads","nw","nw","h","h",1,0.71203694070573,NA,NA,NA
"experimental",24,9,"ld","lower","splum","nw","nw","h","h",1,0.633996619420941,NA,NA,NA
"experimental",24,10,"ld","lower","gettle","nw","nw","h","h",1,0.654771833811537,NA,NA,NA
"experimental",24,11,"ld","lower","huffle","nw","nw","h","h",1,0.858767137004179,NA,NA,NA
"experimental",24,12,"ld","lower","theles","nw","nw","h","h",1,0.637883256160421,NA,NA,NA
"experimental",24,13,"ld","lower","midday","w","w","g","g",1,0.898509174920036,NA,NA,NA
"experimental",24,14,"ld","lower","telecast","w","w","g","g",1,0.797221477463609,NA,NA,NA
"experimental",24,15,"ld","lower","summon","w","w","g","g",1,0.579941700605559,NA,NA,NA
"experimental",24,16,"ld","lower","sonnet","w","w","g","g",1,0.851256172245485,NA,NA,NA
"experimental",24,17,"ld","lower","turntable","w","w","g","g",1,0.8312962580967,NA,NA,NA
"experimental",24,18,"ld","lower","daining","nw","nw","h","h",1,0.860714983136859,NA,NA,NA
"experimental",24,19,"ld","lower","satisfies","w","w","g","g",1,0.616717748096562,NA,NA,NA
"experimental",24,20,"ld","lower","ebciting","nw","nw","h","h",1,0.766765893378761,NA,NA,NA
"experimental",24,21,"ld","lower","unlined","w","w","g","g",1,0.989876229068614,NA,NA,NA
"experimental",24,22,"ld","lower","overwork","w","w","g","g",1,0.724527847429272,NA,NA,NA
"experimental",24,23,"ld","lower","parlayid","nw","nw","h","h",1,1.24591732912813,NA,NA,NA
"experimental",24,24,"ld","lower","thorifies","nw","nw","h","h",1,0.94532388956577,NA,NA,NA
"experimental",24,25,"ld","lower","ifling","nw","nw","h","h",1,1.61824571914622,NA,NA,NA
"experimental",24,26,"ld","lower","single","w","w","g","g",1,0.800596476328792,NA,NA,NA
"experimental",24,27,"ld","lower","snife","nw","nw","h","h",1,0.941856524223112,NA,NA,NA
"experimental",24,28,"ld","lower","recount","w","w","g","g",1,0.783436232566601,NA,NA,NA
"experimental",24,29,"ld","lower","elormity","nw","nw","h","h",1,0.693798182401224,NA,NA,NA
"experimental",24,30,"ld","lower","vopings","nw","nw","h","h",1,0.89649794001889,NA,NA,NA
"experimental",25,1,"ld","lower","calming","w","w","g","g",1,1.0359133748716,NA,NA,NA
"experimental",25,2,"ld","lower","expensive","w","w","g","g",1,0.623864076536847,NA,NA,NA
"experimental",25,3,"ld","lower","equitable","w","w","g","g",1,0.725103175936965,NA,NA,NA
"experimental",25,4,"ld","lower","rawhide","w","w","g","g",1,0.942399856474367,NA,NA,NA
"experimental",25,5,"ld","lower","etcess","nw","nw","h","h",1,0.783109327661805,NA,NA,NA
"experimental",25,6,"ld","lower","grolific","nw","nw","h","h",1,0.726462110280409,NA,NA,NA
"experimental",25,7,"ld","lower","spaceship","w","w","g","g",1,0.639836233778624,NA,NA,NA
"experimental",25,8,"ld","lower","correct","w","w","g","g",1,0.884493919351371,NA,NA,NA
"experimental",25,9,"ld","lower","implode","w","w","g","g",1,0.639212910929928,NA,NA,NA
"experimental",25,10,"ld","lower","gymnasium","w","w","g","g",1,0.627880811167415,NA,NA,NA
"experimental",25,11,"ld","lower","lightels","nw","nw","h","h",1,0.721256383549189,NA,NA,NA
"experimental",25,12,"ld","lower","artifact","w","w","g","g",1,0.705663049637224,NA,NA,NA
"experimental",25,13,"ld","lower","sazer","nw","nw","h","h",1,0.691687034734059,NA,NA,NA
"experimental",25,14,"ld","lower","thaken","nw","nw","h","h",1,0.83724755741423,NA,NA,NA
"experimental",25,15,"ld","lower","pressing","w","w","g","g",1,0.729929173772689,NA,NA,NA
"experimental",25,16,"ld","lower","pived","nw","nw","h","h",1,0.684091249786434,NA,NA,NA
"experimental",25,17,"ld","lower","bengths","nw","nw","h","h",1,1.14325439736422,NA,NA,NA
"experimental",25,18,"ld","lower","erlighten","nw","nw","h","h",1,0.759912964364048,NA,NA,NA
"experimental",25,19,"ld","lower","distrust","w","w","g","g",1,1.05502478516428,NA,NA,NA
"experimental",25,20,"ld","lower","hanling","nw","nw","h","h",1,0.722861326663406,NA,NA,NA
"experimental",25,21,"ld","lower","inforl","nw","nw","h","h",1,0.612305286471383,NA,NA,NA
"experimental",25,22,"ld","lower","golemic","nw","nw","h","h",1,0.90633708347741,NA,NA,NA
"experimental",25,23,"ld","lower","dingly","nw","nw","h","h",1,0.668312881040038,NA,NA,NA
"experimental",25,24,"ld","lower","exit","w","w","g","g",1,1.77576407924062,NA,NA,NA
"experimental",25,25,"ld","lower","gelented","nw","nw","h","h",1,0.655081835036981,NA,NA,NA
"experimental",25,26,"ld","lower","index","w","w","g","g",1,0.715083827264607,NA,NA,NA
"experimental",25,27,"ld","lower","located","w","w","g","g",1,0.65319073694991,NA,NA,NA
"experimental",25,28,"ld","lower","disease","w","w","g","g",1,0.77628688562254,NA,NA,NA
"experimental",25,29,"ld","lower","olerates","nw","nw","h","h",1,0.703620422209497,NA,NA,NA
"experimental",25,30,"ld","lower","nogwhell","nw","nw","h","h",1,0.633550483253202,NA,NA,NA
"experimental",26,1,"ld","lower","hegacy","nw","nw","h","h",1,0.687763572132098,NA,NA,NA
"experimental",26,2,"ld","lower","mandlers","nw","nw","h","h",1,0.841616854319,NA,NA,NA
"experimental",26,3,"ld","lower","pretzel","w","w","g","g",1,1.1272448105592,NA,NA,NA
"experimental",26,4,"ld","lower","fallacy","w","w","g","g",1,1.95847313388367,NA,NA,NA
"experimental",26,5,"ld","lower","felevance","nw","nw","h","h",1,0.854960188997211,NA,NA,NA
"experimental",26,6,"ld","lower","arrive","w","w","g","g",1,0.811588993441546,NA,NA,NA
"experimental",26,7,"ld","lower","mandate","w","w","g","g",1,1.0896567831951,NA,NA,NA
"experimental",26,8,"ld","lower","currowing","nw","nw","h","h",1,0.724433066148777,NA,NA,NA
"experimental",26,9,"ld","lower","checkout","w","w","g","g",1,0.669684493157547,NA,NA,NA
"experimental",26,10,"ld","lower","presence","w","w","g","g",1,1.39222855588014,NA,NA,NA
"experimental",26,11,"ld","lower","oldest","w","w","g","g",1,0.806710171629675,NA,NA,NA
"experimental",26,12,"ld","lower","tragedy","w","w","g","g",1,0.708874445117544,NA,NA,NA
"experimental",26,13,"ld","lower","aqueduct","w","w","g","h",0,1.50294065316848,NA,NA,NA
"experimental",26,14,"ld","lower","trake","nw","nw","h","h",1,0.896918720653048,NA,NA,NA
"experimental",26,15,"ld","lower","germeated","nw","nw","h","h",1,1.17959215684095,NA,NA,NA
"experimental",26,16,"ld","lower","buaint","nw","nw","h","h",1,1.08293515947298,NA,NA,NA
"experimental",26,17,"ld","lower","asthmatic","w","w","g","g",1,1.6054221723316,NA,NA,NA
"experimental",26,18,"ld","lower","tenpince","nw","nw","h","h",1,0.7553112419846,NA,NA,NA
"experimental",26,19,"ld","lower","butled","nw","nw","h","h",1,1.7953910514625,NA,NA,NA
"experimental",26,20,"ld","lower","atch","nw","nw","h","h",1,0.698099260916933,NA,NA,NA
"experimental",26,21,"ld","lower","endgume","nw","nw","h","h",1,1.05279108588002,NA,NA,NA
"experimental",26,22,"ld","lower","inversion","w","w","g","g",1,0.72081085111131,NA,NA,NA
"experimental",26,23,"ld","lower","acoustic","w","w","g","g",1,0.8022143990529,NA,NA,NA
"experimental",26,24,"ld","lower","spiud","nw","nw","h","h",1,0.792264778036042,NA,NA,NA
"experimental",26,25,"ld","lower","armada","w","w","g","g",1,0.693812671263004,NA,NA,NA
"experimental",26,26,"ld","lower","grefab","nw","nw","h","h",1,0.671552348707337,NA,NA,NA
"experimental",26,27,"ld","lower","adok","nw","nw","h","h",1,1.0992668215622,NA,NA,NA
"experimental",26,28,"ld","lower","urgency","w","w","g","g",1,0.686842623967095,NA,NA,NA
"experimental",26,29,"ld","lower","swatches","w","w","g","g",1,1.3455113391974,NA,NA,NA
"experimental",26,30,"ld","lower","greft","nw","nw","h","h",1,0.754099309211597,NA,NA,NA
"experimental",27,1,"hd","upper","alarm","w","w","g","g",1,1.27393667175784,NA,NA,NA
"experimental",27,2,"hd","upper","standard","w","w","g","g",1,0.677330083548441,NA,NA,NA
"experimental",27,3,"hd","upper","browting","nw","nw","h","h",1,0.720649058828712,NA,NA,NA
"experimental",27,4,"hd","upper","admire","w","w","g","g",1,0.874005493838922,NA,NA,NA
"experimental",27,5,"hd","upper","seasoning","w","w","g","g",1,0.653446404961869,NA,NA,NA
"experimental",27,6,"hd","upper","gaioty","nw","nw","h","h",1,0.969456897306372,NA,NA,NA
"experimental",27,7,"hd","upper","tasher","nw","nw","h","g",0,0.936915521044284,NA,NA,NA
"experimental",27,8,"hd","upper","bellicove","nw","nw","h","h",1,0.936755238028127,NA,NA,NA
"experimental",27,9,"hd","upper","scabry","nw","nw","h","h",1,0.617219123028917,NA,NA,NA
"experimental",27,10,"hd","upper","castaway","w","w","g","g",1,0.654598269335111,NA,NA,NA
"experimental",27,11,"hd","upper","harmful","w","w","g","g",1,0.698537548945751,NA,NA,NA
"experimental",27,12,"hd","upper","ghists","nw","nw","h","h",1,0.565266900041024,NA,NA,NA
"experimental",27,13,"hd","upper","carony","nw","nw","h","h",1,0.717324167257175,NA,NA,NA
"experimental",27,14,"hd","upper","saturate","w","w","g","g",1,0.614642520740745,NA,NA,NA
"experimental",27,15,"hd","upper","rebool","nw","nw","h","h",1,0.859503352199681,NA,NA,NA
"experimental",27,16,"hd","upper","student","w","w","g","g",1,1.09470162319485,NA,NA,NA
"experimental",27,17,"hd","upper","integral","w","w","g","g",1,0.553866280039074,NA,NA,NA
"experimental",27,18,"hd","upper","erony","nw","nw","h","h",1,0.650388953610673,NA,NA,NA
"experimental",27,19,"hd","upper","suburb","w","w","g","g",1,0.694522323567071,NA,NA,NA
"experimental",27,20,"hd","upper","blocking","w","w","g","g",1,0.70484684384428,NA,NA,NA
"experimental",27,21,"hd","upper","worps","nw","nw","h","h",1,0.739261207141681,NA,NA,NA
"experimental",27,22,"hd","upper","mabit","nw","nw","h","h",1,0.923928672709735,NA,NA,NA
"experimental",27,23,"hd","upper","jaguar","target","target","q","q",1,0.829331810135045,1,NA,NA
"experimental",27,24,"hd","upper","runabouk","aftertar1","nw","h","h",1,1.06686731538502,NA,NA,NA
"experimental",27,25,"hd","upper","acorn","aftertar2","w","g","g",1,0.806744280824205,NA,NA,NA
"experimental",27,26,"hd","upper","resonant","aftertar3","w","g","g",1,0.915792272149702,NA,NA,NA
"experimental",27,27,"hd","upper","fabstand","w","nw","h","h",1,0.65380409869249,NA,NA,NA
"experimental",27,28,"hd","upper","intrude","nw","w","g","g",1,0.713852274144301,NA,NA,NA
"experimental",27,29,"hd","upper","dentures","w","w","g","g",1,0.643893718326581,NA,NA,NA
"experimental",27,30,"hd","upper","mitro","w","nw","h","h",1,0.77655040177342,NA,NA,NA
"experimental",28,1,"hd","upper","splinging","nw","nw","h","h",1,0.927622124640038,NA,NA,NA
"experimental",28,2,"hd","upper","lenie","nw","nw","h","h",1,0.729037807017448,NA,NA,NA
"experimental",28,3,"hd","upper","vergas","nw","nw","h","h",1,1.06645226992259,NA,NA,NA
"experimental",28,4,"hd","upper","omners","nw","nw","h","h",1,0.7664878883661,NA,NA,NA
"experimental",28,5,"hd","upper","century","w","w","g","g",1,0.654545747223892,NA,NA,NA
"experimental",28,6,"hd","upper","duplex","w","w","g","g",1,1.26539880904602,NA,NA,NA
"experimental",28,7,"hd","upper","addma","nw","nw","h","h",1,0.845702109189006,NA,NA,NA
"experimental",28,8,"hd","upper","rainfall","w","w","g","g",1,0.746194428589661,NA,NA,NA
"experimental",28,9,"hd","upper","earnest","w","w","g","g",1,0.706876189826289,NA,NA,NA
"experimental",28,10,"hd","upper","remain","w","w","g","g",1,0.532946478910162,NA,NA,NA
"experimental",28,11,"hd","upper","stuggard","nw","nw","h","h",1,0.934494673972949,NA,NA,NA
"experimental",28,12,"hd","upper","emotion","w","w","g","g",1,0.887077162391506,NA,NA,NA
"experimental",28,13,"hd","upper","unbridled","w","w","g","h",0,0.753745539535885,NA,NA,NA
"experimental",28,14,"hd","upper","slooch","nw","nw","h","h",1,0.737657169578597,NA,NA,NA
"experimental",28,15,"hd","upper","elvisages","nw","nw","h","h",1,0.762461494494346,NA,NA,NA
"experimental",28,16,"hd","upper","amms","nw","nw","h","h",1,0.8254826029588,NA,NA,NA
"experimental",28,17,"hd","upper","nature","w","w","g","g",1,1.20678382333426,NA,NA,NA
"experimental",28,18,"hd","upper","omission","w","w","g","g",1,0.860826969961636,NA,NA,NA
"experimental",28,19,"hd","upper","rootsie","nw","nw","h","h",1,0.752853870944818,NA,NA,NA
"experimental",28,20,"hd","upper","splatter","w","w","g","g",1,0.656850381550612,NA,NA,NA
"experimental",28,21,"hd","upper","eugenifs","nw","nw","h","h",1,0.636932424706174,NA,NA,NA
"experimental",28,22,"hd","upper","protest","w","w","g","g",1,1.10548616478627,NA,NA,NA
"experimental",28,23,"hd","upper","shivering","w","w","g","g",1,0.747502350059221,NA,NA,NA
"experimental",28,24,"hd","upper","ulcer","w","w","g","g",1,0.699322060347185,NA,NA,NA
"experimental",28,25,"hd","upper","sheerio","nw","nw","h","h",1,0.61390087219479,NA,NA,NA
"experimental",28,26,"hd","upper","olgies","nw","nw","h","h",1,1.12380280073558,NA,NA,NA
"experimental",28,27,"hd","upper","cookbook","w","w","g","g",1,0.741227466205601,NA,NA,NA
"experimental",28,28,"hd","upper","athcan","nw","nw","h","h",1,1.26195015847043,NA,NA,NA
"experimental",28,29,"hd","upper","encrusted","w","w","g","g",1,0.872802314755972,NA,NA,NA
"experimental",28,30,"hd","upper","gonesty","nw","nw","h","h",1,0.748364135390148,NA,NA,NA
"experimental",29,1,"hd","upper","slears","nw","nw","h","h",1,0.989135486088344,NA,NA,NA
"experimental",29,2,"hd","upper","frowsed","nw","nw","h","h",1,0.667795206143637,NA,NA,NA
"experimental",29,3,"hd","upper","prame","nw","nw","h","h",1,0.647124130438897,NA,NA,NA
"experimental",29,4,"hd","upper","fomrade","nw","nw","h","h",1,0.59590933007712,NA,NA,NA
"experimental",29,5,"hd","upper","orange","w","w","g","g",1,0.634522142456262,NA,NA,NA
"experimental",29,6,"hd","upper","actively","w","w","g","g",1,0.695252199890092,NA,NA,NA
"experimental",29,7,"hd","upper","latirizes","nw","nw","h","h",1,0.785936466490966,NA,NA,NA
"experimental",29,8,"hd","upper","hatred","w","w","g","g",1,0.736744069523411,NA,NA,NA
"experimental",29,9,"hd","upper","chappef","nw","nw","h","h",1,0.688286982200225,NA,NA,NA
"experimental",29,10,"hd","upper","superstar","w","w","g","g",1,0.64304944036121,NA,NA,NA
"experimental",29,11,"hd","upper","resume","w","w","g","g",1,0.639739943217137,NA,NA,NA
"experimental",29,12,"hd","upper","persona","w","w","g","g",1,0.620501755416626,NA,NA,NA
"experimental",29,13,"hd","upper","kickoff","w","w","g","g",1,0.60983463395678,NA,NA,NA
"experimental",29,14,"hd","upper","capobly","nw","nw","h","h",1,0.671820694478811,NA,NA,NA
"experimental",29,15,"hd","upper","pimorous","nw","nw","h","h",1,0.947246983909281,NA,NA,NA
"experimental",29,16,"hd","upper","geissue","nw","nw","h","h",1,1.29104077120428,NA,NA,NA
"experimental",29,17,"hd","upper","throttle","w","w","g","g",1,0.878710449338541,NA,NA,NA
"experimental",29,18,"hd","upper","gazes","w","w","g","g",1,0.777074717392679,NA,NA,NA
"experimental",29,19,"hd","upper","suspect","w","w","g","g",1,0.920436253698426,NA,NA,NA
"experimental",29,20,"hd","upper","threaded","w","w","g","g",1,0.63262289436534,NA,NA,NA
"experimental",29,21,"hd","upper","lecked","nw","nw","h","h",1,0.766184226013138,NA,NA,NA
"experimental",29,22,"hd","upper","kiner","nw","nw","h","h",1,0.798849361279281,NA,NA,NA
"experimental",29,23,"hd","upper","blueberry","w","w","g","g",1,1.03781171741139,NA,NA,NA
"experimental",29,24,"hd","upper","accessory","w","w","g","g",1,0.618430452115717,NA,NA,NA
"experimental",29,25,"hd","upper","vorm","nw","nw","h","h",1,0.735669780915487,NA,NA,NA
"experimental",29,26,"hd","upper","caterpillar","target","target","q","q",1,0.735447920233128,1,NA,NA
"experimental",29,27,"hd","upper","visible","aftertar1","w","g","g",1,0.672203441848978,NA,NA,NA
"experimental",29,28,"hd","upper","egcused","aftertar2","nw","h","h",1,0.72353596422181,NA,NA,NA
"experimental",29,29,"hd","upper","assent","aftertar3","w","g","g",1,0.692917682303232,NA,NA,NA
"experimental",29,30,"hd","upper","veclors","w","nw","h","h",1,0.975583874052972,NA,NA,NA
"experimental",30,1,"ld","lower","season","w","w","g","g",1,1.00675514746399,NA,NA,NA
"experimental",30,2,"ld","lower","organize","w","w","g","g",1,0.580823408119613,NA,NA,NA
"experimental",30,3,"ld","lower","outset","w","w","g","h",0,1.03620828356361,NA,NA,NA
"experimental",30,4,"ld","lower","undue","w","w","g","h",0,1.42491270777828,NA,NA,NA
"experimental",30,5,"ld","lower","snocks","nw","nw","h","h",1,0.638289246096974,NA,NA,NA
"experimental",30,6,"ld","lower","pypecast","nw","nw","h","h",1,0.738940942959744,NA,NA,NA
"experimental",30,7,"ld","lower","mustled","nw","nw","h","h",1,1.01078908762429,NA,NA,NA
"experimental",30,8,"ld","lower","loached","nw","nw","h","h",1,0.784781281749019,NA,NA,NA
"experimental",30,9,"ld","lower","emission","w","w","g","g",1,0.78352920274483,NA,NA,NA
"experimental",30,10,"ld","lower","footstep","w","w","g","g",1,0.933621720148949,NA,NA,NA
"experimental",30,11,"ld","lower","aligning","w","w","g","h",0,2.24734780221479,NA,NA,NA
"experimental",30,12,"ld","lower","grested","nw","nw","h","g",0,1.7088297711307,NA,NA,NA
"experimental",30,13,"ld","lower","frose","nw","nw","h","h",1,0.838867593105533,NA,NA,NA
"experimental",30,14,"ld","lower","derisury","nw","nw","h","h",1,0.787523902239627,NA,NA,NA
"experimental",30,15,"ld","lower","refebs","nw","nw","h","h",1,0.658283571290667,NA,NA,NA
"experimental",30,16,"ld","lower","butler","w","w","g","g",1,0.661283067194745,NA,NA,NA
"experimental",30,17,"ld","lower","personify","w","w","g","g",1,0.633338281826582,NA,NA,NA
"experimental",30,18,"ld","lower","nelvet","nw","nw","h","h",1,0.702688607387245,NA,NA,NA
"experimental",30,19,"ld","lower","contusiok","nw","nw","h","h",1,0.944695435246103,NA,NA,NA
"experimental",30,20,"ld","lower","resent","w","w","g","g",1,0.889398700368474,NA,NA,NA
"experimental",30,21,"ld","lower","neally","nw","nw","h","h",1,0.98016175016528,NA,NA,NA
"experimental",30,22,"ld","lower","quickel","nw","nw","h","h",1,0.707487136765849,NA,NA,NA
"experimental",30,23,"ld","lower","lawsuit","w","w","g","g",1,0.852605447347742,NA,NA,NA
"experimental",30,24,"ld","lower","glattery","nw","nw","h","h",1,1.21652154477488,NA,NA,NA
"experimental",30,25,"ld","lower","dariner","nw","nw","h","h",1,0.710554549194057,NA,NA,NA
"experimental",30,26,"ld","lower","itself","w","w","g","g",1,0.776539836966549,NA,NA,NA
"experimental",30,27,"ld","lower","destroy","w","w","g","g",1,0.807960439531598,NA,NA,NA
"experimental",30,28,"ld","lower","lentils","w","w","g","g",1,1.0540479945048,NA,NA,NA
"experimental",30,29,"ld","lower","squirrel","target","target","q","q",1,1.01010147047054,1,NA,NA
"experimental",30,30,"ld","lower","upstairs","aftertar1","w","g","g",1,0.792118983881664,NA,NA,NA
"experimental",31,1,"hd","upper","presently","w","w","g","g",1,1.16636654415925,NA,NA,NA
"experimental",31,2,"hd","upper","absent","w","w","g","g",1,0.806561057121144,NA,NA,NA
"experimental",31,3,"hd","upper","forfeit","w","w","g","g",1,0.636621819765423,NA,NA,NA
"experimental",31,4,"hd","upper","curtail","w","w","g","g",1,0.697300260653719,NA,NA,NA
"experimental",31,5,"hd","upper","fisco","nw","nw","h","h",1,1.21994061392616,NA,NA,NA
"experimental",31,6,"hd","upper","permeable","w","w","g","g",1,1.67160275786591,NA,NA,NA
"experimental",31,7,"hd","upper","calcify","w","w","g","g",1,0.955605546972947,NA,NA,NA
"experimental",31,8,"hd","upper","observer","w","w","g","g",1,1.48355546381208,NA,NA,NA
"experimental",31,9,"hd","upper","funtair","nw","nw","h","h",1,0.91884942165052,NA,NA,NA
"experimental",31,10,"hd","upper","whirlpool","w","w","g","g",1,0.72827472705103,NA,NA,NA
"experimental",31,11,"hd","upper","kraums","nw","nw","h","h",1,1.32160985136579,NA,NA,NA
"experimental",31,12,"hd","upper","horks","nw","nw","h","h",1,0.835016876662849,NA,NA,NA
"experimental",31,13,"hd","upper","pexts","nw","nw","h","h",1,1.42366425099317,NA,NA,NA
"experimental",31,14,"hd","upper","afternoon","w","w","g","g",1,0.812037242561928,NA,NA,NA
"experimental",31,15,"hd","upper","region","w","w","g","g",1,0.882034737194772,NA,NA,NA
"experimental",31,16,"hd","upper","oginous","nw","nw","h","g",0,0.797414964123163,NA,NA,NA
"experimental",31,17,"hd","upper","party","w","w","g","g",1,0.748098808137001,NA,NA,NA
"experimental",31,18,"hd","upper","susher","nw","nw","h","h",1,0.884825352026382,NA,NA,NA
"experimental",31,19,"hd","upper","lindo","nw","nw","h","h",1,1.05549265458831,NA,NA,NA
"experimental",31,20,"hd","upper","harder","w","w","g","g",1,0.634390233462909,NA,NA,NA
"experimental",31,21,"hd","upper","riosk","nw","nw","h","h",1,0.823360286784009,NA,NA,NA
"experimental",31,22,"hd","upper","thacked","nw","nw","h","h",1,0.844487157897674,NA,NA,NA
"experimental",31,23,"hd","upper","porcupine","target","target","q","q",1,1.08940443555184,1,NA,NA
"experimental",31,24,"hd","upper","mullet","aftertar1","w","g","g",1,0.684003712929552,NA,NA,NA
"experimental",31,25,"hd","upper","brother","aftertar2","w","g","g",1,0.886609292952926,NA,NA,NA
"experimental",31,26,"hd","upper","fraft","aftertar3","nw","h","h",1,0.857195095682982,NA,NA,NA
"experimental",31,27,"hd","upper","bother","nw","w","g","h",0,0.789242643280886,NA,NA,NA
"experimental",31,28,"hd","upper","pripend","w","nw","h","h",1,0.899977983121062,NA,NA,NA
"experimental",31,29,"hd","upper","carbled","nw","nw","h","h",1,0.782631195266731,NA,NA,NA
"experimental",31,30,"hd","upper","ofsters","nw","nw","h","h",1,0.892981976619922,NA,NA,NA
"experimental",32,1,"hd","upper","seartfelt","nw","nw","h","h",1,0.896532954764552,NA,NA,NA
"experimental",32,2,"hd","upper","plartly","nw","nw","h","h",1,0.819180552483886,NA,NA,NA
"experimental",32,3,"hd","upper","lovud","nw","nw","h","h",1,0.92856691905763,NA,NA,NA
"experimental",32,4,"hd","upper","mounting","w","w","g","g",1,0.705853517778451,NA,NA,NA
"experimental",32,5,"hd","upper","prominent","w","w","g","g",1,0.746925210463814,NA,NA,NA
"experimental",32,6,"hd","upper","noblin","nw","nw","h","h",1,0.723529323498951,NA,NA,NA
"experimental",32,7,"hd","upper","pepperoni","w","w","g","g",1,1.17291309415305,NA,NA,NA
"experimental",32,8,"hd","upper","thamp","nw","nw","h","h",1,0.81223103107186,NA,NA,NA
"experimental",32,9,"hd","upper","breiled","nw","nw","h","h",1,0.585122977368883,NA,NA,NA
"experimental",32,10,"hd","upper","handcuff","w","w","g","g",1,1.63994791873847,NA,NA,NA
"experimental",32,11,"hd","upper","static","w","w","g","g",1,1.15673145213805,NA,NA,NA
"experimental",32,12,"hd","upper","maximized","w","w","g","g",1,0.732382922622492,NA,NA,NA
"experimental",32,13,"hd","upper","ladybug","target","target","q","g",0,0.870320493733743,NA,NA,NA
"experimental",32,14,"hd","upper","overflow","aftertar1","w","g","g",1,0.817355257939198,NA,NA,NA
"experimental",32,15,"hd","upper","triplet","aftertar2","w","g","g",1,0.798752165181213,NA,NA,NA
"experimental",32,16,"hd","upper","dontrite","aftertar3","nw","h","h",1,0.829525598644977,NA,NA,NA
"experimental",32,17,"hd","upper","ergonomic","nw","w","g","g",1,1.11449310435273,NA,NA,NA
"experimental",32,18,"hd","upper","intersect","w","w","g","g",1,0.796947396534961,NA,NA,NA
"experimental",32,19,"hd","upper","nostril","w","w","g","g",1,0.875558518542675,NA,NA,NA
"experimental",32,20,"hd","upper","figure","w","w","g","g",1,0.725930550208432,NA,NA,NA
"experimental",32,21,"hd","upper","gradielts","w","nw","h","g",0,1.90328476359718,NA,NA,NA
"experimental",32,22,"hd","upper","poyride","nw","nw","h","h",1,0.8493050057441,NA,NA,NA
"experimental",32,23,"hd","upper","attract","nw","w","g","g",1,0.82204391346022,NA,NA,NA
"experimental",32,24,"hd","upper","plunging","w","w","g","g",1,0.699399032411748,NA,NA,NA
"experimental",32,25,"hd","upper","topefuls","w","nw","h","h",1,0.622047233831836,NA,NA,NA
"experimental",32,26,"hd","upper","hackal","nw","nw","h","h",1,0.707478684926173,NA,NA,NA
"experimental",32,27,"hd","upper","condensed","nw","w","g","g",1,0.893537684780313,NA,NA,NA
"experimental",32,28,"hd","upper","chrayed","w","nw","h","h",1,0.679300870397128,NA,NA,NA
"experimental",32,29,"hd","upper","atabaster","nw","nw","h","h",1,0.962531825833139,NA,NA,NA
"experimental",32,30,"hd","upper","metebing","nw","nw","h","h",1,0.706639538431773,NA,NA,NA
"experimental",33,1,"ld","lower","handle","w","w","g","g",1,0.661509757497697,NA,NA,NA
"experimental",33,2,"ld","lower","helpful","w","w","g","g",1,0.665443784877425,NA,NA,NA
"experimental",33,3,"ld","lower","gackpedal","nw","nw","h","h",1,0.645579859425197,NA,NA,NA
"experimental",33,4,"ld","lower","handbook","w","w","g","g",1,0.745257784146816,NA,NA,NA
"experimental",33,5,"ld","lower","reddar","nw","nw","h","h",1,0.777811536303489,NA,NA,NA
"experimental",33,6,"ld","lower","lavilion","nw","nw","h","h",1,0.83297666402359,NA,NA,NA
"experimental",33,7,"ld","lower","corduroy","w","w","g","g",1,2.1266338636342,NA,NA,NA
"experimental",33,8,"ld","lower","etber","nw","nw","h","h",1,0.679941700596828,NA,NA,NA
"experimental",33,9,"ld","lower","unburnid","nw","nw","h","h",1,1.47542027066811,NA,NA,NA
"experimental",33,10,"ld","lower","fission","w","w","g","g",1,0.758766231447225,NA,NA,NA
"experimental",33,11,"ld","lower","chone","nw","nw","h","h",1,0.909727174919681,NA,NA,NA
"experimental",33,12,"ld","lower","marvel","w","w","g","g",1,1.05578212995897,NA,NA,NA
"experimental",33,13,"ld","lower","trembla","nw","nw","h","h",1,0.747802993908408,NA,NA,NA
"experimental",33,14,"ld","lower","uncle","w","w","g","g",1,0.836469686735654,NA,NA,NA
"experimental",33,15,"ld","lower","impirt","nw","nw","h","h",1,0.961185267398832,NA,NA,NA
"experimental",33,16,"ld","lower","gounts","nw","nw","h","h",1,0.737249066674849,NA,NA,NA
"experimental",33,17,"ld","lower","doxing","nw","nw","h","g",0,0.889886793855112,NA,NA,NA
"experimental",33,18,"ld","lower","bookend","w","w","g","h",0,2.08364118957252,NA,NA,NA
"experimental",33,19,"ld","lower","fictional","w","w","g","g",1,0.64688778090931,NA,NA,NA
"experimental",33,20,"ld","lower","machinery","w","w","g","g",1,0.746501411311328,NA,NA,NA
"experimental",33,21,"ld","lower","vented","w","w","g","g",1,0.907020474711317,NA,NA,NA
"experimental",33,22,"ld","lower","sprea","nw","nw","h","h",1,0.717755814563134,NA,NA,NA
"experimental",33,23,"ld","lower","achieve","w","w","g","g",1,0.663595549660386,NA,NA,NA
"experimental",33,24,"ld","lower","sunhess","nw","nw","h","h",1,1.04360333741351,NA,NA,NA
"experimental",33,25,"ld","lower","sooled","nw","nw","h","h",1,0.760233832232188,NA,NA,NA
"experimental",33,26,"ld","lower","amaze","w","w","g","g",1,1.83935176250816,NA,NA,NA
"experimental",33,27,"ld","lower","defensa","nw","nw","h","h",1,1.09204140810471,NA,NA,NA
"experimental",33,28,"ld","lower","cooray","nw","nw","h","h",1,0.758705257496331,NA,NA,NA
"experimental",33,29,"ld","lower","senior","w","w","g","g",1,0.742776868690271,NA,NA,NA
"experimental",33,30,"ld","lower","casino","w","w","g","g",1,0.695452930987813,NA,NA,NA
"experimental",34,1,"ld","lower","robbery","w","w","g","g",1,0.681906752259238,NA,NA,NA
"experimental",34,2,"ld","lower","booster","w","w","g","g",1,1.38927675246669,NA,NA,NA
"experimental",34,3,"ld","lower","eggays","nw","nw","h","h",1,1.03594688036537,NA,NA,NA
"experimental",34,4,"ld","lower","gestalion","nw","nw","h","h",1,0.976610168305342,NA,NA,NA
"experimental",34,5,"ld","lower","apop","nw","nw","h","h",1,0.63987577627995,NA,NA,NA
"experimental",34,6,"ld","lower","birn","nw","nw","h","h",1,0.700501695042476,NA,NA,NA
"experimental",34,7,"ld","lower","unrealon","nw","nw","h","h",1,0.717940849383012,NA,NA,NA
"experimental",34,8,"ld","lower","caloric","w","w","g","g",1,0.894453199623968,NA,NA,NA
"experimental",34,9,"ld","lower","nearsipe","nw","nw","h","h",1,0.599980397921172,NA,NA,NA
"experimental",34,10,"ld","lower","exemplify","w","w","g","g",1,0.781504988248344,NA,NA,NA
"experimental",34,11,"ld","lower","probable","w","w","g","g",1,0.710647217536462,NA,NA,NA
"experimental",34,12,"ld","lower","graciap","nw","nw","h","h",1,0.649284178012749,NA,NA,NA
"experimental",34,13,"ld","lower","cessation","w","w","g","h",0,0.789539061210235,NA,NA,NA
"experimental",34,14,"ld","lower","digar","nw","nw","h","h",1,0.684468865700183,NA,NA,NA
"experimental",34,15,"ld","lower","other","w","w","g","g",1,1.46322457445785,NA,NA,NA
"experimental",34,16,"ld","lower","burrowing","w","w","g","g",1,0.826433132548118,NA,NA,NA
"experimental",34,17,"ld","lower","bumbo","nw","nw","h","h",1,0.703748105283012,NA,NA,NA
"experimental",34,18,"ld","lower","pamine","nw","nw","h","h",1,0.609694574974128,NA,NA,NA
"experimental",34,19,"ld","lower","soluced","nw","nw","h","h",1,0.695742104478995,NA,NA,NA
"experimental",34,20,"ld","lower","enunciate","w","w","g","g",1,1.0344306815241,NA,NA,NA
"experimental",34,21,"ld","lower","baults","nw","nw","h","h",1,0.743071173666976,NA,NA,NA
"experimental",34,22,"ld","lower","ufionize","nw","nw","h","h",1,0.799779968700022,NA,NA,NA
"experimental",34,23,"ld","lower","envelop","w","w","g","g",1,0.758584516996052,NA,NA,NA
"experimental",34,24,"ld","lower","donastic","nw","nw","h","h",1,0.750551651435671,NA,NA,NA
"experimental",34,25,"ld","lower","practice","w","w","g","g",1,0.932960665915743,NA,NA,NA
"experimental",34,26,"ld","lower","icepick","w","w","g","g",1,0.974111443632864,NA,NA,NA
"experimental",34,27,"ld","lower","ignoble","w","w","g","h",0,1.62956182079506,NA,NA,NA
"experimental",34,28,"ld","lower","giving","w","w","g","g",1,0.602887527347775,NA,NA,NA
"experimental",34,29,"ld","lower","regional","w","w","g","g",1,0.648867623283877,NA,NA,NA
"experimental",34,30,"ld","lower","huests","nw","nw","h","h",1,0.741640096865012,NA,NA,NA
"experimental",35,1,"ld","lower","apology","w","w","g","g",1,2.42985884242808,NA,NA,NA
"experimental",35,2,"ld","lower","inverted","w","w","g","g",1,0.731559170555556,NA,NA,NA
"experimental",35,3,"ld","lower","decency","w","w","g","g",1,0.604915364077897,NA,NA,NA
"experimental",35,4,"ld","lower","disuse","w","w","g","h",0,0.794949744944461,NA,NA,NA
"experimental",35,5,"ld","lower","farochial","nw","nw","h","h",1,0.649669943915796,NA,NA,NA
"experimental",35,6,"ld","lower","bentler","nw","nw","h","h",1,1.09356002176355,NA,NA,NA
"experimental",35,7,"ld","lower","peahem","nw","nw","h","h",1,1.27309148824133,NA,NA,NA
"experimental",35,8,"ld","lower","levels","w","w","g","g",1,1.0433829859976,NA,NA,NA
"experimental",35,9,"ld","lower","turning","w","w","g","g",1,0.896070216796943,NA,NA,NA
"experimental",35,10,"ld","lower","vinegar","w","w","g","g",1,0.794802441523643,NA,NA,NA
"experimental",35,11,"ld","lower","fuestion","nw","nw","h","h",1,0.689474163198611,NA,NA,NA
"experimental",35,12,"ld","lower","primal","w","w","g","g",1,0.908203731640242,NA,NA,NA
"experimental",35,13,"ld","lower","brank","nw","nw","h","h",1,0.710227040588506,NA,NA,NA
"experimental",35,14,"ld","lower","staircase","w","w","g","g",1,0.752206400007708,NA,NA,NA
"experimental",35,15,"ld","lower","scrobby","nw","nw","h","h",1,0.719614614572492,NA,NA,NA
"experimental",35,16,"ld","lower","chyme","nw","nw","h","h",1,0.704015545488801,NA,NA,NA
"experimental",35,17,"ld","lower","talent","w","w","g","g",1,0.7380184855283,NA,NA,NA
"experimental",35,18,"ld","lower","happen","w","w","g","g",1,0.746709084967733,NA,NA,NA
"experimental",35,19,"ld","lower","wimpid","nw","nw","h","h",1,0.683401519680046,NA,NA,NA
"experimental",35,20,"ld","lower","cayward","nw","nw","h","h",1,0.68674633342016,NA,NA,NA
"experimental",35,21,"ld","lower","brongs","nw","nw","h","h",1,0.849601423688,NA,NA,NA
"experimental",35,22,"ld","lower","moyeur","nw","nw","h","h",1,0.829095460605458,NA,NA,NA
"experimental",35,23,"ld","lower","befin","nw","nw","h","h",1,0.554383954935474,NA,NA,NA
"experimental",35,24,"ld","lower","tipoff","w","w","g","g",1,1.48304261853627,NA,NA,NA
"experimental",35,25,"ld","lower","wrestle","w","w","g","g",1,0.557832303675241,NA,NA,NA
"experimental",35,26,"ld","lower","binder","w","w","g","g",1,0.917815581109608,NA,NA,NA
"experimental",35,27,"ld","lower","menarthe","nw","nw","h","h",1,0.639070738994633,NA,NA,NA
"experimental",35,28,"ld","lower","trocess","nw","nw","h","h",1,0.67596058442723,NA,NA,NA
"experimental",35,29,"ld","lower","frader","nw","nw","h","h",1,0.695183679650654,NA,NA,NA
"experimental",35,30,"ld","lower","planar","w","w","g","h",0,1.65001133769692,NA,NA,NA
"experimental",36,1,"ld","lower","contund","nw","nw","h","h",1,0.950320735224523,NA,NA,NA
"experimental",36,2,"ld","lower","command","w","w","g","g",1,0.791066126708756,NA,NA,NA
"experimental",36,3,"ld","lower","cogantly","nw","nw","h","h",1,0.821772247349145,NA,NA,NA
"experimental",36,4,"ld","lower","crazy","w","w","g","g",1,0.755159108972293,NA,NA,NA
"experimental",36,5,"ld","lower","catacomb","w","w","g","g",1,0.835154822663753,NA,NA,NA
"experimental",36,6,"ld","lower","comply","w","w","g","g",1,0.662354639149271,NA,NA,NA
"experimental",36,7,"ld","lower","explosion","w","w","g","g",1,0.634397477886523,NA,NA,NA
"experimental",36,8,"ld","lower","elderly","w","w","g","g",1,0.718840064262622,NA,NA,NA
"experimental",36,9,"ld","lower","sefine","nw","nw","h","h",1,0.624266444254317,NA,NA,NA
"experimental",36,10,"ld","lower","subber","nw","nw","h","h",1,1.06165464609512,NA,NA,NA
"experimental",36,11,"ld","lower","entertain","w","w","g","g",1,0.7458128885919,NA,NA,NA
"experimental",36,12,"ld","lower","crundle","nw","nw","h","h",1,0.737304909154773,NA,NA,NA
"experimental",36,13,"ld","lower","hecture","nw","nw","h","h",1,0.722164352118853,NA,NA,NA
"experimental",36,14,"ld","lower","chonemic","nw","nw","h","h",1,0.82030072248017,NA,NA,NA
"experimental",36,15,"ld","lower","cervical","w","w","g","g",1,0.937133155792253,NA,NA,NA
"experimental",36,16,"ld","lower","supplier","w","w","g","g",1,0.769527228650986,NA,NA,NA
"experimental",36,17,"ld","lower","even","w","w","g","g",1,0.616835771943443,NA,NA,NA
"experimental",36,18,"ld","lower","moozy","nw","nw","h","h",1,0.670831527910195,NA,NA,NA
"experimental",36,19,"ld","lower","dealer","w","w","g","g",1,0.538232498060097,NA,NA,NA
"experimental",36,20,"ld","lower","ezulated","nw","nw","h","h",1,0.594966950462549,NA,NA,NA
"experimental",36,21,"ld","lower","provide","w","w","g","g",1,1.61774675901688,NA,NA,NA
"experimental",36,22,"ld","lower","scarlet","w","w","g","g",1,0.686449311775505,NA,NA,NA
"experimental",36,23,"ld","lower","miability","nw","nw","h","h",1,0.704245254295529,NA,NA,NA
"experimental",36,24,"ld","lower","nomma","nw","nw","h","h",1,1.00213501216786,NA,NA,NA
"experimental",36,25,"ld","lower","borrent","nw","nw","h","h",1,0.855477260192856,NA,NA,NA
"experimental",36,26,"ld","lower","nameplate","w","w","g","g",1,1.53952864735038,NA,NA,NA
"experimental",36,27,"ld","lower","paying","w","w","g","g",1,0.636274087126367,NA,NA,NA
"experimental",36,28,"ld","lower","misest","nw","nw","h","h",1,0.688913021716871,NA,NA,NA
"experimental",36,29,"ld","lower","maunches","nw","nw","h","h",1,0.779664903006051,NA,NA,NA
"experimental",36,30,"ld","lower","planofoad","nw","nw","h","h",1,0.89901598317374,NA,NA,NA
"experimental",37,1,"hd","upper","louches","nw","nw","h","h",1,0.757462234032573,NA,NA,NA
"experimental",37,2,"hd","upper","eaglot","nw","nw","h","h",1,1.56431667230208,NA,NA,NA
"experimental",37,3,"hd","upper","goblet","w","w","g","g",1,0.844977364322403,NA,NA,NA
"experimental",37,4,"hd","upper","courier","w","w","g","g",1,0.722279055597028,NA,NA,NA
"experimental",37,5,"hd","upper","except","w","w","g","g",1,0.771609096744214,NA,NA,NA
"experimental",37,6,"hd","upper","befriend","w","w","g","g",1,0.682833737460896,NA,NA,NA
"experimental",37,7,"hd","upper","regiment","w","w","g","g",1,0.733270667158649,NA,NA,NA
"experimental",37,8,"hd","upper","rillains","nw","nw","h","h",1,0.726553873057128,NA,NA,NA
"experimental",37,9,"hd","upper","cabinet","w","w","g","g",1,0.664014217341901,NA,NA,NA
