"procedure","block","trial","PMdemand","context","stim","role","word_type","correct_key","response","correct","reaction_time","pressedQ","pressedQ_blank","pressedQ_fix"
"LDTpractice",1,1,NA,"lower","unscrew","","w","g","g",1,0.987042787572136,NA,NA,NA
"LDTpractice",2,1,NA,"lower","raestro","","nw","h","h",1,0.95319710552576,NA,NA,NA
"LDTpractice",3,1,NA,"lower","grutch","","nw","h","g",0,0.816677635724773,NA,NA,NA
"LDTpractice",4,1,NA,"lower","crinklo","","nw","h","h",1,1.01164301129756,NA,NA,NA
"LDTpractice",5,1,NA,"lower","grocus","","nw","h","h",1,0.77253215694509,NA,NA,NA
"LDTpractice",6,1,NA,"lower","summary","","w","g","h",0,4.66494134288223,NA,NA,NA
"LDTpractice",7,1,NA,"lower","treeps","","nw","h","h",1,0.797666945043602,NA,NA,NA
"LDTpractice",8,1,NA,"lower","busted","","w","g","g",1,0.682663464802317,NA,NA,NA
"LDTpractice",9,1,NA,"lower","infinity","","w","g","g",1,0.510449824985699,NA,NA,NA
"LDTpractice",10,1,NA,"lower","hiring","","w","g","g",1,0.537331681727665,NA,NA,NA
"LDTpractice",11,1,NA,"lower","hasking","","nw","h","g",0,0.721881050922093,NA,NA,NA
"LDTpractice",12,1,NA,"lower","revival","","w","g","g",1,0.714489815596608,NA,NA,NA
"LDTpractice",13,1,NA,"lower","curlecs","","nw","h","h",1,0.893134527388611,NA,NA,NA
"LDTpractice",14,1,NA,"lower","umpire","","w","g","g",1,0.886763824048103,NA,NA,NA
"LDTpractice",1,2,NA,"upper","overshoot","","w","g","g",1,0.889994150362327,NA,NA,NA
"LDTpractice",2,2,NA,"upper","julled","","nw","h","h",1,0.842072009021649,NA,NA,NA
"LDTpractice",3,2,NA,"upper","alolition","","nw","h","h",1,0.798957928578602,NA,NA,NA
"LDTpractice",4,2,NA,"upper","trotch","","nw","h","h",1,0.74279395765916,NA,NA,NA
"LDTpractice",5,2,NA,"upper","turative","","nw","h","h",1,0.727505899616517,NA,NA,NA
"LDTpractice",6,2,NA,"upper","reputable","","w","g","g",1,0.584749744870351,NA,NA,NA
"LDTpractice",7,2,NA,"upper","lumbigo","","nw","h","h",1,0.687545779132051,NA,NA,NA
"LDTpractice",8,2,NA,"upper","tricycle","","w","g","h",0,1.00999856935232,NA,NA,NA
"LDTpractice",9,2,NA,"upper","sponsor","","w","g","g",1,0.630930250743404,NA,NA,NA
"LDTpractice",10,2,NA,"upper","slumber","","w","g","g",1,0.676249597876449,NA,NA,NA
"LDTpractice",11,2,NA,"upper","lurshing","","nw","h","h",1,0.727518275176408,NA,NA,NA
"LDTpractice",12,2,NA,"upper","grimace","","w","g","g",1,0.68075400449743,NA,NA,NA
"LDTpractice",13,2,NA,"upper","latador","","nw","h","h",1,0.899157205465599,NA,NA,NA
"LDTpractice",14,2,NA,"upper","picture","","w","g","g",1,0.49373917975754,NA,NA,NA
"experimental",1,1,"ld","upper","happen","w","w","g","g",1,0.922267832836951,NA,NA,NA
"experimental",1,2,"ld","upper","rewrite","w","w","g","g",1,0.676145763805835,NA,NA,NA
"experimental",1,3,"ld","upper","pakened","nw","nw","h","h",1,1.00023303512717,NA,NA,NA
"experimental",1,4,"ld","upper","argue","w","w","g","g",1,0.831428412828245,NA,NA,NA
"experimental",1,5,"ld","upper","ringlat","nw","nw","h","h",1,0.861431630488369,NA,NA,NA
"experimental",1,6,"ld","upper","publish","w","w","g","g",1,0.69807467488863,NA,NA,NA
"experimental",1,7,"ld","upper","erithets","nw","nw","h","h",1,0.73337705238373,NA,NA,NA
"experimental",1,8,"ld","upper","prohibit","w","w","g","g",1,0.741333640093217,NA,NA,NA
"experimental",1,9,"ld","upper","handed","w","w","g","g",1,0.695570583397057,NA,NA,NA
"experimental",1,10,"ld","upper","eaglot","nw","nw","h","h",1,0.730452493284247,NA,NA,NA
"experimental",1,11,"ld","upper","previous","w","w","g","g",1,0.685077003319748,NA,NA,NA
"experimental",1,12,"ld","upper","eyesight","w","w","g","g",1,0.720295166553115,NA,NA,NA
"experimental",1,13,"ld","upper","greakable","nw","nw","h","h",1,1.20222411386203,NA,NA,NA
"experimental",1,14,"ld","upper","loached","nw","nw","h","h",1,1.42488451184181,NA,NA,NA
"experimental",1,15,"ld","upper","mosary","nw","nw","h","g",0,1.2467490095878,NA,NA,NA
"experimental",1,16,"ld","upper","wimpid","nw","nw","h","h",1,0.979168603080325,NA,NA,NA
"experimental",1,17,"ld","upper","tritical","nw","nw","h","h",1,1.7071396309475,NA,NA,NA
"experimental",1,18,"ld","upper","preight","nw","nw","h","h",1,1.40568396176968,NA,NA,NA
"experimental",1,19,"ld","upper","bamps","nw","nw","h","h",1,1.29232190504263,NA,NA,NA
"experimental",1,20,"ld","upper","release","w","w","g","g",1,0.815623599148239,NA,NA,NA
"experimental",1,21,"ld","upper","smolvers","nw","nw","h","h",1,0.966337548961746,NA,NA,NA
"experimental",1,22,"ld","upper","trocess","nw","nw","h","h",1,1.06299711023166,NA,NA,NA
"experimental",1,23,"ld","upper","artifact","w","w","g","g",1,0.955550879094517,NA,NA,NA
"experimental",1,24,"ld","upper","itself","w","w","g","g",1,0.828198388349847,NA,NA,NA
"experimental",1,25,"ld","upper","tipoff","w","w","g","g",1,0.809168983396376,NA,NA,NA
"experimental",1,26,"ld","upper","describe","w","w","g","g",1,0.63982889118779,NA,NA,NA
"experimental",1,27,"ld","upper","gairs","nw","nw","h","h",1,0.749113347643288,NA,NA,NA
"experimental",1,28,"ld","upper","coupling","w","w","g","g",1,0.750405538550694,NA,NA,NA
"experimental",1,29,"ld","upper","golemic","nw","nw","h","h",1,0.758615372717031,NA,NA,NA
"experimental",1,30,"ld","upper","awful","w","w","g","g",1,0.615558582125232,NA,NA,NA
"experimental",2,1,"hd","lower","amaze","w","w","g","g",1,0.756270654470427,NA,NA,NA
"experimental",2,2,"hd","lower","smabled","nw","nw","h","h",1,1.1584707294387,NA,NA,NA
"experimental",2,3,"hd","lower","remover","w","w","g","g",1,0.919214084802661,NA,NA,NA
"experimental",2,4,"hd","lower","scrobby","nw","nw","h","g",0,1.09712260097149,NA,NA,NA
"experimental",2,5,"hd","lower","arrested","w","w","g","g",1,0.78039577693562,NA,NA,NA
"experimental",2,6,"hd","lower","blipover","nw","nw","h","h",1,1.0755223971646,NA,NA,NA
"experimental",2,7,"hd","lower","satisfies","w","w","g","g",1,0.784387955573038,NA,NA,NA
"experimental",2,8,"hd","lower","hatred","w","w","g","g",1,0.822643869134481,NA,NA,NA
"experimental",2,9,"hd","lower","rumblos","nw","nw","h","h",1,0.780654758433229,NA,NA,NA
"experimental",2,10,"hd","lower","tycoon","w","w","g","g",1,0.884614398368285,NA,NA,NA
"experimental",2,11,"hd","lower","arcients","nw","nw","h","h",1,1.0959200575162,NA,NA,NA
"experimental",2,12,"hd","lower","partner","w","w","g","g",1,0.683290996879805,NA,NA,NA
"experimental",2,13,"hd","lower","churnad","nw","nw","h","h",1,0.767195870372234,NA,NA,NA
"experimental",2,14,"hd","lower","splum","nw","nw","h","h",1,1.19123883113207,NA,NA,NA
"experimental",2,15,"hd","lower","rasuals","nw","nw","h","h",1,1.82168944082514,NA,NA,NA
"experimental",2,16,"hd","lower","nopping","nw","nw","h","h",1,1.01028411304287,NA,NA,NA
"experimental",2,17,"hd","lower","doxing","nw","nw","h","g",0,0.952504677145043,NA,NA,NA
"experimental",2,18,"hd","lower","pressing","w","w","g","g",1,0.778758881060639,NA,NA,NA
"experimental",2,19,"hd","lower","loneliest","w","w","g","g",1,1.06670736729575,NA,NA,NA
"experimental",2,20,"hd","lower","compose","w","w","g","g",1,0.799321045982651,NA,NA,NA
"experimental",2,21,"hd","lower","miurnal","nw","nw","h","h",1,1.25459391527693,NA,NA,NA
"experimental",2,22,"hd","lower","glocked","nw","nw","h","g",0,2.01826152791909,NA,NA,NA
"experimental",2,23,"hd","lower","prame","nw","nw","h","h",1,1.00815430717194,NA,NA,NA
"experimental",2,24,"hd","lower","dingly","nw","nw","h","h",1,1.02275144605665,NA,NA,NA
"experimental",2,25,"hd","lower","apology","w","w","g","g",1,0.748739062037203,NA,NA,NA
"experimental",2,26,"hd","lower","punctual","w","w","g","g",1,0.678098991396837,NA,NA,NA
"experimental",2,27,"hd","lower","gorilla","target","target","q","q",1,0.810040706666769,1,NA,NA
"experimental",2,28,"hd","lower","formation","aftertar1","w","g","g",1,0.720687260909472,NA,NA,NA
"experimental",2,29,"hd","lower","culinary","aftertar2","w","g","g",1,0.90661816658394,NA,NA,NA
"experimental",2,30,"hd","lower","gunrunker","aftertar3","nw","h","h",1,0.813362491477164,NA,NA,NA
"experimental",3,1,"ld","upper","painter","w","w","g","g",1,0.810882849284098,NA,NA,NA
"experimental",3,2,"ld","upper","postal","w","w","g","g",1,0.585504352973658,NA,NA,NA
"experimental",3,3,"ld","upper","ausht","nw","nw","h","h",1,0.799588479087106,NA,NA,NA
"experimental",3,4,"ld","upper","scrib","nw","nw","h","g",0,1.0459912623337,NA,NA,NA
"experimental",3,5,"ld","upper","wienegs","nw","nw","h","h",1,0.821155480138259,NA,NA,NA
"experimental",3,6,"ld","upper","repayment","w","w","g","g",1,1.27434442374215,NA,NA,NA
"experimental",3,7,"ld","upper","walsams","nw","nw","h","h",1,0.94245722136111,NA,NA,NA
"experimental",3,8,"ld","upper","amidst","w","w","g","g",1,0.775697285134811,NA,NA,NA
"experimental",3,9,"ld","upper","schinter","nw","nw","h","h",1,0.8076386381872,NA,NA,NA
"experimental",3,10,"ld","upper","endgume","nw","nw","h","h",1,1.14218145736959,NA,NA,NA
"experimental",3,11,"ld","upper","observer","w","w","g","g",1,0.855620242655277,NA,NA,NA
"experimental",3,12,"ld","upper","system","w","w","g","g",1,0.579255292454036,NA,NA,NA
"experimental",3,13,"ld","upper","expected","w","w","g","g",1,0.724123142470489,NA,NA,NA
"experimental",3,14,"ld","upper","octopus","target","target","q","g",0,0.957054058395443,NA,NA,NA
"experimental",3,15,"ld","upper","deceit","aftertar1","w","g","g",1,1.08568425153499,NA,NA,NA
"experimental",3,16,"ld","upper","arrive","aftertar2","w","g","g",1,0.600961141390144,NA,NA,NA
"experimental",3,17,"ld","upper","insole","aftertar3","w","g","g",1,0.831629742271616,NA,NA,NA
"experimental",3,18,"ld","upper","filny","w","nw","h","h",1,0.941635604060139,NA,NA,NA
"experimental",3,19,"ld","upper","kraums","nw","nw","h","h",1,0.798926235031104,NA,NA,NA
"experimental",3,20,"ld","upper","inversion","nw","w","g","g",1,0.630296983654262,NA,NA,NA
"experimental",3,21,"ld","upper","infusion","w","w","g","g",1,0.539281890887651,NA,NA,NA
"experimental",3,22,"ld","upper","hodels","w","nw","h","h",1,0.700611667300109,NA,NA,NA
"experimental",3,23,"ld","upper","podes","nw","nw","h","h",1,0.735115065748687,NA,NA,NA
"experimental",3,24,"ld","upper","shockwave","nw","w","g","g",1,0.83242208075535,NA,NA,NA
"experimental",3,25,"ld","upper","ciping","w","nw","h","h",1,0.909241486137034,NA,NA,NA
"experimental",3,26,"ld","upper","doads","nw","nw","h","h",1,1.55215188275906,NA,NA,NA
"experimental",3,27,"ld","upper","infested","nw","w","g","g",1,1.04972868526238,NA,NA,NA
"experimental",3,28,"ld","upper","peadgear","w","nw","h","h",1,0.814905815946986,NA,NA,NA
"experimental",3,29,"ld","upper","lasprey","nw","nw","h","h",1,0.829570567715564,NA,NA,NA
"experimental",3,30,"ld","upper","mandlers","nw","nw","h","h",1,1.80262139992556,NA,NA,NA
"experimental",4,1,"hd","lower","casino","w","w","g","g",1,1.00911416865711,NA,NA,NA
"experimental",4,2,"hd","lower","regiment","w","w","g","g",1,1.02364641126769,NA,NA,NA
"experimental",4,3,"hd","lower","saucer","w","w","g","g",1,0.677667355557787,NA,NA,NA
"experimental",4,4,"hd","lower","resume","w","w","g","g",1,0.696603490971029,NA,NA,NA
"experimental",4,5,"hd","lower","rarren","nw","nw","h","h",1,1.47585798645741,NA,NA,NA
"experimental",4,6,"hd","lower","brimitive","nw","nw","h","h",1,0.807837251049932,NA,NA,NA
"experimental",4,7,"hd","lower","egcused","nw","nw","h","h",1,0.76646571161109,NA,NA,NA
"experimental",4,8,"hd","lower","inducing","w","w","g","g",1,0.711178293451667,NA,NA,NA
"experimental",4,9,"hd","lower","asclibed","nw","nw","h","h",1,1.16976057199645,NA,NA,NA
"experimental",4,10,"hd","lower","maunches","nw","nw","h","h",1,1.34572461400239,NA,NA,NA
"experimental",4,11,"hd","lower","paying","w","w","g","g",1,0.817791739114909,NA,NA,NA
"experimental",4,12,"hd","lower","clarms","nw","nw","h","h",1,1.02283384925977,NA,NA,NA
"experimental",4,13,"hd","lower","trewl","nw","nw","h","h",1,0.741584471819806,NA,NA,NA
"experimental",4,14,"hd","lower","earnest","w","w","g","g",1,1.45529974551755,NA,NA,NA
"experimental",4,15,"hd","lower","lanthers","nw","nw","h","h",1,1.02789576032956,NA,NA,NA
"experimental",4,16,"hd","lower","relaying","w","w","g","g",1,0.70561381339212,NA,NA,NA
"experimental",4,17,"hd","lower","reddar","nw","nw","h","h",1,1.43647166997835,NA,NA,NA
"experimental",4,18,"hd","lower","dounger","nw","nw","h","h",1,0.90488860484038,NA,NA,NA
"experimental",4,19,"hd","lower","chonemic","nw","nw","h","h",1,1.74743449556991,NA,NA,NA
"experimental",4,20,"hd","lower","deakers","nw","nw","h","h",1,1.01273175985261,NA,NA,NA
"experimental",4,21,"hd","lower","lovud","nw","nw","h","h",1,0.90731210418744,NA,NA,NA
"experimental",4,22,"hd","lower","analysis","w","w","g","g",1,1.3179456791695,NA,NA,NA
"experimental",4,23,"hd","lower","sweeping","w","w","g","h",0,0.807892488359357,NA,NA,NA
"experimental",4,24,"hd","lower","prominent","w","w","g","g",1,0.750548008552869,NA,NA,NA
"experimental",4,25,"hd","lower","asthmatic","w","w","g","g",1,0.959252986373031,NA,NA,NA
"experimental",4,26,"hd","lower","emergence","w","w","g","g",1,0.719917258815258,NA,NA,NA
"experimental",4,27,"hd","lower","grefab","nw","nw","h","h",1,0.928794287290657,NA,NA,NA
"experimental",4,28,"hd","lower","stuggard","nw","nw","h","h",1,0.986765091787674,NA,NA,NA
"experimental",4,29,"hd","lower","monkey","target","target","q","q",1,0.850050933120656,1,NA,NA
"experimental",4,30,"hd","lower","cervical","aftertar1","w","g","g",1,0.767325361128314,NA,NA,NA
"experimental",5,1,"ld","upper","allained","nw","nw","h","h",1,1.86231422009587,NA,NA,NA
"experimental",5,2,"ld","upper","vergas","nw","nw","h","h",1,0.76287528629473,NA,NA,NA
"experimental",5,3,"ld","upper","disuse","w","w","g","g",1,0.795523254389991,NA,NA,NA
"experimental",5,4,"ld","upper","servant","w","w","g","g",1,0.810836667282274,NA,NA,NA
"experimental",5,5,"ld","upper","catgup","nw","nw","h","h",1,1.31347960664425,NA,NA,NA
"experimental",5,6,"ld","upper","plartly","nw","nw","h","g",0,0.716082642335095,NA,NA,NA
"experimental",5,7,"ld","upper","fallacy","w","w","g","g",1,0.742720911599463,NA,NA,NA
"experimental",5,8,"ld","upper","senior","w","w","g","g",1,0.655089481500909,NA,NA,NA
"experimental",5,9,"ld","upper","intrude","w","w","g","g",1,0.596651121828472,NA,NA,NA
"experimental",5,10,"ld","upper","mabit","nw","nw","h","h",1,0.858905202592723,NA,NA,NA
"experimental",5,11,"ld","upper","nostril","w","w","g","g",1,0.887586346856551,NA,NA,NA
"experimental",5,12,"ld","upper","affluent","w","w","g","g",1,0.72289705525327,NA,NA,NA
"experimental",5,13,"ld","upper","menarthe","nw","nw","h","g",0,2.08485689922236,NA,NA,NA
"experimental",5,14,"ld","upper","poyride","nw","nw","h","h",1,1.38409583168686,NA,NA,NA
"experimental",5,15,"ld","upper","rapport","w","w","g","g",1,0.783395495003788,NA,NA,NA
"experimental",5,16,"ld","upper","lenie","nw","nw","h","h",1,0.782465516007505,NA,NA,NA
"experimental",5,17,"ld","upper","ergonomic","w","w","g","g",1,1.18234924598073,NA,NA,NA
"experimental",5,18,"ld","upper","poars","nw","nw","h","h",1,1.26914366478741,NA,NA,NA
"experimental",5,19,"ld","upper","cutout","w","w","g","g",1,0.849494636015152,NA,NA,NA
"experimental",5,20,"ld","upper","grummer","nw","nw","h","h",1,1.00761612068163,NA,NA,NA
"experimental",5,21,"ld","upper","ulcer","w","w","g","g",1,0.72622185848013,NA,NA,NA
"experimental",5,22,"ld","upper","nature","w","w","g","g",1,0.840102180067333,NA,NA,NA
"experimental",5,23,"ld","upper","quickel","nw","nw","h","h",1,0.818448549995082,NA,NA,NA
"experimental",5,24,"ld","upper","butled","nw","nw","h","h",1,1.45056141038367,NA,NA,NA
"experimental",5,25,"ld","upper","fashing","nw","nw","h","g",0,1.35907876245619,NA,NA,NA
"experimental",5,26,"ld","upper","fracture","w","w","g","g",1,0.759640734191635,NA,NA,NA
"experimental",5,27,"ld","upper","newstrint","nw","nw","h","g",0,0.752278173982631,NA,NA,NA
"experimental",5,28,"ld","upper","diatonic","w","w","g","g",1,0.77696019722498,NA,NA,NA
"experimental",5,29,"ld","upper","etber","nw","nw","h","h",1,0.720919982049963,NA,NA,NA
"experimental",5,30,"ld","upper","butler","w","w","g","g",1,0.85088371859456,NA,NA,NA
"experimental",6,1,"hd","lower","ordinary","w","w","g","g",1,0.798420345759951,NA,NA,NA
"experimental",6,2,"hd","lower","bailmenz","nw","nw","h","h",1,0.997773012772086,NA,NA,NA
"experimental",6,3,"hd","lower","visible","w","w","g","g",1,0.821067945609684,NA,NA,NA
"experimental",6,4,"hd","lower","bumbo","nw","nw","h","h",1,2.05907133712026,NA,NA,NA
"experimental",6,5,"hd","lower","pocket","w","w","g","g",1,0.84561263017531,NA,NA,NA
"experimental",6,6,"hd","lower","urique","nw","nw","h","h",1,0.931336712848861,NA,NA,NA
"experimental",6,7,"hd","lower","talate","nw","nw","h","h",1,0.918023011399782,NA,NA,NA
"experimental",6,8,"hd","lower","traze","nw","nw","h","h",1,1.44789553093142,NA,NA,NA
"experimental",6,9,"hd","lower","figure","w","w","g","g",1,0.78913413862756,NA,NA,NA
"experimental",6,10,"hd","lower","kiner","nw","nw","h","h",1,0.796461986843497,NA,NA,NA
"experimental",6,11,"hd","lower","caterpillar","target","target","q","q",1,0.987783510878216,1,NA,NA
"experimental",6,12,"hd","lower","pammed","aftertar1","nw","h","h",1,1.41904444892134,NA,NA,NA
"experimental",6,13,"hd","lower","trake","aftertar2","nw","h","h",1,0.913073386036558,NA,NA,NA
"experimental",6,14,"hd","lower","frowsed","aftertar3","nw","h","h",1,1.14670759669389,NA,NA,NA
"experimental",6,15,"hd","lower","rivet","nw","w","g","g",1,1.07602164585842,NA,NA,NA
"experimental",6,16,"hd","lower","slightly","w","w","g","g",1,0.775999128352851,NA,NA,NA
"experimental",6,17,"hd","lower","breiled","w","nw","h","h",1,1.57599659288826,NA,NA,NA
"experimental",6,18,"hd","lower","gradielts","nw","nw","h","g",0,0.807841175002977,NA,NA,NA
"experimental",6,19,"hd","lower","expounded","nw","w","g","g",1,0.830466740284464,NA,NA,NA
"experimental",6,20,"hd","lower","superstar","w","w","g","g",1,0.692530720174545,NA,NA,NA
"experimental",6,21,"hd","lower","micron","w","w","g","h",0,1.11174690573534,NA,NA,NA
"experimental",6,22,"hd","lower","flooted","w","nw","h","h",1,1.03341466205893,NA,NA,NA
"experimental",6,23,"hd","lower","causality","nw","w","g","g",1,0.695366537387599,NA,NA,NA
"experimental",6,24,"hd","lower","flieves","w","nw","h","h",1,1.01068828113785,NA,NA,NA
"experimental",6,25,"hd","lower","icepick","nw","w","g","g",1,1.311521851414,NA,NA,NA
"experimental",6,26,"hd","lower","geissue","w","nw","h","h",1,0.93798239537864,NA,NA,NA
"experimental",6,27,"hd","lower","condensed","nw","w","g","g",1,0.883393442476518,NA,NA,NA
"experimental",6,28,"hd","lower","drobate","w","nw","h","h",1,0.934559191242442,NA,NA,NA
"experimental",6,29,"hd","lower","mandate","nw","w","g","g",1,0.767824609851232,NA,NA,NA
"experimental",6,30,"hd","lower","outrank","w","w","g","g",1,0.742817803286016,NA,NA,NA
"experimental",7,1,"ld","upper","duplex","w","w","g","g",1,0.879960881196894,NA,NA,NA
"experimental",7,2,"ld","upper","innocent","w","w","g","g",1,0.611979325025459,NA,NA,NA
"experimental",7,3,"ld","upper","gremieres","nw","nw","h","h",1,0.913719934222172,NA,NA,NA
"experimental",7,4,"ld","upper","roughly","w","w","g","g",1,0.628287311381428,NA,NA,NA
"experimental",7,5,"ld","upper","corduroy","w","w","g","g",1,0.738372859777883,NA,NA,NA
"experimental",7,6,"ld","upper","earterner","nw","nw","h","h",1,1.23549780296162,NA,NA,NA
"experimental",7,7,"ld","upper","yearnungs","nw","nw","h","h",1,1.10485461729695,NA,NA,NA
"experimental",7,8,"ld","upper","become","w","w","g","g",1,0.731484797157464,NA,NA,NA
"experimental",7,9,"ld","upper","surdens","nw","nw","h","h",1,1.58146055914403,NA,NA,NA
"experimental",7,10,"ld","upper","chemical","w","w","g","g",1,0.900574359475286,NA,NA,NA
"experimental",7,11,"ld","upper","finstrel","nw","nw","h","h",1,0.767092640002375,NA,NA,NA
"experimental",7,12,"ld","upper","brother","w","w","g","g",1,0.781987094465876,NA,NA,NA
"experimental",7,13,"ld","upper","grenavier","nw","nw","h","h",1,1.0852046226355,NA,NA,NA
"experimental",7,14,"ld","upper","elpousal","nw","nw","h","h",1,0.80940955245751,NA,NA,NA
"experimental",7,15,"ld","upper","mixture","w","w","g","g",1,0.783573582521058,NA,NA,NA
"experimental",7,16,"ld","upper","student","w","w","g","g",1,0.646890513700782,NA,NA,NA
"experimental",7,17,"ld","upper","ofsters","nw","nw","h","h",1,0.811500118710683,NA,NA,NA
"experimental",7,18,"ld","upper","thacked","nw","nw","h","h",1,0.729511647907202,NA,NA,NA
"experimental",7,19,"ld","upper","splinging","nw","nw","h","g",0,1.01058776733407,NA,NA,NA
"experimental",7,20,"ld","upper","booster","w","w","g","g",1,0.768541789380834,NA,NA,NA
"experimental",7,21,"ld","upper","eggays","nw","nw","h","h",1,1.14442053050152,NA,NA,NA
"experimental",7,22,"ld","upper","sefraud","nw","nw","h","h",1,0.953705409541726,NA,NA,NA
"experimental",7,23,"ld","upper","sooled","nw","nw","h","h",1,1.19434691092465,NA,NA,NA
"experimental",7,24,"ld","upper","runabouk","nw","nw","h","h",1,0.841651541384635,NA,NA,NA
"experimental",7,25,"ld","upper","mullet","w","w","g","g",1,1.02292289301113,NA,NA,NA
"experimental",7,26,"ld","upper","presently","w","w","g","g",1,0.66026880958816,NA,NA,NA
"experimental",7,27,"ld","upper","riosk","nw","nw","h","h",1,0.752081372193061,NA,NA,NA
"experimental",7,28,"ld","upper","massacre","w","w","g","g",1,0.848425507283537,NA,NA,NA
"experimental",7,29,"ld","upper","glassware","w","w","g","g",1,0.74975144425116,NA,NA,NA
"experimental",7,30,"ld","upper","shamrock","w","w","g","g",1,0.726440694837947,NA,NA,NA
"experimental",8,1,"hd","lower","persona","w","w","g","g",1,0.815468149885419,NA,NA,NA
"experimental",8,2,"hd","lower","mubby","nw","nw","h","h",1,0.933191539530526,NA,NA,NA
"experimental",8,3,"hd","lower","miability","nw","nw","h","h",1,1.09461518919852,NA,NA,NA
"experimental",8,4,"hd","lower","failure","w","w","g","g",1,1.24123312628944,NA,NA,NA
"experimental",8,5,"hd","lower","tibs","nw","nw","h","h",1,0.773761866308632,NA,NA,NA
"experimental",8,6,"hd","lower","thamp","nw","nw","h","h",1,0.757078990645823,NA,NA,NA
"experimental",8,7,"hd","lower","crazy","w","w","g","g",1,0.645066475030035,NA,NA,NA
"experimental",8,8,"hd","lower","arranged","w","w","g","g",1,0.649744743335759,NA,NA,NA
"experimental",8,9,"hd","lower","lofty","w","w","g","g",1,1.08642225824588,NA,NA,NA
"experimental",8,10,"hd","lower","tapling","nw","nw","h","h",1,1.35205728509754,NA,NA,NA
"experimental",8,11,"hd","lower","coyote","target","target","q","q",1,0.624658853834262,1,NA,NA
"experimental",8,12,"hd","lower","fomes","aftertar1","nw","h","h",1,0.701983242950519,NA,NA,NA
"experimental",8,13,"hd","lower","equitable","aftertar2","w","g","g",1,0.76867792068515,NA,NA,NA
"experimental",8,14,"hd","lower","carnival","aftertar3","w","g","g",1,1.34457549681247,NA,NA,NA
"experimental",8,15,"hd","lower","undimmec","w","nw","h","h",1,0.729207993616001,NA,NA,NA
"experimental",8,16,"hd","lower","veclors","nw","nw","h","h",1,0.818485374868033,NA,NA,NA
"experimental",8,17,"hd","lower","mestowal","nw","nw","h","h",1,0.79246528056683,NA,NA,NA
"experimental",8,18,"hd","lower","arrival","nw","w","g","g",1,0.638163320210879,NA,NA,NA
"experimental",8,19,"hd","lower","terming","w","w","g","h",0,0.683914605004247,NA,NA,NA
"experimental",8,20,"hd","lower","irregular","w","w","g","g",1,0.678049489099067,NA,NA,NA
"experimental",8,21,"hd","lower","computer","w","w","g","g",1,0.728311217360897,NA,NA,NA
"experimental",8,22,"hd","lower","otoist","w","nw","h","h",1,0.849489202853874,NA,NA,NA
"experimental",8,23,"hd","lower","sengry","nw","nw","h","h",1,1.65472606226103,NA,NA,NA
"experimental",8,24,"hd","lower","serving","nw","w","g","g",1,0.65124218762503,NA,NA,NA
"experimental",8,25,"hd","lower","ecistle","w","nw","h","h",1,0.735825001029298,NA,NA,NA
"experimental",8,26,"hd","lower","detrabe","nw","nw","h","h",1,1.12762355810264,NA,NA,NA
"experimental",8,27,"hd","lower","nogwhell","nw","nw","h","h",1,0.672809490526561,NA,NA,NA
"experimental",8,28,"hd","lower","quittint","nw","nw","h","h",1,0.579510048148222,NA,NA,NA
"experimental",8,29,"hd","lower","bickering","nw","w","g","g",1,0.787245807339787,NA,NA,NA
"experimental",8,30,"hd","lower","handcuff","w","w","g","g",1,0.730056474960293,NA,NA,NA
"experimental",9,1,"ld","upper","company","w","w","g","g",1,1.30697609228082,NA,NA,NA
"experimental",9,2,"ld","upper","coverall","w","w","g","g",1,0.668811878698762,NA,NA,NA
"experimental",9,3,"ld","upper","peems","nw","nw","h","h",1,0.856752758481889,NA,NA,NA
"experimental",9,4,"ld","upper","pester","w","w","g","g",1,0.908751896407921,NA,NA,NA
"experimental",9,5,"ld","upper","stagger","w","w","g","g",1,0.670767521034577,NA,NA,NA
"experimental",9,6,"ld","upper","suspect","w","w","g","g",1,0.642136784575996,NA,NA,NA
"experimental",9,7,"ld","upper","culer","nw","nw","h","h",1,0.966673802322475,NA,NA,NA
"experimental",9,8,"ld","upper","tracing","w","w","g","g",1,0.518697993262322,NA,NA,NA
"experimental",9,9,"ld","upper","fomrade","nw","nw","h","h",1,0.815523689045222,NA,NA,NA
"experimental",9,10,"ld","upper","splatter","w","w","g","g",1,0.973484894944704,NA,NA,NA
"experimental",9,11,"ld","upper","mebase","nw","nw","h","h",1,0.64452466640796,NA,NA,NA
"experimental",9,12,"ld","upper","entitle","w","w","g","g",1,0.857589769773767,NA,NA,NA
"experimental",9,13,"ld","upper","thorifies","nw","nw","h","h",1,1.8854909511283,NA,NA,NA
"experimental",9,14,"ld","upper","acidic","w","w","g","g",1,0.912840363045689,NA,NA,NA
"experimental",9,15,"ld","upper","flougy","nw","nw","h","h",1,0.682802010836895,NA,NA,NA
"experimental",9,16,"ld","upper","committed","w","w","g","g",1,0.614138107848703,NA,NA,NA
"experimental",9,17,"ld","upper","addma","nw","nw","h","h",1,1.05204140815476,NA,NA,NA
"experimental",9,18,"ld","upper","latpin","nw","nw","h","h",1,0.831683168522432,NA,NA,NA
"experimental",9,19,"ld","upper","halms","nw","nw","h","h",1,1.23706678410235,NA,NA,NA
"experimental",9,20,"ld","upper","brials","nw","nw","h","g",0,0.841620451537892,NA,NA,NA
"experimental",9,21,"ld","upper","hustle","w","w","g","g",1,1.02227302454412,NA,NA,NA
"experimental",9,22,"ld","upper","image","w","w","g","g",1,0.571589077939279,NA,NA,NA
"experimental",9,23,"ld","upper","populace","w","w","g","g",1,0.970850105339196,NA,NA,NA
"experimental",9,24,"ld","upper","louches","nw","nw","h","h",1,0.922158867426333,NA,NA,NA
"experimental",9,25,"ld","upper","passet","nw","nw","h","h",1,0.642556346661877,NA,NA,NA
"experimental",9,26,"ld","upper","martial","w","w","g","g",1,0.784068001754349,NA,NA,NA
"experimental",9,27,"ld","upper","dehydrate","w","w","g","g",1,0.638410831670626,NA,NA,NA
"experimental",9,28,"ld","upper","sponto","nw","nw","h","h",1,0.771034410819993,NA,NA,NA
"experimental",9,29,"ld","upper","ilterfere","nw","nw","h","h",1,0.906355562969111,NA,NA,NA
"experimental",9,30,"ld","upper","geadpan","nw","nw","h","h",1,0.731250868644565,NA,NA,NA
"experimental",10,1,"hd","lower","chight","nw","nw","h","h",1,0.925473106151912,NA,NA,NA
"experimental",10,2,"hd","lower","chrayed","nw","nw","h","h",1,0.72574102220824,NA,NA,NA
"experimental",10,3,"hd","lower","unburnid","nw","nw","h","h",1,1.04699549477664,NA,NA,NA
"experimental",10,4,"hd","lower","plapping","nw","nw","h","h",1,0.795716735898168,NA,NA,NA
"experimental",10,5,"hd","lower","digest","w","w","g","g",1,0.778322113896138,NA,NA,NA
"experimental",10,6,"hd","lower","uncle","w","w","g","g",1,0.561609838725417,NA,NA,NA
"experimental",10,7,"hd","lower","protest","w","w","g","g",1,0.953637796643306,NA,NA,NA
"experimental",10,8,"hd","lower","meteoroid","w","w","g","g",1,1.05756966701301,NA,NA,NA
"experimental",10,9,"hd","lower","daining","nw","nw","h","h",1,1.15753471356584,NA,NA,NA
"experimental",10,10,"hd","lower","imprives","nw","nw","h","h",1,0.956491422606632,NA,NA,NA
"experimental",10,11,"hd","lower","sequence","w","w","g","g",1,0.716450287407497,NA,NA,NA
"experimental",10,12,"hd","lower","fictional","w","w","g","g",1,0.654419993210468,NA,NA,NA
"experimental",10,13,"hd","lower","govern","w","w","g","g",1,1.19442267357954,NA,NA,NA
"experimental",10,14,"hd","lower","theery","nw","nw","h","h",1,0.752965772873722,NA,NA,NA
"experimental",10,15,"hd","lower","summon","w","w","g","g",1,0.753012860412127,NA,NA,NA
"experimental",10,16,"hd","lower","trises","nw","nw","h","h",1,1.29617976341979,NA,NA,NA
"experimental",10,17,"hd","lower","remade","w","w","g","g",1,0.986592739296611,NA,NA,NA
"experimental",10,18,"hd","lower","plashed","nw","nw","h","h",1,0.77679840924975,NA,NA,NA
"experimental",10,19,"hd","lower","acroad","nw","nw","h","h",1,0.776376432419056,NA,NA,NA
"experimental",10,20,"hd","lower","omners","nw","nw","h","h",1,0.752432114037219,NA,NA,NA
"experimental",10,21,"hd","lower","maiden","w","w","g","g",1,0.73654036950029,NA,NA,NA
"experimental",10,22,"hd","lower","mounting","w","w","g","g",1,0.713178004894871,NA,NA,NA
"experimental",10,23,"hd","lower","gackpedal","nw","nw","h","h",1,0.778807477821829,NA,NA,NA
"experimental",10,24,"hd","lower","parody","w","w","g","g",1,0.634361604665173,NA,NA,NA
"experimental",10,25,"hd","lower","armada","w","w","g","h",0,0.783873312859214,NA,NA,NA
"experimental",10,26,"hd","lower","germeated","nw","nw","h","h",1,1.59804654310574,NA,NA,NA
"experimental",10,27,"hd","lower","sunshine","w","w","g","g",1,0.748658168056863,NA,NA,NA
"experimental",10,28,"hd","lower","egpended","nw","nw","h","h",1,0.733345962536987,NA,NA,NA
"experimental",10,29,"hd","lower","hinsome","nw","nw","h","h",1,0.734590160354855,NA,NA,NA
"experimental",10,30,"hd","lower","renown","w","w","g","g",1,2.07191265390429,NA,NA,NA
"experimental",11,1,"ld","upper","sullen","w","w","g","g",1,0.794713107141433,NA,NA,NA
"experimental",11,2,"ld","upper","frader","nw","nw","h","h",1,0.833372283275821,NA,NA,NA
"experimental",11,3,"ld","upper","efcorted","nw","nw","h","h",1,1.51875745637517,NA,NA,NA
"experimental",11,4,"ld","upper","gumdrep","nw","nw","h","h",1,0.62466006122122,NA,NA,NA
"experimental",11,5,"ld","upper","clypaper","nw","nw","h","h",1,0.50883888763201,NA,NA,NA
"experimental",11,6,"ld","upper","grolific","nw","nw","h","h",1,0.734768851558329,NA,NA,NA
"experimental",11,7,"ld","upper","caloric","w","w","g","g",1,0.78385369303578,NA,NA,NA
"experimental",11,8,"ld","upper","country","w","w","g","g",1,0.744621920312056,NA,NA,NA
"experimental",11,9,"ld","upper","susher","nw","nw","h","g",0,2.01609248244495,NA,NA,NA
"experimental",11,10,"ld","upper","roaned","nw","nw","h","h",1,0.886066868028138,NA,NA,NA
"experimental",11,11,"ld","upper","seeming","w","w","g","g",1,0.680681863959762,NA,NA,NA
"experimental",11,12,"ld","upper","kickoff","w","w","g","g",1,0.716018953433377,NA,NA,NA
"experimental",11,13,"ld","upper","zears","nw","nw","h","h",1,0.597981948652887,NA,NA,NA
"experimental",11,14,"ld","upper","donastic","nw","nw","h","h",1,1.01181687301141,NA,NA,NA
"experimental",11,15,"ld","upper","fetching","w","w","g","g",1,0.882514776822063,NA,NA,NA
"experimental",11,16,"ld","upper","series","w","w","g","g",1,0.652959675644524,NA,NA,NA
"experimental",11,17,"ld","upper","purpose","w","w","g","g",1,0.592780887847766,NA,NA,NA
"experimental",11,18,"ld","upper","amkles","nw","nw","h","h",1,0.711472288763616,NA,NA,NA
"experimental",11,19,"ld","upper","withep","nw","nw","h","h",1,0.857420133877895,NA,NA,NA
"experimental",11,20,"ld","upper","bother","w","w","g","g",1,0.733131653847522,NA,NA,NA
"experimental",11,21,"ld","upper","praiged","nw","nw","h","h",1,0.990449390330468,NA,NA,NA
"experimental",11,22,"ld","upper","digar","nw","nw","h","h",1,1.42912510747556,NA,NA,NA
"experimental",11,23,"ld","upper","edasion","nw","nw","h","h",1,0.714171672821976,NA,NA,NA
"experimental",11,24,"ld","upper","implode","w","w","g","g",1,0.860151513305027,NA,NA,NA
"experimental",11,25,"ld","upper","latirizes","nw","nw","h","h",1,0.775069149342016,NA,NA,NA
"experimental",11,26,"ld","upper","primal","w","w","g","g",1,0.781292855041102,NA,NA,NA
"experimental",11,27,"ld","upper","probable","w","w","g","g",1,0.89281910120917,NA,NA,NA
"experimental",11,28,"ld","upper","module","w","w","g","g",1,0.928218974077026,NA,NA,NA
"experimental",11,29,"ld","upper","reconcile","w","w","g","g",1,0.841699836309999,NA,NA,NA
"experimental",11,30,"ld","upper","reason","w","w","g","g",1,0.694276883310522,NA,NA,NA
"experimental",12,1,"hd","lower","ludictous","nw","nw","h","h",1,1.46448453333869,NA,NA,NA
"experimental",12,2,"hd","lower","hangar","w","w","g","h",0,0.740441693327739,NA,NA,NA
"experimental",12,3,"hd","lower","stelled","nw","nw","h","h",1,1.09274828879279,NA,NA,NA
"experimental",12,4,"hd","lower","abraid","nw","nw","h","h",1,0.767084490231355,NA,NA,NA
"experimental",12,5,"hd","lower","slooping","nw","nw","h","h",1,1.35912766105321,NA,NA,NA
"experimental",12,6,"hd","lower","ethical","w","w","g","g",1,0.934101596896653,NA,NA,NA
"experimental",12,7,"hd","lower","alomalous","nw","nw","h","h",1,1.01538707480358,NA,NA,NA
"experimental",12,8,"hd","lower","volition","w","w","g","g",1,0.581275831063977,NA,NA,NA
"experimental",12,9,"hd","lower","clattest","nw","nw","h","h",1,0.796612002945039,NA,NA,NA
"experimental",12,10,"hd","lower","contain","w","w","g","g",1,0.971243708918337,NA,NA,NA
"experimental",12,11,"hd","lower","burrowing","w","w","g","g",1,0.810560178884771,NA,NA,NA
"experimental",12,12,"hd","lower","rainfall","w","w","g","g",1,0.687415382853942,NA,NA,NA
"experimental",12,13,"hd","lower","treason","w","w","g","g",1,0.593903744680574,NA,NA,NA
"experimental",12,14,"hd","lower","attended","w","w","g","g",1,0.584239629810327,NA,NA,NA
"experimental",12,15,"hd","lower","abhorrent","w","w","g","g",1,1.02415169683809,NA,NA,NA
"experimental",12,16,"hd","lower","delegate","w","w","g","g",1,0.773338078390225,NA,NA,NA
"experimental",12,17,"hd","lower","ufionize","nw","nw","h","h",1,0.89266546300496,NA,NA,NA
"experimental",12,18,"hd","lower","dests","nw","nw","h","h",1,1.21520216562203,NA,NA,NA
"experimental",12,19,"hd","lower","nollow","nw","nw","h","h",1,0.75723202516383,NA,NA,NA
"experimental",12,20,"hd","lower","graveyard","w","w","g","g",1,0.645239431192749,NA,NA,NA
"experimental",12,21,"hd","lower","shazer","nw","nw","h","h",1,0.729866313718958,NA,NA,NA
"experimental",12,22,"hd","lower","pressures","w","w","g","g",1,0.611138691630913,NA,NA,NA
"experimental",12,23,"hd","lower","eugenifs","nw","nw","h","h",1,0.928130835847696,NA,NA,NA
"experimental",12,24,"hd","lower","cripet","nw","nw","h","h",1,0.961393658595625,NA,NA,NA
"experimental",12,25,"hd","lower","budget","w","w","g","g",1,0.737339952233015,NA,NA,NA
"experimental",12,26,"hd","lower","migmarole","nw","nw","h","h",1,0.98599599521549,NA,NA,NA
"experimental",12,27,"hd","lower","squirrel","target","target","q","q",1,0.976719447062351,1,NA,NA
"experimental",12,28,"hd","lower","dredigest","aftertar1","nw","h","h",1,0.927969953409047,NA,NA,NA
"experimental",12,29,"hd","lower","lifetime","aftertar2","w","g","g",1,0.977225336318952,NA,NA,NA
"experimental",12,30,"hd","lower","begut","aftertar3","nw","h","h",1,0.703797622642014,NA,NA,NA
"experimental",13,1,"ld","upper","subber","nw","nw","h","h",1,0.864918221690459,NA,NA,NA
"experimental",13,2,"ld","upper","razelle","nw","nw","h","h",1,0.645667444900027,NA,NA,NA
"experimental",13,3,"ld","upper","mystery","w","w","g","g",1,0.642892901887535,NA,NA,NA
"experimental",13,4,"ld","upper","expired","w","w","g","g",1,0.615330690474366,NA,NA,NA
"experimental",13,5,"ld","upper","sprea","nw","nw","h","h",1,0.621335559815634,NA,NA,NA
"experimental",13,6,"ld","upper","even","w","w","g","g",1,0.642634825911955,NA,NA,NA
"experimental",13,7,"ld","upper","marvel","w","w","g","g",1,0.790249751225929,NA,NA,NA
"experimental",13,8,"ld","upper","graiking","nw","nw","h","h",1,0.732897121648421,NA,NA,NA
"experimental",13,9,"ld","upper","mennel","nw","nw","h","h",1,0.854152680840343,NA,NA,NA
"experimental",13,10,"ld","upper","blocking","w","w","g","g",1,0.954196206643246,NA,NA,NA
"experimental",13,11,"ld","upper","dazid","nw","nw","h","h",1,0.594118053399143,NA,NA,NA
"experimental",13,12,"ld","upper","rabbit","target","target","q","q",1,1.15273993376468,1,NA,NA
"experimental",13,13,"ld","upper","fuintets","aftertar1","nw","h","h",1,1.18388502436574,NA,NA,NA
"experimental",13,14,"ld","upper","thaken","aftertar2","nw","h","h",1,1.09477154399792,NA,NA,NA
"experimental",13,15,"ld","upper","aviation","aftertar3","w","g","g",1,1.52138439804548,NA,NA,NA
"experimental",13,16,"ld","upper","retain","w","w","g","g",1,0.874647232878488,NA,NA,NA
"experimental",13,17,"ld","upper","natch","w","nw","h","h",1,0.91797381095239,NA,NA,NA
"experimental",13,18,"ld","upper","official","nw","w","g","g",1,1.43162074733118,NA,NA,NA
"experimental",13,19,"ld","upper","except","w","w","g","g",1,0.652844673357322,NA,NA,NA
"experimental",13,20,"ld","upper","unversed","w","w","g","g",1,1.28891892438696,NA,NA,NA
"experimental",13,21,"ld","upper","grested","w","nw","h","h",1,1.01043775126163,NA,NA,NA
"experimental",13,22,"ld","upper","vented","nw","w","g","g",1,0.999846373961191,NA,NA,NA
"experimental",13,23,"ld","upper","schides","w","nw","h","h",1,0.711271261170623,NA,NA,NA
"experimental",13,24,"ld","upper","bellicove","nw","nw","h","h",1,0.817286453544511,NA,NA,NA
"experimental",13,25,"ld","upper","lavilion","nw","nw","h","h",1,0.854432791369618,NA,NA,NA
"experimental",13,26,"ld","upper","rawhide","nw","w","g","h",0,0.61839560669614,NA,NA,NA
"experimental",13,27,"ld","upper","togglo","w","nw","h","h",1,0.631674294330878,NA,NA,NA
"experimental",13,28,"ld","upper","emission","nw","w","g","g",1,0.9170193826576,NA,NA,NA
"experimental",13,29,"ld","upper","twarfs","w","nw","h","h",1,0.918078248723759,NA,NA,NA
"experimental",13,30,"ld","upper","curricula","nw","w","g","g",1,0.959328145327163,NA,NA,NA
"experimental",14,1,"hd","lower","redefloy","nw","nw","h","h",1,0.807790767183178,NA,NA,NA
"experimental",14,2,"hd","lower","mogus","nw","nw","h","h",1,0.749722165463027,NA,NA,NA
"experimental",14,3,"hd","lower","medium","w","w","g","g",1,0.694412712749909,NA,NA,NA
"experimental",14,4,"hd","lower","rocket","w","w","g","g",1,0.809097748395288,NA,NA,NA
"experimental",14,5,"hd","lower","uncarled","nw","nw","h","h",1,0.798010442653322,NA,NA,NA
"experimental",14,6,"hd","lower","pegend","nw","nw","h","h",1,1.02067446276487,NA,NA,NA
"experimental",14,7,"hd","lower","listless","w","w","g","g",1,2.40204614707909,NA,NA,NA
"experimental",14,8,"hd","lower","living","w","w","g","g",1,1.39080641051987,NA,NA,NA
"experimental",14,9,"hd","lower","favoting","nw","nw","h","h",1,0.949677613403765,NA,NA,NA
"experimental",14,10,"hd","lower","companion","w","w","g","g",1,0.95123844477348,NA,NA,NA
"experimental",14,11,"hd","lower","teamwork","w","w","g","g",1,0.879189369879896,NA,NA,NA
"experimental",14,12,"hd","lower","strenuous","w","w","g","g",1,0.793460759567097,NA,NA,NA
"experimental",14,13,"hd","lower","frunted","nw","nw","h","h",1,1.47209913264669,NA,NA,NA
"experimental",14,14,"hd","lower","apticle","nw","nw","h","h",1,0.779487228806829,NA,NA,NA
"experimental",14,15,"hd","lower","euphoric","w","w","g","g",1,0.946730114199454,NA,NA,NA
"experimental",14,16,"hd","lower","beartiset","nw","nw","h","h",1,1.37946283986093,NA,NA,NA
"experimental",14,17,"hd","lower","hemoter","nw","nw","h","h",1,0.834615273721283,NA,NA,NA
"experimental",14,18,"hd","lower","demise","w","w","g","g",1,0.719287613828783,NA,NA,NA
"experimental",14,19,"hd","lower","dolphin","target","target","q","q",1,0.736580816490459,1,NA,NA
"experimental",14,20,"hd","lower","moisture","aftertar1","w","g","g",1,0.736256636868347,NA,NA,NA
"experimental",14,21,"hd","lower","unlined","aftertar2","w","g","g",1,1.22489555930952,NA,NA,NA
"experimental",14,22,"hd","lower","unwose","aftertar3","nw","h","h",1,1.40614004689269,NA,NA,NA
"experimental",14,23,"hd","lower","obviously","nw","w","g","g",1,1.092120153,NA,NA,NA
"experimental",14,24,"hd","lower","ifkling","w","nw","h","h",1,0.702771657495759,NA,NA,NA
"experimental",14,25,"hd","lower","dialogues","nw","w","g","g",1,0.704766237584408,NA,NA,NA
"experimental",14,26,"hd","lower","issue","w","w","g","g",1,0.577849306660937,NA,NA,NA
"experimental",14,27,"hd","lower","misobeyed","w","nw","h","g",0,0.698095803920296,NA,NA,NA
"experimental",14,28,"hd","lower","marinate","nw","w","g","g",1,0.754554071972962,NA,NA,NA
"experimental",14,29,"hd","lower","elormity","w","nw","h","h",1,0.906507993800915,NA,NA,NA
"experimental",14,30,"hd","lower","roodies","nw","nw","h","h",1,1.07717679992493,NA,NA,NA
"experimental",15,1,"ld","upper","turntable","w","w","g","g",1,1.24146916769678,NA,NA,NA
"experimental",15,2,"ld","upper","oginous","nw","nw","h","h",1,0.717117662803503,NA,NA,NA
"experimental",15,3,"ld","upper","virulent","w","w","g","g",1,1.15911486289406,NA,NA,NA
"experimental",15,4,"ld","upper","dorte","nw","nw","h","h",1,0.73502300355176,NA,NA,NA
"experimental",15,5,"ld","upper","typical","w","w","g","g",1,0.655641854638816,NA,NA,NA
"experimental",15,6,"ld","upper","fravity","nw","nw","h","h",1,0.707604469542275,NA,NA,NA
"experimental",15,7,"ld","upper","absent","w","w","g","g",1,0.741614354294143,NA,NA,NA
"experimental",15,8,"ld","upper","anonymous","w","w","g","g",1,0.710292383548222,NA,NA,NA
"experimental",15,9,"ld","upper","shillac","nw","nw","h","h",1,0.688214361915016,NA,NA,NA
"experimental",15,10,"ld","upper","aqueduct","w","w","g","h",0,0.873937901269528,NA,NA,NA
"experimental",15,11,"ld","upper","incidonts","nw","nw","h","h",1,0.717177427752176,NA,NA,NA
"experimental",15,12,"ld","upper","suddenly","w","w","g","g",1,0.79050571427797,NA,NA,NA
"experimental",15,13,"ld","upper","collision","w","w","g","g",1,0.653163117967779,NA,NA,NA
"experimental",15,14,"ld","upper","buaint","nw","nw","h","h",1,0.585122823118581,NA,NA,NA
"experimental",15,15,"ld","upper","fivalve","nw","nw","h","h",1,0.775783612290979,NA,NA,NA
"experimental",15,16,"ld","upper","snife","nw","nw","h","g",0,0.887059328582836,NA,NA,NA
"experimental",15,17,"ld","upper","nomma","nw","nw","h","h",1,0.672510967560811,NA,NA,NA
"experimental",15,18,"ld","upper","command","w","w","g","g",1,0.779322422386031,NA,NA,NA
"experimental",15,19,"ld","upper","contund","nw","nw","h","h",1,0.699425121536478,NA,NA,NA
"experimental",15,20,"ld","upper","moral","w","w","g","g",1,0.861959252448287,NA,NA,NA
"experimental",15,21,"ld","upper","surfaced","w","w","g","g",1,0.594010295360931,NA,NA,NA
"experimental",15,22,"ld","upper","rowel","nw","nw","h","h",1,0.880539816527744,NA,NA,NA
"experimental",15,23,"ld","upper","elderly","w","w","g","g",1,0.771864781563636,NA,NA,NA
"experimental",15,24,"ld","upper","gigglod","nw","nw","h","h",1,0.715169264716678,NA,NA,NA
"experimental",15,25,"ld","upper","gensions","nw","nw","h","h",1,1.29315740711172,NA,NA,NA
"experimental",15,26,"ld","upper","iolize","nw","nw","h","h",1,0.943715002111276,NA,NA,NA
"experimental",15,27,"ld","upper","gazes","w","w","g","g",1,0.999358595276135,NA,NA,NA
"experimental",15,28,"ld","upper","chappef","nw","nw","h","h",1,0.973958185131778,NA,NA,NA
"experimental",15,29,"ld","upper","hardest","w","w","g","g",1,0.605288366015884,NA,NA,NA
"experimental",15,30,"ld","upper","trophy","w","w","g","g",1,0.61130591276742,NA,NA,NA
"experimental",16,1,"hd","lower","leather","w","w","g","g",1,0.640963519923389,NA,NA,NA
"experimental",16,2,"hd","lower","afford","w","w","g","g",1,0.694490286463406,NA,NA,NA
"experimental",16,3,"hd","lower","ephically","nw","nw","h","g",0,0.93611187285569,NA,NA,NA
"experimental",16,4,"hd","lower","fraft","nw","nw","h","h",1,0.72075759038853,NA,NA,NA
"experimental",16,5,"hd","lower","illness","w","w","g","g",1,0.592907360158279,NA,NA,NA
"experimental",16,6,"hd","lower","party","w","w","g","g",1,0.5675899569178,NA,NA,NA
"experimental",16,7,"hd","lower","birn","nw","nw","h","h",1,1.07156191206013,NA,NA,NA
"experimental",16,8,"hd","lower","prison","w","w","g","g",1,0.683363137417473,NA,NA,NA
"experimental",16,9,"hd","lower","reloant","nw","nw","h","h",1,0.766616633205558,NA,NA,NA
"experimental",16,10,"hd","lower","submit","w","w","g","g",1,0.558597443232429,NA,NA,NA
"experimental",16,11,"hd","lower","flamingo","target","target","q","q",1,0.925618292763829,1,NA,NA
"experimental",16,12,"hd","lower","epic","aftertar1","w","g","g",1,0.774801414401736,NA,NA,NA
"experimental",16,13,"hd","lower","joses","aftertar2","nw","h","h",1,0.614132674672874,NA,NA,NA
"experimental",16,14,"hd","lower","outfit","aftertar3","w","g","g",1,0.652084632092738,NA,NA,NA
"experimental",16,15,"hd","lower","chining","w","nw","h","g",0,1.63209325274511,NA,NA,NA
"experimental",16,16,"hd","lower","gablus","nw","nw","h","h",1,0.661398910669959,NA,NA,NA
"experimental",16,17,"hd","lower","cessation","nw","w","g","h",0,0.921423275460256,NA,NA,NA
"experimental",16,18,"hd","lower","supplier","w","w","g","g",1,1.2827356656926,NA,NA,NA
"experimental",16,19,"hd","lower","pastnoss","w","nw","h","h",1,0.708963065932039,NA,NA,NA
"experimental",16,20,"hd","lower","cogantly","nw","nw","h","g",0,1.05497019307222,NA,NA,NA
"experimental",16,21,"hd","lower","deadly","nw","w","g","g",1,0.794913229212398,NA,NA,NA
"experimental",16,22,"hd","lower","cabinet","w","w","g","g",1,0.577582175392308,NA,NA,NA
"experimental",16,23,"hd","lower","ebciting","w","nw","h","h",1,0.832853414744022,NA,NA,NA
"experimental",16,24,"hd","lower","forfeit","nw","w","g","g",1,0.686181447716081,NA,NA,NA
"experimental",16,25,"hd","lower","sonnet","w","w","g","g",1,1.07278618821874,NA,NA,NA
"experimental",16,26,"hd","lower","jungle","w","w","g","g",1,0.667186151040369,NA,NA,NA
"experimental",16,27,"hd","lower","naxis","w","nw","h","h",1,0.68588020815514,NA,NA,NA
"experimental",16,28,"hd","lower","eightiech","nw","nw","h","h",1,0.83279606452561,NA,NA,NA
"experimental",16,29,"hd","lower","bluads","nw","nw","h","h",1,0.662807613058249,NA,NA,NA
"experimental",16,30,"hd","lower","pripend","nw","nw","h","h",1,0.931036680674879,NA,NA,NA
"experimental",17,1,"ld","upper","tiery","nw","nw","h","g",0,1.62790819627116,NA,NA,NA
"experimental",17,2,"ld","upper","vopings","nw","nw","h","h",1,0.753249203669839,NA,NA,NA
"experimental",17,3,"ld","upper","orange","w","w","g","g",1,1.36109507527726,NA,NA,NA
"experimental",17,4,"ld","upper","cookbook","w","w","g","g",1,0.6091009479278,NA,NA,NA
"experimental",17,5,"ld","upper","sporidic","nw","nw","h","g",0,1.14302058157045,NA,NA,NA
"experimental",17,6,"ld","upper","rarely","w","w","g","g",1,0.703723369209911,NA,NA,NA
"experimental",17,7,"ld","upper","jinds","nw","nw","h","h",1,0.713666085401201,NA,NA,NA
"experimental",17,8,"ld","upper","trembles","w","w","g","h",0,0.978820879667182,NA,NA,NA
"experimental",17,9,"ld","upper","vintnel","nw","nw","h","h",1,1.90598429577949,NA,NA,NA
"experimental",17,10,"ld","upper","courier","w","w","g","g",1,0.899954071617685,NA,NA,NA
"experimental",17,11,"ld","upper","felevance","nw","nw","h","h",1,1.06257845366781,NA,NA,NA
"experimental",17,12,"ld","upper","dentures","w","w","g","g",1,1.31456141280069,NA,NA,NA
"experimental",17,13,"ld","upper","preserve","w","w","g","g",1,0.803288171635359,NA,NA,NA
"experimental",17,14,"ld","upper","blanned","nw","nw","h","h",1,1.51315102010267,NA,NA,NA
"experimental",17,15,"ld","upper","slears","nw","nw","h","h",1,0.764156610850478,NA,NA,NA
"experimental",17,16,"ld","upper","acoustic","w","w","g","g",1,0.716376033975394,NA,NA,NA
"experimental",17,17,"ld","upper","actual","w","w","g","g",1,0.589325386492419,NA,NA,NA
"experimental",17,18,"ld","upper","currowing","nw","nw","h","h",1,0.867975893663242,NA,NA,NA
"experimental",17,19,"ld","upper","recount","w","w","g","g",1,1.16718403813138,NA,NA,NA
"experimental",17,20,"ld","upper","mortgage","w","w","g","g",1,0.726548452861607,NA,NA,NA
"experimental",17,21,"ld","upper","rualify","nw","nw","h","h",1,0.823883237462724,NA,NA,NA
"experimental",17,22,"ld","upper","decant","w","w","g","g",1,1.23718450295564,NA,NA,NA
"experimental",17,23,"ld","upper","frequency","w","w","g","g",1,1.04978030046914,NA,NA,NA
"experimental",17,24,"ld","upper","urgency","w","w","g","g",1,0.734400904650101,NA,NA,NA
"experimental",17,25,"ld","upper","bloves","nw","nw","h","h",1,0.798113673037733,NA,NA,NA
"experimental",17,26,"ld","upper","ghists","nw","nw","h","h",1,0.652649682626361,NA,NA,NA
"experimental",17,27,"ld","upper","rootsie","nw","nw","h","h",1,0.864738926815335,NA,NA,NA
"experimental",17,28,"ld","upper","blassed","nw","nw","h","h",1,0.964670468776603,NA,NA,NA
"experimental",17,29,"ld","upper","stretches","w","w","g","g",1,0.90866315450694,NA,NA,NA
"experimental",17,30,"ld","upper","snays","nw","nw","h","h",1,0.662620168397552,NA,NA,NA
"experimental",18,1,"hd","lower","clooped","nw","nw","h","h",1,0.793129939367645,NA,NA,NA
"experimental",18,2,"hd","lower","offonents","nw","nw","h","h",1,0.855859302508179,NA,NA,NA
"experimental",18,3,"hd","lower","ameld","nw","nw","h","h",1,0.61254467740946,NA,NA,NA
"experimental",18,4,"hd","lower","pived","nw","nw","h","h",1,0.626765115943272,NA,NA,NA
"experimental",18,5,"hd","lower","gettle","nw","nw","h","h",1,0.888010436625336,NA,NA,NA
"experimental",18,6,"hd","lower","whirling","w","w","g","g",1,1.41057321849803,NA,NA,NA
"experimental",18,7,"hd","lower","sodent","nw","nw","h","h",1,1.04877003114962,NA,NA,NA
"experimental",18,8,"hd","lower","graciap","nw","nw","h","h",1,0.644322733278386,NA,NA,NA
"experimental",18,9,"hd","lower","explosion","w","w","g","g",1,0.760945300658932,NA,NA,NA
"experimental",18,10,"hd","lower","befriend","w","w","g","g",1,0.744901728976402,NA,NA,NA
"experimental",18,11,"hd","lower","robbery","w","w","g","g",1,0.609518397119245,NA,NA,NA
"experimental",18,12,"hd","lower","number","w","w","g","g",1,0.719498904087231,NA,NA,NA
"experimental",18,13,"hd","lower","forecast","w","w","g","g",1,0.704797931131907,NA,NA,NA
"experimental",18,14,"hd","lower","derisury","nw","nw","h","h",1,0.666876761708409,NA,NA,NA
"experimental",18,15,"hd","lower","spigat","nw","nw","h","h",1,0.701829604746308,NA,NA,NA
"experimental",18,16,"hd","lower","potatoes","w","w","g","g",1,0.960731414539623,NA,NA,NA
"experimental",18,17,"hd","lower","wrecber","nw","nw","h","h",1,0.583635339644388,NA,NA,NA
"experimental",18,18,"hd","lower","childhood","w","w","g","g",1,0.615030054614181,NA,NA,NA
"experimental",18,19,"hd","lower","pircus","nw","nw","h","h",1,0.621030094465823,NA,NA,NA
"experimental",18,20,"hd","lower","gymnasium","w","w","g","g",1,0.634367641527206,NA,NA,NA
"experimental",18,21,"hd","lower","despise","w","w","g","g",1,0.822933034956804,NA,NA,NA
"experimental",18,22,"hd","lower","guitar","w","w","g","g",1,0.788322783992044,NA,NA,NA
"experimental",18,23,"hd","lower","anemic","w","w","g","g",1,0.697662357037188,NA,NA,NA
"experimental",18,24,"hd","lower","crundle","nw","nw","h","h",1,0.867494755555526,NA,NA,NA
"experimental",18,25,"hd","lower","telecast","w","w","g","g",1,0.70338198452373,NA,NA,NA
"experimental",18,26,"hd","lower","crocodile","target","target","q","q",1,0.945934757270152,1,NA,NA
"experimental",18,27,"hd","lower","carbled","aftertar1","nw","h","h",1,1.12248558254214,NA,NA,NA
"experimental",18,28,"hd","lower","organize","aftertar2","w","g","g",1,0.699745980891748,NA,NA,NA
"experimental",18,29,"hd","lower","calcify","aftertar3","w","g","g",1,0.750554045414901,NA,NA,NA
"experimental",18,30,"hd","lower","haurded","w","nw","h","h",1,1.27837735122012,NA,NA,NA
"experimental",19,1,"ld","upper","regional","w","w","g","g",1,1.1051757785026,NA,NA,NA
"experimental",19,2,"ld","upper","gerby","nw","nw","h","h",1,0.779175726565882,NA,NA,NA
"experimental",19,3,"ld","upper","arbitrary","w","w","g","g",1,0.682411425703322,NA,NA,NA
"experimental",19,4,"ld","upper","machinery","w","w","g","g",1,0.621766893804306,NA,NA,NA
"experimental",19,5,"ld","upper","divider","w","w","g","g",1,0.651054441128508,NA,NA,NA
"experimental",19,6,"ld","upper","numbled","nw","nw","h","h",1,0.991044625188806,NA,NA,NA
"experimental",19,7,"ld","upper","pregs","nw","nw","h","h",1,0.893716179314652,NA,NA,NA
"experimental",19,8,"ld","upper","goltish","nw","nw","h","h",1,0.59144674075651,NA,NA,NA
"experimental",19,9,"ld","upper","dealer","w","w","g","g",1,0.702043913435773,NA,NA,NA
"experimental",19,10,"ld","upper","flicking","w","w","g","g",1,0.808055181856616,NA,NA,NA
"experimental",19,11,"ld","upper","soluced","nw","nw","h","h",1,0.894021040963707,NA,NA,NA
"experimental",19,12,"ld","upper","defensa","nw","nw","h","h",1,0.727532763659838,NA,NA,NA
"experimental",19,13,"ld","upper","slimped","nw","nw","h","h",1,0.857234198439983,NA,NA,NA
"experimental",19,14,"ld","upper","noblin","nw","nw","h","h",1,0.677846952283289,NA,NA,NA
"experimental",19,15,"ld","upper","atsless","nw","nw","h","h",1,0.641131948432303,NA,NA,NA
"experimental",19,16,"ld","upper","remain","w","w","g","g",1,0.925794871043763,NA,NA,NA
"experimental",19,17,"ld","upper","ensues","w","w","g","g",1,0.622026177137741,NA,NA,NA
"experimental",19,18,"ld","upper","single","w","w","g","g",1,0.643411468554405,NA,NA,NA
"experimental",19,19,"ld","upper","sefine","nw","nw","h","h",1,0.736069795908406,NA,NA,NA
"experimental",19,20,"ld","upper","huffle","nw","nw","h","h",1,0.928681699748267,NA,NA,NA
"experimental",19,21,"ld","upper","olgies","nw","nw","h","h",1,0.617962159813032,NA,NA,NA
"experimental",19,22,"ld","upper","gonesty","nw","nw","h","h",1,0.759287577602663,NA,NA,NA
"experimental",19,23,"ld","upper","fudden","nw","nw","h","h",1,0.791230439892388,NA,NA,NA
"experimental",19,24,"ld","upper","metrol","nw","nw","h","h",1,0.64502723539772,NA,NA,NA
"experimental",19,25,"ld","upper","warmer","w","w","g","g",1,0.785534658032702,NA,NA,NA
"experimental",19,26,"ld","upper","maximized","w","w","g","g",1,0.856168088139384,NA,NA,NA
"experimental",19,27,"ld","upper","encrusted","w","w","g","g",1,0.732101764719118,NA,NA,NA
"experimental",19,28,"ld","upper","airmen","w","w","g","g",1,1.08537606958998,NA,NA,NA
"experimental",19,29,"ld","upper","optional","w","w","g","g",1,0.695988636289258,NA,NA,NA
"experimental",19,30,"ld","upper","sampling","w","w","g","g",1,0.754709521250334,NA,NA,NA
"experimental",20,1,"hd","lower","igiom","nw","nw","h","h",1,0.737068595175515,NA,NA,NA
"experimental",20,2,"hd","lower","markot","nw","nw","h","h",1,0.610441131895641,NA,NA,NA
"experimental",20,3,"hd","lower","buttress","w","w","g","g",1,0.904879247696954,NA,NA,NA
"experimental",20,4,"hd","lower","lutton","nw","nw","h","g",0,0.52274571104499,NA,NA,NA
"experimental",20,5,"hd","lower","dorth","nw","nw","h","h",1,0.604073145150323,NA,NA,NA
"experimental",20,6,"hd","lower","mitten","w","w","g","g",1,0.538024713809136,NA,NA,NA
"experimental",20,7,"hd","lower","record","w","w","g","g",1,0.682695762021467,NA,NA,NA
"experimental",20,8,"hd","lower","phonology","w","w","g","g",1,0.749086483599967,NA,NA,NA
"experimental",20,9,"hd","lower","truthful","w","w","g","g",1,0.653769219192327,NA,NA,NA
"experimental",20,10,"hd","lower","tasher","nw","nw","h","h",1,0.721588866654201,NA,NA,NA
"experimental",20,11,"hd","lower","yellep","nw","nw","h","h",1,0.66691449211794,NA,NA,NA
"experimental",20,12,"hd","lower","erlighten","nw","nw","h","h",1,0.782860025108675,NA,NA,NA
"experimental",20,13,"hd","lower","spaceship","w","w","g","g",1,0.790844684219337,NA,NA,NA
"experimental",20,14,"hd","lower","penalize","w","w","g","g",1,0.701426644023741,NA,NA,NA
"experimental",20,15,"hd","lower","ireology","nw","nw","h","h",1,0.935409483630792,NA,NA,NA
"experimental",20,16,"hd","lower","coster","nw","nw","h","g",0,1.12714091075759,NA,NA,NA
"experimental",20,17,"hd","lower","chesume","nw","nw","h","h",1,0.673389633215265,NA,NA,NA
"experimental",20,18,"hd","lower","exit","w","w","g","g",1,0.763609369052574,NA,NA,NA
"experimental",20,19,"hd","lower","hubris","w","w","g","h",0,0.531684496629168,NA,NA,NA
"experimental",20,20,"hd","lower","fallint","nw","nw","h","h",1,0.725073344976408,NA,NA,NA
"experimental",20,21,"hd","lower","amms","nw","nw","h","h",1,0.990283980238019,NA,NA,NA
"experimental",20,22,"hd","lower","rodeo","w","w","g","g",1,0.94892391085159,NA,NA,NA
"experimental",20,23,"hd","lower","harmful","w","w","g","g",1,0.66053865745198,NA,NA,NA
"experimental",20,24,"hd","lower","emotion","w","w","g","g",1,0.656543158533168,NA,NA,NA
"experimental",20,25,"hd","lower","dreaded","w","w","g","g",1,0.692368026677286,NA,NA,NA
"experimental",20,26,"hd","lower","army","w","w","g","g",1,0.567330673584365,NA,NA,NA
"experimental",20,27,"hd","lower","treenery","nw","nw","h","h",1,0.894410720589804,NA,NA,NA
"experimental",20,28,"hd","lower","colored","w","w","g","g",1,0.72108931611001,NA,NA,NA
"experimental",20,29,"hd","lower","drauns","nw","nw","h","h",1,0.906387860188261,NA,NA,NA
"experimental",20,30,"hd","lower","inforl","nw","nw","h","h",1,0.636396933594369,NA,NA,NA
"experimental",21,1,"ld","upper","jiggling","w","w","g","g",1,1.22449471148138,NA,NA,NA
"experimental",21,2,"ld","upper","knowledge","w","w","g","g",1,0.597809294311446,NA,NA,NA
"experimental",21,3,"ld","upper","efficient","w","w","g","g",1,0.644526779316948,NA,NA,NA
"experimental",21,4,"ld","upper","podges","nw","nw","h","h",1,0.585124030490988,NA,NA,NA
"experimental",21,5,"ld","upper","landing","w","w","g","g",1,0.791759872925468,NA,NA,NA
"experimental",21,6,"ld","upper","worps","nw","nw","h","h",1,0.566423332813429,NA,NA,NA
"experimental",21,7,"ld","upper","senalize","nw","nw","h","h",1,1.47843723691767,NA,NA,NA
"experimental",21,8,"ld","upper","teliever","nw","nw","h","h",1,0.696851606102427,NA,NA,NA
"experimental",21,9,"ld","upper","aefated","nw","nw","h","h",1,0.564352688219515,NA,NA,NA
"experimental",21,10,"ld","upper","rebool","nw","nw","h","h",1,0.683340499177575,NA,NA,NA
"experimental",21,11,"ld","upper","potent","w","w","g","g",1,0.622632580198115,NA,NA,NA
"experimental",21,12,"ld","upper","bloodless","w","w","g","g",1,1.01086938708613,NA,NA,NA
"experimental",21,13,"ld","upper","imotope","nw","nw","h","h",1,0.801135123838321,NA,NA,NA
"experimental",21,14,"ld","upper","alarm","w","w","g","g",1,0.607710054304334,NA,NA,NA
"experimental",21,15,"ld","upper","resonant","w","w","g","g",1,0.645950875710696,NA,NA,NA
"experimental",21,16,"ld","upper","yash","nw","nw","h","h",1,0.682426819694228,NA,NA,NA
"experimental",21,17,"ld","upper","boutique","w","w","g","g",1,0.62901686647092,NA,NA,NA
"experimental",21,18,"ld","upper","permeable","w","w","g","g",1,0.601986804700573,NA,NA,NA
"experimental",21,19,"ld","upper","widely","w","w","g","g",1,0.560001316116541,NA,NA,NA
"experimental",21,20,"ld","upper","crudios","nw","nw","h","h",1,0.864102037594421,NA,NA,NA
"experimental",21,21,"ld","upper","pexts","nw","nw","h","h",1,1.41204319505778,NA,NA,NA
"experimental",21,22,"ld","upper","outflow","w","w","g","g",1,1.35396644356661,NA,NA,NA
"experimental",21,23,"ld","upper","prama","nw","nw","h","h",1,1.11401042816578,NA,NA,NA
"experimental",21,24,"ld","upper","standard","w","w","g","g",1,0.675905194744701,NA,NA,NA
"experimental",21,25,"ld","upper","bulmed","nw","nw","h","h",1,0.734382492213626,NA,NA,NA
"experimental",21,26,"ld","upper","dabble","w","w","g","g",1,1.26288373791613,NA,NA,NA
"experimental",21,27,"ld","upper","staircase","w","w","g","g",1,0.594905260542873,NA,NA,NA
"experimental",21,28,"ld","upper","brank","nw","nw","h","h",1,0.729519495842396,NA,NA,NA
"experimental",21,29,"ld","upper","scrooner","nw","nw","h","h",1,1.09879843461385,NA,NA,NA
"experimental",21,30,"ld","upper","egect","nw","nw","h","h",1,0.797484329901636,NA,NA,NA
"experimental",22,1,"hd","lower","cayward","nw","nw","h","h",1,1.15478824196907,NA,NA,NA
"experimental",22,2,"hd","lower","mantos","nw","nw","h","h",1,0.699617093821871,NA,NA,NA
"experimental",22,3,"hd","lower","plymie","nw","nw","h","h",1,0.59028977563139,NA,NA,NA
"experimental",22,4,"hd","lower","hotplate","w","w","g","h",0,1.25295279361308,NA,NA,NA
"experimental",22,5,"hd","lower","fission","w","w","g","g",1,1.01690293152933,NA,NA,NA
"experimental",22,6,"hd","lower","esdings","nw","nw","h","g",0,0.598892006004462,NA,NA,NA
"experimental",22,7,"hd","lower","trembla","nw","nw","h","h",1,0.757449654134689,NA,NA,NA
"experimental",22,8,"hd","lower","chrik","nw","nw","h","h",1,0.613426059659105,NA,NA,NA
"experimental",22,9,"hd","lower","shivering","w","w","g","g",1,0.842463197841425,NA,NA,NA
"experimental",22,10,"hd","lower","female","w","w","g","g",1,0.791031223343452,NA,NA,NA
"experimental",22,11,"hd","lower","slooch","nw","nw","h","h",1,1.0457256402733,NA,NA,NA
"experimental",22,12,"hd","lower","lindo","nw","nw","h","h",1,0.594354396642302,NA,NA,NA
"experimental",22,13,"hd","lower","twenties","w","w","g","g",1,0.864987343797111,NA,NA,NA
"experimental",22,14,"hd","lower","moozy","nw","nw","h","h",1,3.19697596550395,NA,NA,NA
"experimental",22,15,"hd","lower","nameplate","w","w","g","h",0,1.13866770025925,NA,NA,NA
"experimental",22,16,"hd","lower","usage","w","w","g","g",1,1.17923362011788,NA,NA,NA
"experimental",22,17,"hd","lower","drine","nw","nw","h","h",1,0.722539371010498,NA,NA,NA
"experimental",22,18,"hd","lower","glapula","nw","nw","h","h",1,0.699857662883005,NA,NA,NA
"experimental",22,19,"hd","lower","mamps","nw","nw","h","h",1,0.734467611997388,NA,NA,NA
"experimental",22,20,"hd","lower","holdup","w","w","g","g",1,0.797989917307859,NA,NA,NA
"experimental",22,21,"hd","lower","dialect","w","w","g","g",1,0.708631943911314,NA,NA,NA
"experimental",22,22,"hd","lower","chicken","target","target","q","q",1,0.599320925248321,1,NA,NA
"experimental",22,23,"hd","lower","patio","aftertar1","w","g","g",1,0.709604784671683,NA,NA,NA
"experimental",22,24,"hd","lower","mining","aftertar2","w","g","g",1,0.784421158328769,NA,NA,NA
"experimental",22,25,"hd","lower","tredits","aftertar3","nw","h","h",1,0.662036705427454,NA,NA,NA
"experimental",22,26,"hd","lower","afternoon","nw","w","g","g",1,0.72992547499598,NA,NA,NA
"experimental",22,27,"hd","lower","collute","w","nw","h","g",0,0.691288333429839,NA,NA,NA
"experimental",22,28,"hd","lower","extruded","nw","w","g","g",1,0.741908047770266,NA,NA,NA
"experimental",22,29,"hd","lower","earmaff","w","nw","h","h",1,0.830576007530908,NA,NA,NA
"experimental",22,30,"hd","lower","anterior","nw","w","g","g",1,0.675869275393779,NA,NA,NA
"experimental",23,1,"ld","upper","unbridled","w","w","g","g",1,0.966681348407292,NA,NA,NA
"experimental",23,2,"ld","upper","deeper","w","w","g","g",1,0.53470202346216,NA,NA,NA
"experimental",23,3,"ld","upper","target","w","w","g","g",1,0.639285271521658,NA,NA,NA
"experimental",23,4,"ld","upper","athcan","nw","nw","h","h",1,0.683932111918693,NA,NA,NA
"experimental",23,5,"ld","upper","index","w","w","g","g",1,0.766611501880107,NA,NA,NA
"experimental",23,6,"ld","upper","lawsuit","w","w","g","g",1,0.510590182093438,NA,NA,NA
"experimental",23,7,"ld","upper","undertake","w","w","g","g",1,0.519740861636819,NA,NA,NA
"experimental",23,8,"ld","upper","brimitar","nw","nw","h","h",1,0.537939895846648,NA,NA,NA
"experimental",23,9,"ld","upper","selongs","nw","nw","h","h",1,0.785461913808831,NA,NA,NA
"experimental",23,10,"ld","upper","hanling","nw","nw","h","h",1,0.935001693418599,NA,NA,NA
"experimental",23,11,"ld","upper","ements","nw","nw","h","h",1,0.599962643973413,NA,NA,NA
"experimental",23,12,"ld","upper","fuhrek","nw","nw","h","h",1,0.503336285444675,NA,NA,NA
"experimental",23,13,"ld","upper","binder","w","w","g","g",1,0.721366408179165,NA,NA,NA
"experimental",23,14,"ld","upper","kangaroo","target","target","q","q",1,0.746641855235794,1,NA,NA
"experimental",23,15,"ld","upper","fuestion","aftertar1","nw","h","h",1,0.81136640215118,NA,NA,NA
"experimental",23,16,"ld","upper","fards","aftertar2","nw","h","h",1,0.592370381054934,NA,NA,NA
"experimental",23,17,"ld","upper","elvisages","aftertar3","nw","h","h",1,0.639978605438955,NA,NA,NA
"experimental",23,18,"ld","upper","omission","nw","w","g","g",1,0.659535632381449,NA,NA,NA
"experimental",23,19,"ld","upper","pypecast","w","nw","h","h",1,0.591596756828949,NA,NA,NA
"experimental",23,20,"ld","upper","vinegar","nw","w","g","g",1,0.630196168000111,NA,NA,NA
"experimental",23,21,"ld","upper","unsmilung","w","nw","h","h",1,0.867572329269024,NA,NA,NA
"experimental",23,22,"ld","upper","ebince","nw","nw","h","h",1,0.598732632774045,NA,NA,NA
"experimental",23,23,"ld","upper","gaining","nw","w","g","g",1,0.661419436015422,NA,NA,NA
"experimental",23,24,"ld","upper","burning","w","w","g","g",1,0.777397266225307,NA,NA,NA
"experimental",23,25,"ld","upper","incorrect","w","w","g","g",1,0.624682699446566,NA,NA,NA
"experimental",23,26,"ld","upper","outlaved","w","nw","h","h",1,0.933021601798828,NA,NA,NA
"experimental",23,27,"ld","upper","elpired","nw","nw","h","h",1,0.646296486214851,NA,NA,NA
"experimental",23,28,"ld","upper","chyme","nw","nw","h","h",1,0.706950677078567,NA,NA,NA
"experimental",23,29,"ld","upper","usually","nw","w","g","h",0,1.13292181243014,NA,NA,NA
"experimental",23,30,"ld","upper","stooping","w","w","g","g",1,0.638280737228342,NA,NA,NA
"experimental",24,1,"hd","lower","suburb","w","w","g","g",1,0.659043326057144,NA,NA,NA
"experimental",24,2,"hd","lower","havel","nw","nw","h","h",1,0.694441991552594,NA,NA,NA
"experimental",24,3,"hd","lower","poughest","nw","nw","h","h",1,0.601028754274012,NA,NA,NA
"experimental",24,4,"hd","lower","realize","w","w","g","g",1,0.679081491121906,NA,NA,NA
"experimental",24,5,"hd","lower","phambled","nw","nw","h","h",1,0.610390422225464,NA,NA,NA
"experimental",24,6,"hd","lower","padicals","nw","nw","h","h",1,0.936341575550614,NA,NA,NA
"experimental",24,7,"hd","lower","arrow","w","w","g","g",1,0.680894965276821,NA,NA,NA
"experimental",24,8,"hd","lower","presence","w","w","g","g",1,0.70831772510428,NA,NA,NA
"experimental",24,9,"hd","lower","tablet","w","w","g","g",1,0.726191070469213,NA,NA,NA
"experimental",24,10,"hd","lower","browting","nw","nw","h","h",1,0.670599696197314,NA,NA,NA
"experimental",24,11,"hd","lower","actively","w","w","g","g",1,0.777843692383613,NA,NA,NA
"experimental",24,12,"hd","lower","elbalm","nw","nw","h","h",1,0.553194147461909,NA,NA,NA
"experimental",24,13,"hd","lower","confined","w","w","g","g",1,0.801075660710922,NA,NA,NA
"experimental",24,14,"hd","lower","theles","nw","nw","h","h",1,0.703172203458962,NA,NA,NA
"experimental",24,15,"hd","lower","potter","w","w","g","g",1,0.721029249296407,NA,NA,NA
"experimental",24,16,"hd","lower","welayed","nw","nw","h","h",1,0.506431989677367,NA,NA,NA
"experimental",24,17,"hd","lower","picnic","w","w","g","g",1,0.540346793815843,NA,NA,NA
"experimental",24,18,"hd","lower","caution","w","w","g","g",1,0.844982683338458,NA,NA,NA
"experimental",24,19,"hd","lower","snorls","nw","nw","h","h",1,0.848614159316639,NA,NA,NA
"experimental",24,20,"hd","lower","pillage","w","w","g","h",0,0.797271228570025,NA,NA,NA
"experimental",24,21,"hd","lower","vorm","nw","nw","h","h",1,0.739913769502891,NA,NA,NA
"experimental",24,22,"hd","lower","harfing","nw","nw","h","h",1,0.595597387087764,NA,NA,NA
"experimental",24,23,"hd","lower","porcupine","target","target","q","g",0,0.746076502851793,NA,NA,NA
"experimental",24,24,"hd","lower","removable","aftertar1","w","g","g",1,0.603316424152581,NA,NA,NA
"experimental",24,25,"hd","lower","rearrange","aftertar2","w","g","g",1,0.641888065743842,NA,NA,NA
"experimental",24,26,"hd","lower","distrust","aftertar3","w","g","g",1,0.646441672812216,NA,NA,NA
"experimental",24,27,"hd","lower","gewer","w","nw","h","h",1,0.819055254905834,NA,NA,NA
"experimental",24,28,"hd","lower","sarlock","nw","nw","h","h",1,0.719446383372997,NA,NA,NA
"experimental",24,29,"hd","lower","tinker","nw","w","g","g",1,0.880727864860091,NA,NA,NA
"experimental",24,30,"hd","lower","olerates","w","nw","h","h",1,0.700136867875699,NA,NA,NA
"experimental",25,1,"ld","upper","gigoho","nw","nw","h","h",1,0.703202387783676,NA,NA,NA
"experimental",25,2,"ld","upper","movie","w","w","g","g",1,1.12033585501194,NA,NA,NA
"experimental",25,3,"ld","upper","noblest","w","w","g","g",1,1.47341607468843,NA,NA,NA
"experimental",25,4,"ld","upper","define","w","w","g","g",1,0.668711063059163,NA,NA,NA
"experimental",25,5,"ld","upper","scatter","w","w","g","g",1,0.832020629255567,NA,NA,NA
"experimental",25,6,"ld","upper","overflow","w","w","g","g",1,0.613399195615784,NA,NA,NA
"experimental",25,7,"ld","upper","flacked","nw","nw","h","h",1,0.923349337143009,NA,NA,NA
"experimental",25,8,"ld","upper","lignpost","nw","nw","h","h",1,0.5726310408063,NA,NA,NA
"experimental",25,9,"ld","upper","ottans","nw","nw","h","h",1,0.612010113036376,NA,NA,NA
"experimental",25,10,"ld","upper","mustled","nw","nw","h","g",0,0.889023422510945,NA,NA,NA
"experimental",25,11,"ld","upper","pimorous","nw","nw","h","h",1,0.730417781305732,NA,NA,NA
"experimental",25,12,"ld","upper","pracking","nw","nw","h","h",1,0.83594579869532,NA,NA,NA
"experimental",25,13,"ld","upper","atabaster","nw","nw","h","h",1,0.665366941859247,NA,NA,NA
"experimental",25,14,"ld","upper","assent","w","w","g","g",1,1.20542938717699,NA,NA,NA
"experimental",25,15,"ld","upper","grieving","w","w","g","g",1,0.7154810687789,NA,NA,NA
"experimental",25,16,"ld","upper","maintain","w","w","g","g",1,0.581331068387954,NA,NA,NA
"experimental",25,17,"ld","upper","criminal","w","w","g","g",1,0.628654654603451,NA,NA,NA
"experimental",25,18,"ld","upper","acting","w","w","g","g",1,0.505977111912216,NA,NA,NA
"experimental",25,19,"ld","upper","cemoir","nw","nw","h","h",1,0.707908123833477,NA,NA,NA
"experimental",25,20,"ld","upper","appain","nw","nw","h","h",1,1.08486595452996,NA,NA,NA
"experimental",25,21,"ld","upper","huntry","nw","nw","h","g",0,1.28749784642423,NA,NA,NA
"experimental",25,22,"ld","upper","ready","w","w","g","g",1,0.554130767035531,NA,NA,NA
"experimental",25,23,"ld","upper","upstairs","w","w","g","g",1,0.754091044451343,NA,NA,NA
"experimental",25,24,"ld","upper","finish","w","w","g","g",1,0.554111147226649,NA,NA,NA
"experimental",25,25,"ld","upper","nores","nw","nw","h","h",1,0.778070074797142,NA,NA,NA
"experimental",25,26,"ld","upper","sequence","w","w","g","g",1,0.577420085581252,NA,NA,NA
"experimental",25,27,"ld","upper","dricked","nw","nw","h","h",1,0.799798260137322,NA,NA,NA
"experimental",25,28,"ld","upper","deserve","w","w","g","g",1,0.646350817987695,NA,NA,NA
"experimental",25,29,"ld","upper","pallir","nw","nw","h","h",1,0.602945156977512,NA,NA,NA
"experimental",25,30,"ld","upper","nimp","nw","nw","h","h",1,0.76898248049838,NA,NA,NA
"experimental",26,1,"hd","lower","oldest","w","w","g","g",1,0.775216146997991,NA,NA,NA
"experimental",26,2,"hd","lower","deficit","w","w","g","g",1,0.848133926730952,NA,NA,NA
"experimental",26,3,"hd","lower","minister","w","w","g","g",1,0.979770478486898,NA,NA,NA
"experimental",26,4,"hd","lower","cegalia","nw","nw","h","h",1,0.77107244306535,NA,NA,NA
"experimental",26,5,"hd","lower","bingu","nw","nw","h","h",1,0.626372116035782,NA,NA,NA
"experimental",26,6,"hd","lower","border","w","w","g","g",1,0.711670901611797,NA,NA,NA
"experimental",26,7,"hd","lower","arpired","nw","nw","h","g",0,0.545750693258015,NA,NA,NA
"experimental",26,8,"hd","lower","intended","w","w","g","g",1,0.594377638568403,NA,NA,NA
"experimental",26,9,"hd","lower","dislokes","nw","nw","h","h",1,0.864936634126934,NA,NA,NA
"experimental",26,10,"hd","lower","handbook","w","w","g","g",1,0.72491940492182,NA,NA,NA
"experimental",26,11,"hd","lower","antique","w","w","g","g",1,0.782272034499329,NA,NA,NA
"experimental",26,12,"hd","lower","gaioty","nw","nw","h","h",1,0.652509929219377,NA,NA,NA
"experimental",26,13,"hd","lower","fuack","nw","nw","h","h",1,0.616436040421831,NA,NA,NA
"experimental",26,14,"hd","lower","posing","w","w","g","g",1,0.918406352313468,NA,NA,NA
"experimental",26,15,"hd","lower","dariner","nw","nw","h","h",1,0.839685636397917,NA,NA,NA
"experimental",26,16,"hd","lower","hegacy","nw","nw","h","h",1,0.836419994418975,NA,NA,NA
"experimental",26,17,"hd","lower","admire","w","w","g","g",1,0.617097378941253,NA,NA,NA
"experimental",26,18,"hd","lower","fabstand","nw","nw","h","h",1,0.662382014095783,NA,NA,NA
"experimental",26,19,"hd","lower","spider","target","target","q","g",0,0.618318938519224,NA,NA,NA
"experimental",26,20,"hd","lower","personify","aftertar1","w","g","g",1,0.831620083292364,NA,NA,NA
"experimental",26,21,"hd","lower","acorn","aftertar2","w","g","g",1,0.56393584269972,NA,NA,NA
"experimental",26,22,"hd","lower","cheathe","aftertar3","nw","h","h",1,0.826720262033632,NA,NA,NA
"experimental",26,23,"hd","lower","desert","nw","w","g","g",1,0.688058610801818,NA,NA,NA
"experimental",26,24,"hd","lower","shimble","w","nw","h","h",1,0.587113781104563,NA,NA,NA
"experimental",26,25,"hd","lower","forgive","nw","w","g","g",1,0.666499457671307,NA,NA,NA
"experimental",26,26,"hd","lower","enabled","w","w","g","g",1,0.766469635564135,NA,NA,NA
"experimental",26,27,"hd","lower","shurk","w","nw","h","g",0,0.838460454702727,NA,NA,NA
"experimental",26,28,"hd","lower","ragtam","nw","nw","h","h",1,0.818143084645271,NA,NA,NA
"experimental",26,29,"hd","lower","impirt","nw","nw","h","h",1,0.831293790746713,NA,NA,NA
"experimental",26,30,"hd","lower","chraps","nw","nw","h","h",1,0.56463883559627,NA,NA,NA
"experimental",27,1,"ld","upper","hackal","nw","nw","h","h",1,0.805167145765154,NA,NA,NA
"experimental",27,2,"ld","upper","chone","nw","nw","h","h",1,0.755172548771952,NA,NA,NA
"experimental",27,3,"ld","upper","foster","w","w","g","g",1,0.811114664902561,NA,NA,NA
"experimental",27,4,"ld","upper","gounts","nw","nw","h","h",1,0.600118998758262,NA,NA,NA
"experimental",27,5,"ld","upper","uncounted","w","w","g","g",1,1.13474041792506,NA,NA,NA
"experimental",27,6,"ld","upper","filter","w","w","g","g",1,0.703408546716673,NA,NA,NA
"experimental",27,7,"ld","upper","tyena","nw","nw","h","h",1,0.713352772116195,NA,NA,NA
"experimental",27,8,"ld","upper","slowning","nw","nw","h","h",1,0.827402729599271,NA,NA,NA
"experimental",27,9,"ld","upper","valif","nw","nw","h","h",1,0.584703261018149,NA,NA,NA
"experimental",27,10,"ld","upper","goblet","w","w","g","g",1,1.15134058851982,NA,NA,NA
"experimental",27,11,"ld","upper","pollute","w","w","g","g",1,1.05327745620161,NA,NA,NA
"experimental",27,12,"ld","upper","handle","w","w","g","g",1,0.754101307116798,NA,NA,NA
"experimental",27,13,"ld","upper","intercede","w","w","g","g",1,1.61791416672349,NA,NA,NA
"experimental",27,14,"ld","upper","hostade","nw","nw","h","h",1,0.903538158207084,NA,NA,NA
"experimental",27,15,"ld","upper","rudder","w","w","g","g",1,1.08145784253429,NA,NA,NA
"experimental",27,16,"ld","upper","pepperoni","w","w","g","g",1,0.740533453659737,NA,NA,NA
"experimental",27,17,"ld","upper","sazer","nw","nw","h","h",1,0.669420092832297,NA,NA,NA
"experimental",27,18,"ld","upper","disease","w","w","g","g",1,0.583992118350579,NA,NA,NA
"experimental",27,19,"ld","upper","bropic","nw","nw","h","h",1,0.783384930502507,NA,NA,NA
"experimental",27,20,"ld","upper","monopoly","w","w","g","g",1,0.653825965724536,NA,NA,NA
"experimental",27,21,"ld","upper","frose","nw","nw","h","h",1,1.66556434732047,NA,NA,NA
"experimental",27,22,"ld","upper","gelfry","nw","nw","h","h",1,1.56555704273342,NA,NA,NA
"experimental",27,23,"ld","upper","urgent","w","w","g","g",1,1.12545360707736,NA,NA,NA
"experimental",27,24,"ld","upper","brudent","nw","nw","h","g",0,1.41474288096651,NA,NA,NA
"experimental",27,25,"ld","upper","mineluyer","nw","nw","h","h",1,1.14072596929327,NA,NA,NA
"experimental",27,26,"ld","upper","ignore","w","w","g","g",1,0.772492313655675,NA,NA,NA
"experimental",27,27,"ld","upper","helpful","w","w","g","g",1,0.964699747564737,NA,NA,NA
"experimental",27,28,"ld","upper","outset","w","w","g","g",1,0.643634228865267,NA,NA,NA
"experimental",27,29,"ld","upper","corg","nw","nw","h","h",1,0.736331795837032,NA,NA,NA
"experimental",27,30,"ld","upper","airbis","nw","nw","h","h",1,0.80098058009753,NA,NA,NA
"experimental",28,1,"hd","lower","plunging","w","w","g","g",1,0.773853324804804,NA,NA,NA
"experimental",28,2,"hd","lower","checkout","w","w","g","g",1,0.58205398292921,NA,NA,NA
"experimental",28,3,"hd","lower","seartfelt","nw","nw","h","h",1,0.732425340669579,NA,NA,NA
"experimental",28,4,"hd","lower","showdown","w","w","g","g",1,1.88566571836418,NA,NA,NA
"experimental",28,5,"hd","lower","aicline","nw","nw","h","h",1,1.43233007894014,NA,NA,NA
"experimental",28,6,"hd","lower","spiud","nw","nw","h","h",1,0.717564994469285,NA,NA,NA
"experimental",28,7,"hd","lower","prawls","nw","nw","h","h",1,1.44687047130719,NA,NA,NA
"experimental",28,8,"hd","lower","tharcely","nw","nw","h","h",1,0.699536199841532,NA,NA,NA
"experimental",28,9,"hd","lower","daylight","w","w","g","g",1,0.814179882960161,NA,NA,NA
"experimental",28,10,"hd","lower","gund","nw","nw","h","h",1,0.90706851669529,NA,NA,NA
"experimental",28,11,"hd","lower","ignoble","w","w","g","h",0,0.941082929100958,NA,NA,NA
"experimental",28,12,"hd","lower","elephant","target","target","q","q",1,0.661711620268761,1,NA,NA
"experimental",28,13,"hd","lower","kettle","aftertar1","w","g","g",1,0.921705498883966,NA,NA,NA
"experimental",28,14,"hd","lower","aligning","aftertar2","w","g","g",1,0.618944961388479,NA,NA,NA
"experimental",28,15,"hd","lower","stable","aftertar3","w","g","g",1,0.616254028936964,NA,NA,NA
"experimental",28,16,"hd","lower","misest","w","nw","h","h",1,1.35826589861244,NA,NA,NA
"experimental",28,17,"hd","lower","heaviest","nw","w","g","g",1,0.6302357094537,NA,NA,NA
"experimental",28,18,"hd","lower","volder","w","nw","h","h",1,0.825314276255085,NA,NA,NA
"experimental",28,19,"hd","lower","entertain","nw","w","g","g",1,0.798635559985996,NA,NA,NA
"experimental",28,20,"hd","lower","tuckel","w","nw","h","h",1,0.885971183713991,NA,NA,NA
"experimental",28,21,"hd","lower","design","nw","w","g","g",1,0.889108844145085,NA,NA,NA
"experimental",28,22,"hd","lower","triplet","w","w","g","g",1,0.667781687734532,NA,NA,NA
"experimental",28,23,"hd","lower","warden","w","w","g","g",1,2.19898684514919,NA,NA,NA
"experimental",28,24,"hd","lower","topefuls","w","nw","h","h",1,0.725770300996373,NA,NA,NA
"experimental",28,25,"hd","lower","contusiok","nw","nw","h","h",1,0.685946311830776,NA,NA,NA
"experimental",28,26,"hd","lower","seighing","nw","nw","h","h",1,0.864562650371226,NA,NA,NA
"experimental",28,27,"hd","lower","resent","nw","w","g","g",1,0.844494602817576,NA,NA,NA
"experimental",28,28,"hd","lower","nearsipe","w","nw","h","h",1,1.06507318801596,NA,NA,NA
"experimental",28,29,"hd","lower","vaporize","nw","w","g","g",1,1.84509285612148,NA,NA,NA
"experimental",28,30,"hd","lower","temelity","w","nw","h","h",1,4.54487806448014,NA,NA,NA
"experimental",29,1,"ld","upper","comment","w","w","g","g",1,1.22589375489042,NA,NA,NA
"experimental",29,2,"ld","upper","neally","nw","nw","h","h",1,0.935241356957704,NA,NA,NA
"experimental",29,3,"ld","upper","accessory","w","w","g","g",1,0.742672314838273,NA,NA,NA
"experimental",29,4,"ld","upper","fragment","w","w","g","g",1,0.750760808034102,NA,NA,NA
"experimental",29,5,"ld","upper","plogging","nw","nw","h","h",1,0.792358729901025,NA,NA,NA
"experimental",29,6,"ld","upper","puggers","nw","nw","h","h",1,0.862123757018708,NA,NA,NA
"experimental",29,7,"ld","upper","calming","w","w","g","g",1,1.53001711459365,NA,NA,NA
"experimental",29,8,"ld","upper","maroon","w","w","g","g",1,0.835108485567616,NA,NA,NA
"experimental",29,9,"ld","upper","manage","w","w","g","g",1,0.535686032410013,NA,NA,NA
"experimental",29,10,"ld","upper","etcess","nw","nw","h","h",1,0.744334867384168,NA,NA,NA
"experimental",29,11,"ld","upper","borrent","nw","nw","h","h",1,0.976990502284025,NA,NA,NA
"experimental",29,12,"ld","upper","railroad","w","w","g","g",1,0.743402171778143,NA,NA,NA
"experimental",29,13,"ld","upper","comply","w","w","g","g",1,0.61688005180622,NA,NA,NA
"experimental",29,14,"ld","upper","sustain","w","w","g","g",1,0.589930280330009,NA,NA,NA
"experimental",29,15,"ld","upper","hutting","nw","nw","h","g",0,0.556486653484171,NA,NA,NA
"experimental",29,16,"ld","upper","itfidels","nw","nw","h","h",1,0.71650039339147,NA,NA,NA
"experimental",29,17,"ld","upper","harder","w","w","g","g",1,0.718475051835412,NA,NA,NA
"experimental",29,18,"ld","upper","lentils","w","w","g","g",1,0.967758928760304,NA,NA,NA
"experimental",29,19,"ld","upper","halter","w","w","g","g",1,1.11909769405611,NA,NA,NA
"experimental",29,20,"ld","upper","tinion","nw","nw","h","h",1,0.752411890527583,NA,NA,NA
"experimental",29,21,"ld","upper","pigned","nw","nw","h","h",1,0.807475944675389,NA,NA,NA
"experimental",29,22,"ld","upper","planofoad","nw","nw","h","h",1,0.758405893517192,NA,NA,NA
"experimental",29,23,"ld","upper","capobly","nw","nw","h","h",1,1.08533441521286,NA,NA,NA
"experimental",29,24,"ld","upper","attract","w","w","g","g",1,0.846771104508662,NA,NA,NA
"experimental",29,25,"ld","upper","fisco","nw","nw","h","g",0,1.07545146399934,NA,NA,NA
"experimental",29,26,"ld","upper","provide","w","w","g","g",1,1.16749403113499,NA,NA,NA
"experimental",29,27,"ld","upper","sording","nw","nw","h","h",1,1.11920665946673,NA,NA,NA
"experimental",29,28,"ld","upper","scack","nw","nw","h","g",0,0.984427014089306,NA,NA,NA
"experimental",29,29,"ld","upper","dishwater","w","w","g","g",1,0.718192828411702,NA,NA,NA
"experimental",29,30,"ld","upper","baladroit","nw","nw","h","h",1,2.12745633695158,NA,NA,NA
"experimental",30,1,"hd","lower","refebs","nw","nw","h","h",1,0.761298759083729,NA,NA,NA
"experimental",30,2,"hd","lower","downtrund","nw","nw","h","h",1,0.993244156852597,NA,NA,NA
"experimental",30,3,"hd","lower","embrace","w","w","g","g",1,0.69590834598057,NA,NA,NA
"experimental",30,4,"hd","lower","clume","nw","nw","h","h",1,0.817550264531747,NA,NA,NA
"experimental",30,5,"hd","lower","regards","w","w","g","g",1,0.87073504269938,NA,NA,NA
"experimental",30,6,"hd","lower","tining","nw","nw","h","h",1,0.81812346483639,NA,NA,NA
"experimental",30,7,"hd","lower","bettled","nw","nw","h","h",1,0.844203625951195,NA,NA,NA
"experimental",30,8,"hd","lower","rangel","nw","nw","h","h",1,0.640760681257234,NA,NA,NA
"experimental",30,9,"hd","lower","rejoiced","w","w","g","g",1,0.82144675886957,NA,NA,NA
"experimental",30,10,"hd","lower","statute","w","w","g","g",1,0.70665124860534,NA,NA,NA
"experimental",30,11,"hd","lower","ahead","w","w","g","g",1,0.683626344718505,NA,NA,NA
"experimental",30,12,"hd","lower","sputter","w","w","g","g",1,0.950940827344311,NA,NA,NA
"experimental",30,13,"hd","lower","irfirm","nw","nw","h","h",1,0.997839418283547,NA,NA,NA
"experimental",30,14,"hd","lower","kilotin","nw","nw","h","h",1,0.612966352404328,NA,NA,NA
"experimental",30,15,"hd","lower","chiffol","nw","nw","h","h",1,0.730896806519013,NA,NA,NA
"experimental",30,16,"hd","lower","ounside","nw","nw","h","h",1,0.748282976899645,NA,NA,NA
"experimental",30,17,"hd","lower","season","w","w","g","g",1,0.828772494205623,NA,NA,NA
"experimental",30,18,"hd","lower","cartles","nw","nw","h","h",1,0.986104356954456,NA,NA,NA
"experimental",30,19,"hd","lower","lonnote","nw","nw","h","h",1,0.680846066665254,NA,NA,NA
"experimental",30,20,"hd","lower","priant","nw","nw","h","h",1,0.68318716280919,NA,NA,NA
"experimental",30,21,"hd","lower","brighten","w","w","g","g",1,1.46239517445792,NA,NA,NA
"experimental",30,22,"hd","lower","forgery","w","w","g","g",1,1.13035886149737,NA,NA,NA
"experimental",30,23,"hd","lower","contact","w","w","g","g",1,2.00366408719856,NA,NA,NA
"experimental",30,24,"hd","lower","fillings","w","w","g","g",1,1.48961388824682,NA,NA,NA
"experimental",30,25,"hd","lower","solidity","w","w","g","g",1,1.99627526663244,NA,NA,NA
"experimental",30,26,"hd","lower","sonkers","nw","nw","h","h",1,1.48286950298643,NA,NA,NA
"experimental",30,27,"hd","lower","antwers","nw","nw","h","h",1,1.06908619383466,NA,NA,NA
"experimental",30,28,"hd","lower","unspoken","w","w","g","g",1,0.920491183554986,NA,NA,NA
"experimental",30,29,"hd","lower","laser","w","w","g","g",1,0.83386579695798,NA,NA,NA
"experimental",30,30,"hd","lower","bamboo","w","w","g","g",1,0.894419172196649,NA,NA,NA
"experimental",31,1,"ld","upper","axis","w","w","g","g",1,0.631899469386553,NA,NA,NA
"experimental",31,2,"ld","upper","permute","w","w","g","g",1,1.32524062649463,NA,NA,NA
"experimental",31,3,"ld","upper","tucker","w","w","g","h",0,0.80645843113598,NA,NA,NA
"experimental",31,4,"ld","upper","smallash","nw","nw","h","h",1,0.860435245966073,NA,NA,NA
"experimental",31,5,"ld","upper","retona","nw","nw","h","g",0,1.66440406192851,NA,NA,NA
"experimental",31,6,"ld","upper","slogan","w","w","g","g",1,0.732345050375443,NA,NA,NA
"experimental",31,7,"ld","upper","standard","w","w","g","g",1,0.55761856562458,NA,NA,NA
"experimental",31,8,"ld","upper","correct","w","w","g","g",1,0.53273521293886,NA,NA,NA
"experimental",31,9,"ld","upper","ounwit","nw","nw","h","h",1,0.750017971833586,NA,NA,NA
"experimental",31,10,"ld","upper","fatho","nw","nw","h","h",1,0.646536451589782,NA,NA,NA
"experimental",31,11,"ld","upper","classify","w","w","g","g",1,0.763253495882964,NA,NA,NA
"experimental",31,12,"ld","upper","gures","nw","nw","h","h",1,0.747201472593588,NA,NA,NA
"experimental",31,13,"ld","upper","peags","nw","nw","h","h",1,0.667815494176466,NA,NA,NA
"experimental",31,14,"ld","upper","garment","w","w","g","g",1,0.743154962183326,NA,NA,NA
"experimental",31,15,"ld","upper","miteous","nw","nw","h","h",1,0.607768008194398,NA,NA,NA
"experimental",31,16,"ld","upper","gelented","nw","nw","h","h",1,0.661794928993913,NA,NA,NA
"experimental",31,17,"ld","upper","profats","nw","nw","h","h",1,0.561790340972948,NA,NA,NA
"experimental",31,18,"ld","upper","inverted","w","w","g","g",1,0.777739556448068,NA,NA,NA
"experimental",31,19,"ld","upper","farochial","nw","nw","h","h",1,0.726706015033415,NA,NA,NA
"experimental",31,20,"ld","upper","fullity","nw","nw","h","h",1,1.28827690382604,NA,NA,NA
"experimental",31,21,"ld","upper","located","w","w","g","g",1,0.867834329197649,NA,NA,NA
"experimental",31,22,"ld","upper","tusied","nw","nw","h","h",1,0.750602038489887,NA,NA,NA
"experimental",31,23,"ld","upper","ganter","nw","nw","h","h",1,0.590557510586223,NA,NA,NA
"experimental",31,24,"ld","upper","addition","w","w","g","g",1,0.757133926119423,NA,NA,NA
"experimental",31,25,"ld","upper","exclusion","w","w","g","g",1,0.684238482790533,NA,NA,NA
"experimental",31,26,"ld","upper","butcher","w","w","g","g",1,0.65504360133491,NA,NA,NA
"experimental",31,27,"ld","upper","seldom","w","w","g","g",1,0.586058537155623,NA,NA,NA
"experimental",31,28,"ld","upper","forbid","w","w","g","g",1,0.704657875874545,NA,NA,NA
"experimental",31,29,"ld","upper","guffy","nw","nw","h","h",1,0.770607604485122,NA,NA,NA
"experimental",31,30,"ld","upper","bengths","nw","nw","h","h",1,0.770016293579829,NA,NA,NA
"experimental",32,1,"hd","lower","veirs","nw","nw","h","h",1,1.15300555581052,NA,NA,NA
"experimental",32,2,"hd","lower","nauling","nw","nw","h","h",1,0.744789141448564,NA,NA,NA
"experimental",32,3,"hd","lower","leuter","nw","nw","h","h",1,0.52945689354965,NA,NA,NA
"experimental",32,4,"hd","lower","pariah","w","w","g","g",1,1.57077198830666,NA,NA,NA
"experimental",32,5,"hd","lower","derived","w","w","g","g",1,1.76209260679025,NA,NA,NA
"experimental",32,6,"hd","lower","catacomb","w","w","g","h",0,1.13006788463099,NA,NA,NA
"experimental",32,7,"hd","lower","ezulated","nw","nw","h","h",1,0.665980890989886,NA,NA,NA
"experimental",32,8,"hd","lower","ifling","nw","nw","h","h",1,0.750510579993716,NA,NA,NA
"experimental",32,9,"hd","lower","unmarked","w","w","g","g",1,0.622318059540703,NA,NA,NA
"experimental",32,10,"hd","lower","bookend","w","w","g","g",1,0.723522776272148,NA,NA,NA
"experimental",32,11,"hd","lower","oleandur","nw","nw","h","h",1,0.740852501970949,NA,NA,NA
"experimental",32,12,"hd","lower","hecture","nw","nw","h","h",1,1.06141152771306,NA,NA,NA
"experimental",32,13,"hd","lower","butterfly","target","target","q","q",1,0.921413616466452,1,NA,NA
"experimental",32,14,"hd","lower","pretzel","aftertar1","w","g","g",1,0.794710390560795,NA,NA,NA
"experimental",32,15,"hd","lower","alchemist","aftertar2","w","g","g",1,0.761412855819799,NA,NA,NA
"experimental",32,16,"hd","lower","sunhess","aftertar3","nw","h","h",1,0.864390599715989,NA,NA,NA
"experimental",32,17,"hd","lower","owner","nw","w","g","g",1,0.757276396121597,NA,NA,NA
"experimental",32,18,"hd","lower","couple","w","w","g","g",1,1.12422208666976,NA,NA,NA
"experimental",32,19,"hd","lower","tenpince","w","nw","h","h",1,0.733523446368054,NA,NA,NA
"experimental",32,20,"hd","lower","stifle","nw","w","g","g",1,1.00685245729983,NA,NA,NA
"experimental",32,21,"hd","lower","larger","w","w","g","g",1,0.628812518611085,NA,NA,NA
"experimental",32,22,"hd","lower","rationale","w","w","g","g",1,0.658105499125668,NA,NA,NA
"experimental",32,23,"hd","lower","atble","w","nw","h","h",1,1.39011609501904,NA,NA,NA
"experimental",32,24,"hd","lower","antonym","nw","w","g","g",1,0.643866648155381,NA,NA,NA
"experimental",32,25,"hd","lower","elalt","w","nw","h","h",1,0.689392154206871,NA,NA,NA
"experimental",32,26,"hd","lower","epthuse","nw","nw","h","h",1,0.71502800208691,NA,NA,NA
"experimental",32,27,"hd","lower","ilcurring","nw","nw","h","h",1,0.50902482305537,NA,NA,NA
"experimental",32,28,"hd","lower","overcoat","nw","w","g","g",1,0.599073715638951,NA,NA,NA
"experimental",32,29,"hd","lower","huzzles","w","nw","h","h",1,0.75637901618029,NA,NA,NA
"experimental",32,30,"hd","lower","scarlet","nw","w","g","g",1,0.900796516085393,NA,NA,NA
"experimental",33,1,"ld","upper","frigs","nw","nw","h","h",1,0.686537019049865,NA,NA,NA
"experimental",33,2,"ld","upper","disperse","w","w","g","g",1,0.833103944634786,NA,NA,NA
"experimental",33,3,"ld","upper","venturous","w","w","g","g",1,1.0704523363238,NA,NA,NA
"experimental",33,4,"ld","upper","pleamed","nw","nw","h","h",1,1.10569102488807,NA,NA,NA
"experimental",33,5,"ld","upper","gontracts","nw","nw","h","h",1,0.707688080117805,NA,NA,NA
"experimental",33,6,"ld","upper","legalosm","nw","nw","h","h",1,0.597649317394826,NA,NA,NA
"experimental",33,7,"ld","upper","subpoena","w","w","g","g",1,0.932231376209529,NA,NA,NA
"experimental",33,8,"ld","upper","peanimate","nw","nw","h","h",1,1.35757679051312,NA,NA,NA
"experimental",33,9,"ld","upper","insertion","w","w","g","g",1,0.676425874320557,NA,NA,NA
"experimental",33,10,"ld","upper","paranoid","w","w","g","g",1,0.63975795803708,NA,NA,NA
"experimental",33,11,"ld","upper","exploit","w","w","g","g",1,0.628432799814618,NA,NA,NA
"experimental",33,12,"ld","upper","sength","nw","nw","h","h",1,0.729740445094649,NA,NA,NA
"experimental",33,13,"ld","upper","slutches","nw","nw","h","h",1,0.691052292022505,NA,NA,NA
"experimental",33,14,"ld","upper","revising","w","w","g","g",1,0.621675133457757,NA,NA,NA
"experimental",33,15,"ld","upper","recollect","w","w","g","g",1,0.618990841554478,NA,NA,NA
"experimental",33,16,"ld","upper","rander","nw","nw","h","h",1,1.16671286083874,NA,NA,NA
"experimental",33,17,"ld","upper","metebing","nw","nw","h","h",1,0.630441868386697,NA,NA,NA
"experimental",33,18,"ld","upper","talent","w","w","g","g",1,0.754937111050822,NA,NA,NA
"experimental",33,19,"ld","upper","minimum","w","w","g","g",1,0.659773484847392,NA,NA,NA
"experimental",33,20,"ld","upper","inside","w","w","g","g",1,0.471870637309621,NA,NA,NA
"experimental",33,21,"ld","upper","trooper","w","w","g","g",1,0.755109765377711,NA,NA,NA
"experimental",33,22,"ld","upper","bentler","nw","nw","h","h",1,1.13917902269168,NA,NA,NA
"experimental",33,23,"ld","upper","jaguar","target","target","q","g",0,0.723760025051888,NA,NA,NA
"experimental",33,24,"ld","upper","ronic","aftertar1","nw","h","h",1,0.821066738237278,NA,NA,NA
"experimental",33,25,"ld","upper","intersect","aftertar2","w","g","g",1,1.09844799460552,NA,NA,NA
"experimental",33,26,"ld","upper","racile","aftertar3","nw","h","h",1,0.660005300451303,NA,NA,NA
"experimental",33,27,"ld","upper","rantho","nw","nw","h","h",1,0.608014915967942,NA,NA,NA
"experimental",33,28,"ld","upper","alticles","nw","nw","h","h",1,0.805952541879378,NA,NA,NA
"experimental",33,29,"ld","upper","crimb","nw","nw","h","h",1,0.843968791916268,NA,NA,NA
"experimental",33,30,"ld","upper","restock","nw","w","g","g",1,1.16060898691649,NA,NA,NA
"experimental",34,1,"hd","lower","duries","nw","nw","h","h",1,0.672088387029362,NA,NA,NA
"experimental",34,2,"hd","lower","stranded","w","w","g","g",1,1.29951181091019,NA,NA,NA
"experimental",34,3,"hd","lower","brongs","nw","nw","h","h",1,0.654093096993165,NA,NA,NA
"experimental",34,4,"hd","lower","triangle","w","w","g","g",1,0.722047064686194,NA,NA,NA
"experimental",34,5,"hd","lower","beggarlan","nw","nw","h","h",1,0.618342180445325,NA,NA,NA
"experimental",34,6,"hd","lower","heuls","nw","nw","h","h",1,0.52688700024737,NA,NA,NA
"experimental",34,7,"hd","lower","halents","nw","nw","h","h",1,0.624804342282005,NA,NA,NA
"experimental",34,8,"hd","lower","unamufed","nw","nw","h","h",1,1.02283535848255,NA,NA,NA
"experimental",34,9,"hd","lower","humanize","w","w","g","g",1,1.33098621248791,NA,NA,NA
"experimental",34,10,"hd","lower","latter","w","w","g","g",1,0.860186527119367,NA,NA,NA
"experimental",34,11,"hd","lower","glates","nw","nw","h","h",1,0.664151720979135,NA,NA,NA
"experimental",34,12,"hd","lower","bureaug","nw","nw","h","h",1,0.58812344672333,NA,NA,NA
"experimental",34,13,"hd","lower","century","w","w","g","g",1,1.20284651459951,NA,NA,NA
"experimental",34,14,"hd","lower","houted","nw","nw","h","h",1,0.792760785087012,NA,NA,NA
"experimental",34,15,"hd","lower","oalis","nw","nw","h","h",1,1.06337803640054,NA,NA,NA
"experimental",34,16,"hd","lower","demon","w","w","g","g",1,1.0593873669859,NA,NA,NA
"experimental",34,17,"hd","lower","giraffe","target","target","q","q",1,0.806370594757027,1,NA,NA
"experimental",34,18,"hd","lower","miracle","aftertar1","w","g","g",1,0.644307641123305,NA,NA,NA
"experimental",34,19,"hd","lower","carony","aftertar2","nw","h","h",1,0.688997343269875,NA,NA,NA
"experimental",34,20,"hd","lower","sheerio","aftertar3","nw","h","h",1,0.55564903850609,NA,NA,NA
"experimental",34,21,"hd","lower","threaded","nw","w","g","g",1,0.835576040743035,NA,NA,NA
"experimental",34,22,"hd","lower","decantel","w","nw","h","h",1,0.656187285363558,NA,NA,NA
"experimental",34,23,"hd","lower","castaway","nw","w","g","g",1,0.780216180210118,NA,NA,NA
"experimental",34,24,"hd","lower","preclude","w","w","g","g",1,0.65857818564109,NA,NA,NA
"experimental",34,25,"hd","lower","hivinity","w","nw","h","h",1,0.655497271727654,NA,NA,NA
"experimental",34,26,"hd","lower","buzzer","nw","w","g","g",1,0.698323393720784,NA,NA,NA
"experimental",34,27,"hd","lower","paterways","w","nw","h","h",1,0.835917727279593,NA,NA,NA
"experimental",34,28,"hd","lower","melodic","nw","w","g","g",1,1.15250298682076,NA,NA,NA
"experimental",34,29,"hd","lower","charcoal","w","w","g","g",1,0.761269782131421,NA,NA,NA
"experimental",34,30,"hd","lower","turning","w","w","g","g",1,0.713664274342591,NA,NA,NA
"experimental",35,1,"ld","upper","baseline","w","w","g","g",1,0.69069490963011,NA,NA,NA
"experimental",35,2,"ld","upper","glating","nw","nw","h","h",1,0.829779745079577,NA,NA,NA
"experimental",35,3,"ld","upper","engineer","w","w","g","g",1,0.659022800726234,NA,NA,NA
"experimental",35,4,"ld","upper","swatches","w","w","g","h",0,1.34299746036413,NA,NA,NA
"experimental",35,5,"ld","upper","facienda","nw","nw","h","h",1,0.951658006859361,NA,NA,NA
"experimental",35,6,"ld","upper","region","w","w","g","g",1,1.30291720629612,NA,NA,NA
"experimental",35,7,"ld","upper","measure","w","w","g","g",1,0.552904076117557,NA,NA,NA
"experimental",35,8,"ld","upper","gepealed","nw","nw","h","h",1,0.591903429565718,NA,NA,NA
"experimental",35,9,"ld","upper","pranny","nw","nw","h","h",1,0.686524039789219,NA,NA,NA
"experimental",35,10,"ld","upper","hangar","w","w","g","g",1,0.753164989408106,NA,NA,NA
"experimental",35,11,"ld","upper","ralliep","nw","nw","h","h",1,0.745125998510048,NA,NA,NA
"experimental",35,12,"ld","upper","midday","w","w","g","h",0,0.713790444802726,NA,NA,NA
"experimental",35,13,"ld","upper","noils","nw","nw","h","h",1,0.571744527216651,NA,NA,NA
"experimental",35,14,"ld","upper","result","w","w","g","g",1,0.731073082963121,NA,NA,NA
"experimental",35,15,"ld","upper","advantage","w","w","g","g",1,0.548437399920658,NA,NA,NA
"experimental",35,16,"ld","upper","destroy","w","w","g","g",1,0.578997216478456,NA,NA,NA
"experimental",35,17,"ld","upper","tunneg","nw","nw","h","h",1,0.643447689755703,NA,NA,NA
"experimental",35,18,"ld","upper","professor","w","w","g","g",1,0.743799095638678,NA,NA,NA
"experimental",35,19,"ld","upper","funtair","nw","nw","h","h",1,0.680615156597923,NA,NA,NA
"experimental",35,20,"ld","upper","unstatle","nw","nw","h","h",1,0.931926514531369,NA,NA,NA
"experimental",35,21,"ld","upper","abstain","w","w","g","g",1,0.709202427620767,NA,NA,NA
"experimental",35,22,"ld","upper","nelvet","nw","nw","h","h",1,0.55112923787965,NA,NA,NA
"experimental",35,23,"ld","upper","ubefully","nw","nw","h","h",1,0.75057577813277,NA,NA,NA
"experimental",35,24,"ld","upper","rillains","nw","nw","h","h",1,0.69376012768771,NA,NA,NA
"experimental",35,25,"ld","upper","colicky","w","w","g","h",0,0.632396303350106,NA,NA,NA
"experimental",35,26,"ld","upper","cobalt","w","w","g","h",0,0.605653898179298,NA,NA,NA
"experimental",35,27,"ld","upper","category","w","w","g","g",1,0.81868972274242,NA,NA,NA
"experimental",35,28,"ld","upper","greft","nw","nw","h","h",1,0.48795043019345,NA,NA,NA
"experimental",35,29,"ld","upper","veranpah","nw","nw","h","h",1,0.554590474275756,NA,NA,NA
"experimental",35,30,"ld","upper","pender","nw","nw","h","h",1,0.786611936535337,NA,NA,NA
"experimental",36,1,"hd","lower","saturate","w","w","g","g",1,1.11384320701472,NA,NA,NA
"experimental",36,2,"hd","lower","otiates","nw","nw","h","h",1,0.77875978659722,NA,NA,NA
"experimental",36,3,"hd","lower","envelop","w","w","g","g",1,0.650091259376495,NA,NA,NA
"experimental",36,4,"hd","lower","lancos","nw","nw","h","h",1,0.550743180399877,NA,NA,NA
"experimental",36,5,"hd","lower","parent","w","w","g","g",1,0.790213831875008,NA,NA,NA
"experimental",36,6,"hd","lower","terrify","w","w","g","g",1,0.804940159665421,NA,NA,NA
"experimental",36,7,"hd","lower","managed","w","w","g","g",1,0.715555020375177,NA,NA,NA
"experimental",36,8,"hd","lower","undue","w","w","g","g",1,0.830001599853858,NA,NA,NA
"experimental",36,9,"hd","lower","moyeur","nw","nw","h","h",1,1.39523445078521,NA,NA,NA
"experimental",36,10,"hd","lower","giving","w","w","g","g",1,1.08084751552087,NA,NA,NA
"experimental",36,11,"hd","lower","skiing","w","w","g","g",1,0.876213195588207,NA,NA,NA
"experimental",36,12,"hd","lower","etuip","nw","nw","h","h",1,0.607437489859876,NA,NA,NA
"experimental",36,13,"hd","lower","lizard","target","target","q","q",1,0.725415031512966,1,NA,NA
"experimental",36,14,"hd","lower","puyer","aftertar1","nw","h","h",1,0.64669642849185,NA,NA,NA
"experimental",36,15,"hd","lower","dusmy","aftertar2","nw","h","h",1,0.691405146761099,NA,NA,NA
"experimental",36,16,"hd","lower","pamine","aftertar3","nw","h","h",1,0.630028645013226,NA,NA,NA
"experimental",36,17,"hd","lower","joadbed","nw","nw","h","h",1,0.55533451786323,NA,NA,NA
"experimental",36,18,"hd","lower","mitro","nw","nw","h","h",1,1.49828312783211,NA,NA,NA
"experimental",36,19,"hd","lower","galashes","nw","nw","h","h",1,0.684951134680887,NA,NA,NA
"experimental",36,20,"hd","lower","gestalion","nw","nw","h","h",1,1.38291381357703,NA,NA,NA
"experimental",36,21,"hd","lower","erony","nw","nw","h","h",1,0.590197411598638,NA,NA,NA
"experimental",36,22,"hd","lower","neliefs","nw","nw","h","h",1,0.564830807881663,NA,NA,NA
"experimental",36,23,"hd","lower","decency","nw","w","g","g",1,1.03684511044412,NA,NA,NA
"experimental",36,24,"hd","lower","matter","w","w","g","g",1,0.585449719350436,NA,NA,NA
"experimental",36,25,"hd","lower","perishing","w","w","g","g",1,0.624106480710907,NA,NA,NA
"experimental",36,26,"hd","lower","integral","w","w","g","g",1,0.757384154159809,NA,NA,NA
"experimental",36,27,"hd","lower","infancy","w","w","g","g",1,0.579219674953492,NA,NA,NA
"experimental",36,28,"hd","lower","reses","w","nw","h","h",1,0.730596472494653,NA,NA,NA
"experimental",36,29,"hd","lower","require","nw","w","g","g",1,0.6199416477466,NA,NA,NA
"experimental",36,30,"hd","lower","troven","w","nw","h","h",1,1.08235220405913,NA,NA,NA
"experimental",37,1,"ld","upper","entropy","w","w","g","g",1,1.49315903705428,NA,NA,NA
"experimental",37,2,"ld","upper","sopes","nw","nw","h","h",1,0.519809380057268,NA,NA,NA
"experimental",37,3,"ld","upper","religious","w","w","g","g",1,0.657102172204759,NA,NA,NA
"experimental",37,4,"ld","upper","setwixt","nw","nw","h","h",1,0.613095843160409,NA,NA,NA
"experimental",37,5,"ld","upper","porghum","nw","nw","h","h",1,0.587078163589467,NA,NA,NA
"experimental",37,6,"ld","upper","glamorous","w","w","g","g",1,0.849666082984186,NA,NA,NA
"experimental",37,7,"ld","upper","dileting","nw","nw","h","h",1,0.542357673461083,NA,NA,NA
"experimental",37,8,"ld","upper","blueberry","w","w","g","g",1,1.87095569010125,NA,NA,NA
