demoRace_loop.thisRepN,demoRace_loop.thisTrialN,demoRace_loop.thisN,demoRace_loop.thisIndex,LDTunderstand.thisRepN,LDTunderstand.thisTrialN,LDTunderstand.thisN,LDTunderstand.thisIndex,pracBlocks.thisRepN,pracBlocks.thisTrialN,pracBlocks.thisN,pracBlocks.thisIndex,pracTrial.thisRepN,pracTrial.thisTrialN,pracTrial.thisN,pracTrial.thisIndex,PMunderstand.thisRepN,PMunderstand.thisTrialN,PMunderstand.thisN,PMunderstand.thisIndex,LDT_block.thisRepN,LDT_block.thisTrialN,LDT_block.thisN,LDT_block.thisIndex,LDT_trial.thisRepN,LDT_trial.thisTrialN,LDT_trial.thisN,LDT_trial.thisIndex,ageTextbox.text,genderTextbox.text,race,raceResp,LDTunderstand,stim,word_type,corr_key,stim_location,LDTpracKey.keys,LDTpracKey.corr,LDTpracKey.rt,PMunderstand,cueTextbox.text,intentionTextbox.text,block_type,role,block_desc,lateQResp.keys,LDTResp.keys,LDTResp.corr,LDTResp.rt,blankQResp.keys,pressedQ,PM_corr,lateQResp.rt,blankQResp.rt,postQ1,Q2Textbox.text,Q3Textbox.text,Q4,Q5,Q6Key.keys,Q6Key.rt,postQ7_correct,postQ7,Q8Textbox.text,education,medTextbox.text,health,healthLimit,psych,participant,date,expName,psychopyVersion,frameRate,
0,0,0,0,,,,,,,,,,,,,,,,,,,,,,,,,19 ,Male,American Indian or Alaska Native,n,,,,,,,,,,,,,,,,,,,,,,,,,,,,,,,,,,,,,,,300,2023-11-09_15h29.50.690,leap3,2022.2.5,60.00299966988878,
1,0,1,0,,,,,,,,,,,,,,,,,,,,,,,,,,,Asian,n,,,,,,,,,,,,,,,,,,,,,,,,,,,,,,,,,,,,,,,300,2023-11-09_15h29.50.690,leap3,2022.2.5,60.00299966988878,
2,0,2,0,,,,,,,,,,,,,,,,,,,,,,,,,,,Black or African American,n,,,,,,,,,,,,,,,,,,,,,,,,,,,,,,,,,,,,,,,300,2023-11-09_15h29.50.690,leap3,2022.2.5,60.00299966988878,
3,0,3,0,,,,,,,,,,,,,,,,,,,,,,,,,,,Native Hawaiian or other Pacific Islander,n,,,,,,,,,,,,,,,,,,,,,,,,,,,,,,,,,,,,,,,300,2023-11-09_15h29.50.690,leap3,2022.2.5,60.00299966988878,
4,0,4,0,,,,,,,,,,,,,,,,,,,,,,,,,,,White,y,,,,,,,,,,,,,,,,,,,,,,,,,,,,,,,,,,,,,,,300,2023-11-09_15h29.50.690,leap3,2022.2.5,60.00299966988878,
,,,,0,0,0,0,,,,,,,,,,,,,,,,,,,,,,,,,y,,,,,,,,,,,,,,,,,,,,,,,,,,,,,,,,,,,,,,300,2023-11-09_15h29.50.690,leap3,2022.2.5,60.00299966988878,
,,,,,,,,0,0,0,0,0,0,0,0,,,,,,,,,,,,,,,,,,hasking,nw,h,upper,g,0,0.49945187545381486,,,,,,,,,,,,,,,,,,,,,,,,,,,,,,,300,2023-11-09_15h29.50.690,leap3,2022.2.5,60.00299966988878,
,,,,,,,,0,0,0,0,1,0,1,0,,,,,,,,,,,,,,,,,,revival,w,g,upper,g,1,0.6911323338281363,,,,,,,,,,,,,,,,,,,,,,,,,,,,,,,300,2023-11-09_15h29.50.690,leap3,2022.2.5,60.00299966988878,
,,,,,,,,0,0,0,0,2,0,2,0,,,,,,,,,,,,,,,,,,grutch,nw,h,upper,h,1,0.7010461667086929,,,,,,,,,,,,,,,,,,,,,,,,,,,,,,,300,2023-11-09_15h29.50.690,leap3,2022.2.5,60.00299966988878,
,,,,,,,,0,0,0,0,3,0,3,0,,,,,,,,,,,,,,,,,,crinklo,nw,h,upper,h,1,0.5215827815700322,,,,,,,,,,,,,,,,,,,,,,,,,,,,,,,300,2023-11-09_15h29.50.690,leap3,2022.2.5,60.00299966988878,
,,,,,,,,0,0,0,0,4,0,4,0,,,,,,,,,,,,,,,,,,reputable,w,g,upper,g,1,0.49739693594165146,,,,,,,,,,,,,,,,,,,,,,,,,,,,,,,300,2023-11-09_15h29.50.690,leap3,2022.2.5,60.00299966988878,
,,,,,,,,0,0,0,0,5,0,5,0,,,,,,,,,,,,,,,,,,umpire,w,g,upper,h,0,0.6306548076681793,,,,,,,,,,,,,,,,,,,,,,,,,,,,,,,300,2023-11-09_15h29.50.690,leap3,2022.2.5,60.00299966988878,
,,,,,,,,0,0,0,0,6,0,6,0,,,,,,,,,,,,,,,,,,overshoot,w,g,upper,g,1,0.5391058826353401,,,,,,,,,,,,,,,,,,,,,,,,,,,,,,,300,2023-11-09_15h29.50.690,leap3,2022.2.5,60.00299966988878,
,,,,,,,,0,0,0,0,7,0,7,0,,,,,,,,,,,,,,,,,,julled,nw,h,upper,g,0,0.7463816329836845,,,,,,,,,,,,,,,,,,,,,,,,,,,,,,,300,2023-11-09_15h29.50.690,leap3,2022.2.5,60.00299966988878,
,,,,,,,,0,0,0,0,8,0,8,0,,,,,,,,,,,,,,,,,,lumbigo,nw,h,upper,h,1,0.6129476327914745,,,,,,,,,,,,,,,,,,,,,,,,,,,,,,,300,2023-11-09_15h29.50.690,leap3,2022.2.5,60.00299966988878,
,,,,,,,,0,0,0,0,9,0,9,0,,,,,,,,,,,,,,,,,,alolition,nw,h,upper,g,0,0.5391810352448374,,,,,,,,,,,,,,,,,,,,,,,,,,,,,,,300,2023-11-09_15h29.50.690,leap3,2022.2.5,60.00299966988878,
,,,,,,,,0,0,0,0,10,0,10,0,,,,,,,,,,,,,,,,,,picture,w,g,upper,g,1,0.4439201750792563,,,,,,,,,,,,,,,,,,,,,,,,,,,,,,,300,2023-11-09_15h29.50.690,leap3,2022.2.5,60.00299966988878,
,,,,,,,,0,0,0,0,11,0,11,0,,,,,,,,,,,,,,,,,,sponsor,w,g,upper,g,1,0.5926779911387712,,,,,,,,,,,,,,,,,,,,,,,,,,,,,,,300,2023-11-09_15h29.50.690,leap3,2022.2.5,60.00299966988878,
,,,,,,,,0,0,0,0,12,0,12,0,,,,,,,,,,,,,,,,,,busted,w,g,upper,g,1,0.4784303782507777,,,,,,,,,,,,,,,,,,,,,,,,,,,,,,,300,2023-11-09_15h29.50.690,leap3,2022.2.5,60.00299966988878,
,,,,,,,,0,0,0,0,13,0,13,0,,,,,,,,,,,,,,,,,,turative,nw,h,upper,h,1,0.6817528447136283,,,,,,,,,,,,,,,,,,,,,,,,,,,,,,,300,2023-11-09_15h29.50.690,leap3,2022.2.5,60.00299966988878,
,,,,,,,,0,0,0,0,,,,,,,,,,,,,,,,,,,,,,,,,,,,,,,,,,,,,,,,,,,,,,,,,,,,,,,,,,,300,2023-11-09_15h29.50.690,leap3,2022.2.5,60.00299966988878,
,,,,,,,,1,0,1,0,0,0,0,0,,,,,,,,,,,,,,,,,,curlecs,nw,h,lower,h,1,0.5736832926049829,,,,,,,,,,,,,,,,,,,,,,,,,,,,,,,300,2023-11-09_15h29.50.690,leap3,2022.2.5,60.00299966988878,
,,,,,,,,1,0,1,0,1,0,1,0,,,,,,,,,,,,,,,,,,summary,w,g,lower,g,1,0.556784916901961,,,,,,,,,,,,,,,,,,,,,,,,,,,,,,,300,2023-11-09_15h29.50.690,leap3,2022.2.5,60.00299966988878,
,,,,,,,,1,0,1,0,2,0,2,0,,,,,,,,,,,,,,,,,,trotch,nw,h,lower,h,1,0.4923074268735945,,,,,,,,,,,,,,,,,,,,,,,,,,,,,,,300,2023-11-09_15h29.50.690,leap3,2022.2.5,60.00299966988878,
,,,,,,,,1,0,1,0,3,0,3,0,,,,,,,,,,,,,,,,,,raestro,nw,h,lower,g,0,0.5267391668166965,,,,,,,,,,,,,,,,,,,,,,,,,,,,,,,300,2023-11-09_15h29.50.690,leap3,2022.2.5,60.00299966988878,
,,,,,,,,1,0,1,0,4,0,4,0,,,,,,,,,,,,,,,,,,hiring,w,g,lower,g,1,0.45600283495150506,,,,,,,,,,,,,,,,,,,,,,,,,,,,,,,300,2023-11-09_15h29.50.690,leap3,2022.2.5,60.00299966988878,
,,,,,,,,1,0,1,0,5,0,5,0,,,,,,,,,,,,,,,,,,unscrew,w,g,lower,h,0,0.6283591820392758,,,,,,,,,,,,,,,,,,,,,,,,,,,,,,,300,2023-11-09_15h29.50.690,leap3,2022.2.5,60.00299966988878,
,,,,,,,,1,0,1,0,6,0,6,0,,,,,,,,,,,,,,,,,,grimace,w,g,lower,g,1,0.5694515805225819,,,,,,,,,,,,,,,,,,,,,,,,,,,,,,,300,2023-11-09_15h29.50.690,leap3,2022.2.5,60.00299966988878,
,,,,,,,,1,0,1,0,7,0,7,0,,,,,,,,,,,,,,,,,,treeps,nw,h,lower,h,1,0.5848138006404042,,,,,,,,,,,,,,,,,,,,,,,,,,,,,,,300,2023-11-09_15h29.50.690,leap3,2022.2.5,60.00299966988878,
,,,,,,,,1,0,1,0,8,0,8,0,,,,,,,,,,,,,,,,,,lurshing,nw,h,lower,h,1,0.6152124693617225,,,,,,,,,,,,,,,,,,,,,,,,,,,,,,,300,2023-11-09_15h29.50.690,leap3,2022.2.5,60.00299966988878,
,,,,,,,,1,0,1,0,9,0,9,0,,,,,,,,,,,,,,,,,,latador,nw,h,lower,h,1,0.6452714623883367,,,,,,,,,,,,,,,,,,,,,,,,,,,,,,,300,2023-11-09_15h29.50.690,leap3,2022.2.5,60.00299966988878,
,,,,,,,,1,0,1,0,10,0,10,0,,,,,,,,,,,,,,,,,,slumber,w,g,lower,g,1,0.5539645482786,,,,,,,,,,,,,,,,,,,,,,,,,,,,,,,300,2023-11-09_15h29.50.690,leap3,2022.2.5,60.00299966988878,
,,,,,,,,1,0,1,0,11,0,11,0,,,,,,,,,,,,,,,,,,infinity,w,g,lower,g,1,0.4974737437441945,,,,,,,,,,,,,,,,,,,,,,,,,,,,,,,300,2023-11-09_15h29.50.690,leap3,2022.2.5,60.00299966988878,
,,,,,,,,1,0,1,0,12,0,12,0,,,,,,,,,,,,,,,,,,tricycle,w,g,lower,g,1,0.484869651729241,,,,,,,,,,,,,,,,,,,,,,,,,,,,,,,300,2023-11-09_15h29.50.690,leap3,2022.2.5,60.00299966988878,
,,,,,,,,1,0,1,0,13,0,13,0,,,,,,,,,,,,,,,,,,grocus,nw,h,lower,h,1,0.51176164788194,,,,,,,,,,,,,,,,,,,,,,,,,,,,,,,300,2023-11-09_15h29.50.690,leap3,2022.2.5,60.00299966988878,
,,,,,,,,1,0,1,0,,,,,,,,,,,,,,,,,,,,,,,,,,,,,,,,,,,,,,,,,,,,,,,,,,,,,,,,,,,300,2023-11-09_15h29.50.690,leap3,2022.2.5,60.00299966988878,
,,,,,,,,,,,,,,,,0,0,0,0,,,,,,,,,,,,,,,,,,,,,y,,,,,,,,,,,,,,,,,,,,,,,,,,,,,,300,2023-11-09_15h29.50.690,leap3,2022.2.5,60.00299966988878,
,,,,,,,,,,,,,,,,,,,,0,0,0,0,0,0,0,0,,,,,,stelled,nw,h,upper,,,,,animal,"
q",1,nw,HiDemTar,None,h,1,0.741724498802796,None,,,,,,,,,,,,,,,,,,,,300,2023-11-09_15h29.50.690,leap3,2022.2.5,60.00299966988878,
,,,,,,,,,,,,,,,,,,,,0,0,0,0,1,0,1,0,,,,,,bingu,nw,h,upper,,,,,,,1,nw,HiDemTar,None,h,1,0.8390767157543451,None,,,,,,,,,,,,,,,,,,,,300,2023-11-09_15h29.50.690,leap3,2022.2.5,60.00299966988878,
,,,,,,,,,,,,,,,,,,,,0,0,0,0,2,0,2,0,,,,,,bother,w,g,upper,,,,,,,1,w,HiDemTar,None,g,1,0.9724302664399147,None,,,,,,,,,,,,,,,,,,,,300,2023-11-09_15h29.50.690,leap3,2022.2.5,60.00299966988878,
,,,,,,,,,,,,,,,,,,,,0,0,0,0,3,0,3,0,,,,,,jungle,w,g,upper,,,,,,,1,w,HiDemTar,None,g,1,0.692519840085879,None,,,,,,,,,,,,,,,,,,,,300,2023-11-09_15h29.50.690,leap3,2022.2.5,60.00299966988878,
,,,,,,,,,,,,,,,,,,,,0,0,0,0,4,0,4,0,,,,,,sludding,nw,h,upper,,,,,,,1,nw,HiDemTar,None,h,1,0.7834347696043551,None,,,,,,,,,,,,,,,,,,,,300,2023-11-09_15h29.50.690,leap3,2022.2.5,60.00299966988878,
,,,,,,,,,,,,,,,,,,,,0,0,0,0,5,0,5,0,,,,,,etber,nw,h,upper,,,,,,,1,nw,HiDemTar,None,h,1,0.6709073863457888,None,,,,,,,,,,,,,,,,,,,,300,2023-11-09_15h29.50.690,leap3,2022.2.5,60.00299966988878,
,,,,,,,,,,,,,,,,,,,,0,0,0,0,6,0,6,0,,,,,,pleamed,nw,h,upper,,,,,,,1,nw,HiDemTar,None,h,1,0.6589833081234246,None,,,,,,,,,,,,,,,,,,,,300,2023-11-09_15h29.50.690,leap3,2022.2.5,60.00299966988878,
,,,,,,,,,,,,,,,,,,,,0,0,0,0,7,0,7,0,,,,,,gerby,nw,h,upper,,,,,,,1,nw,HiDemTar,None,h,1,0.5997688067145646,None,,,,,,,,,,,,,,,,,,,,300,2023-11-09_15h29.50.690,leap3,2022.2.5,60.00299966988878,
,,,,,,,,,,,,,,,,,,,,0,0,0,0,8,0,8,0,,,,,,reprint,w,g,upper,,,,,,,1,w,HiDemTar,None,g,1,0.6149443043395877,None,,,,,,,,,,,,,,,,,,,,300,2023-11-09_15h29.50.690,leap3,2022.2.5,60.00299966988878,
,,,,,,,,,,,,,,,,,,,,0,0,0,0,9,0,9,0,,,,,,suburb,w,g,upper,,,,,,,1,w,HiDemTar,None,g,1,0.5575821287930012,None,,,,,,,,,,,,,,,,,,,,300,2023-11-09_15h29.50.690,leap3,2022.2.5,60.00299966988878,
,,,,,,,,,,,,,,,,,,,,0,0,0,0,10,0,10,0,,,,,,chining,nw,h,upper,,,,,,,1,nw,HiDemTar,None,h,1,0.6464901240542531,None,,,,,,,,,,,,,,,,,,,,300,2023-11-09_15h29.50.690,leap3,2022.2.5,60.00299966988878,
,,,,,,,,,,,,,,,,,,,,0,0,0,0,11,0,11,0,,,,,,noils,nw,h,upper,,,,,,,1,nw,HiDemTar,None,h,1,0.7557856210041791,None,,,,,,,,,,,,,,,,,,,,300,2023-11-09_15h29.50.690,leap3,2022.2.5,60.00299966988878,
,,,,,,,,,,,,,,,,,,,,0,0,0,0,12,0,12,0,,,,,,fatho,nw,h,upper,,,,,,,1,nw,HiDemTar,None,h,1,0.5966203496791422,None,,,,,,,,,,,,,,,,,,,,300,2023-11-09_15h29.50.690,leap3,2022.2.5,60.00299966988878,
,,,,,,,,,,,,,,,,,,,,0,0,0,0,13,0,13,0,,,,,,sengry,nw,h,upper,,,,,,,1,nw,HiDemTar,None,h,1,0.5949295850005001,None,,,,,,,,,,,,,,,,,,,,300,2023-11-09_15h29.50.690,leap3,2022.2.5,60.00299966988878,
,,,,,,,,,,,,,,,,,,,,0,0,0,0,14,0,14,0,,,,,,trewl,nw,h,upper,,,,,,,1,nw,HiDemTar,None,h,1,0.5782493832521141,None,,,,,,,,,,,,,,,,,,,,300,2023-11-09_15h29.50.690,leap3,2022.2.5,60.00299966988878,
,,,,,,,,,,,,,,,,,,,,0,0,0,0,15,0,15,0,,,,,,bloodless,w,g,upper,,,,,,,1,w,HiDemTar,None,g,1,0.586238386342302,None,,,,,,,,,,,,,,,,,,,,300,2023-11-09_15h29.50.690,leap3,2022.2.5,60.00299966988878,
,,,,,,,,,,,,,,,,,,,,0,0,0,0,16,0,16,0,,,,,,govern,w,g,upper,,,,,,,1,w,HiDemTar,None,g,1,0.5935986912809312,None,,,,,,,,,,,,,,,,,,,,300,2023-11-09_15h29.50.690,leap3,2022.2.5,60.00299966988878,
,,,,,,,,,,,,,,,,,,,,0,0,0,0,17,0,17,0,,,,,,befriend,w,g,upper,,,,,,,1,w,HiDemTar,None,g,1,0.6970051501411945,None,,,,,,,,,,,,,,,,,,,,300,2023-11-09_15h29.50.690,leap3,2022.2.5,60.00299966988878,
,,,,,,,,,,,,,,,,,,,,0,0,0,0,18,0,18,0,,,,,,foster,w,g,upper,,,,,,,1,w,HiDemTar,None,g,1,0.7244126189034432,None,,,,,,,,,,,,,,,,,,,,300,2023-11-09_15h29.50.690,leap3,2022.2.5,60.00299966988878,
,,,,,,,,,,,,,,,,,,,,0,0,0,0,19,0,19,0,,,,,,destroy,w,g,upper,,,,,,,1,w,HiDemTar,None,g,1,0.534467950463295,None,,,,,,,,,,,,,,,,,,,,300,2023-11-09_15h29.50.690,leap3,2022.2.5,60.00299966988878,
,,,,,,,,,,,,,,,,,,,,0,0,0,0,20,0,20,0,,,,,,ladybug,target,q,upper,,,,,,,1,target,HiDemTar,None,q,1,0.6877551085781306,None,q,1,,,,,,,,,,,,,,,,,,300,2023-11-09_15h29.50.690,leap3,2022.2.5,60.00299966988878,
,,,,,,,,,,,,,,,,,,,,0,0,0,0,21,0,21,0,,,,,,puggers,nw,h,upper,,,,,,,1,aftertar1,HiDemTar,None,h,1,0.7227533059194684,None,,,,,,,,,,,,,,,,,,,,300,2023-11-09_15h29.50.690,leap3,2022.2.5,60.00299966988878,
,,,,,,,,,,,,,,,,,,,,0,0,0,0,22,0,22,0,,,,,,cessation,w,g,upper,,,,,,,1,aftertar2,HiDemTar,None,g,1,0.8441423878539354,None,,,,,,,,,,,,,,,,,,,,300,2023-11-09_15h29.50.690,leap3,2022.2.5,60.00299966988878,
,,,,,,,,,,,,,,,,,,,,0,0,0,0,23,0,23,0,,,,,,maiden,w,g,upper,,,,,,,1,aftertar3,HiDemTar,None,g,1,0.5855494339484721,None,,,,,,,,,,,,,,,,,,,,300,2023-11-09_15h29.50.690,leap3,2022.2.5,60.00299966988878,
,,,,,,,,,,,,,,,,,,,,0,0,0,0,24,0,24,0,,,,,,tablet,w,g,upper,,,,,,,1,w,HiDemTar,None,g,1,0.6329358667135239,None,,,,,,,,,,,,,,,,,,,,300,2023-11-09_15h29.50.690,leap3,2022.2.5,60.00299966988878,
,,,,,,,,,,,,,,,,,,,,0,0,0,0,25,0,25,0,,,,,,gestalion,nw,h,upper,,,,,,,1,w,HiDemTar,None,g,0,0.743011360289529,None,,,,,,,,,,,,,,,,,,,,300,2023-11-09_15h29.50.690,leap3,2022.2.5,60.00299966988878,
,,,,,,,,,,,,,,,,,,,,0,0,0,0,26,0,26,0,,,,,,nimono,nw,h,upper,,,,,,,1,nw,HiDemTar,None,h,1,0.6085715754888952,None,,,,,,,,,,,,,,,,,,,,300,2023-11-09_15h29.50.690,leap3,2022.2.5,60.00299966988878,
,,,,,,,,,,,,,,,,,,,,0,0,0,0,27,0,27,0,,,,,,century,w,g,upper,,,,,,,1,nw,HiDemTar,None,g,1,0.6150628267787397,None,,,,,,,,,,,,,,,,,,,,300,2023-11-09_15h29.50.690,leap3,2022.2.5,60.00299966988878,
,,,,,,,,,,,,,,,,,,,,0,0,0,0,28,0,28,0,,,,,,removable,w,g,upper,,,,,,,1,w,HiDemTar,None,g,1,0.661953650880605,None,,,,,,,,,,,,,,,,,,,,300,2023-11-09_15h29.50.690,leap3,2022.2.5,60.00299966988878,
,,,,,,,,,,,,,,,,,,,,0,0,0,0,29,0,29,0,,,,,,newstrint,nw,h,upper,,,,,,,1,w,HiDemTar,None,h,1,0.6821335731074214,None,,,,,,,,,,,,,,,,,,,,300,2023-11-09_15h29.50.690,leap3,2022.2.5,60.00299966988878,
,,,,,,,,,,,,,,,,,,,,0,0,0,0,,,,,,,,,,,,,,,,,,,,,,,,,,,,,,,,,,,,,,,,,,,,,,,300,2023-11-09_15h29.50.690,leap3,2022.2.5,60.00299966988878,
,,,,,,,,,,,,,,,,,,,,1,0,1,0,0,0,0,0,,,,,,reses,nw,h,lower,,,,,,,3,nw,LoDemNoTar,None,h,1,0.6134154319297522,None,,,,,,,,,,,,,,,,,,,,300,2023-11-09_15h29.50.690,leap3,2022.2.5,60.00299966988878,
,,,,,,,,,,,,,,,,,,,,1,0,1,0,1,0,1,0,,,,,,selongs,nw,h,lower,,,,,,,3,nw,LoDemNoTar,None,h,1,0.564024382038042,None,,,,,,,,,,,,,,,,,,,,300,2023-11-09_15h29.50.690,leap3,2022.2.5,60.00299966988878,
,,,,,,,,,,,,,,,,,,,,1,0,1,0,2,0,2,0,,,,,,vintnel,nw,h,lower,,,,,,,3,nw,LoDemNoTar,None,h,1,0.5087601847480983,None,,,,,,,,,,,,,,,,,,,,300,2023-11-09_15h29.50.690,leap3,2022.2.5,60.00299966988878,
,,,,,,,,,,,,,,,,,,,,1,0,1,0,3,0,3,0,,,,,,graveyard,w,g,lower,,,,,,,3,w,LoDemNoTar,None,g,1,0.5596115759108216,None,,,,,,,,,,,,,,,,,,,,300,2023-11-09_15h29.50.690,leap3,2022.2.5,60.00299966988878,
,,,,,,,,,,,,,,,,,,,,1,0,1,0,4,0,4,0,,,,,,dishwater,w,g,lower,,,,,,,3,w,LoDemNoTar,None,g,1,0.4801678233779967,None,,,,,,,,,,,,,,,,,,,,300,2023-11-09_15h29.50.690,leap3,2022.2.5,60.00299966988878,
,,,,,,,,,,,,,,,,,,,,1,0,1,0,5,0,5,0,,,,,,seighing,nw,h,lower,,,,,,,3,nw,LoDemNoTar,None,g,0,0.8441390774678439,None,,,,,,,,,,,,,,,,,,,,300,2023-11-09_15h29.50.690,leap3,2022.2.5,60.00299966988878,
,,,,,,,,,,,,,,,,,,,,1,0,1,0,6,0,6,0,,,,,,euphoric,w,g,lower,,,,,,,3,w,LoDemNoTar,None,g,1,0.6095290242228657,None,,,,,,,,,,,,,,,,,,,,300,2023-11-09_15h29.50.690,leap3,2022.2.5,60.00299966988878,
,,,,,,,,,,,,,,,,,,,,1,0,1,0,7,0,7,0,,,,,,cooray,nw,h,lower,,,,,,,3,nw,LoDemNoTar,None,h,1,0.5361441478598863,None,,,,,,,,,,,,,,,,,,,,300,2023-11-09_15h29.50.690,leap3,2022.2.5,60.00299966988878,
,,,,,,,,,,,,,,,,,,,,1,0,1,0,8,0,8,0,,,,,,ebuating,nw,h,lower,,,,,,,3,nw,LoDemNoTar,None,h,1,0.5126058713067323,None,,,,,,,,,,,,,,,,,,,,300,2023-11-09_15h29.50.690,leap3,2022.2.5,60.00299966988878,
,,,,,,,,,,,,,,,,,,,,1,0,1,0,9,0,9,0,,,,,,teamwork,w,g,lower,,,,,,,3,w,LoDemNoTar,None,g,1,0.49939261423423886,None,,,,,,,,,,,,,,,,,,,,300,2023-11-09_15h29.50.690,leap3,2022.2.5,60.00299966988878,
,,,,,,,,,,,,,,,,,,,,1,0,1,0,10,0,10,0,,,,,,forbid,w,g,lower,,,,,,,3,w,LoDemNoTar,None,g,1,0.5025437199510634,None,,,,,,,,,,,,,,,,,,,,300,2023-11-09_15h29.50.690,leap3,2022.2.5,60.00299966988878,
,,,,,,,,,,,,,,,,,,,,1,0,1,0,11,0,11,0,,,,,,disease,w,g,lower,,,,,,,3,w,LoDemNoTar,None,g,1,0.5053021789062768,None,,,,,,,,,,,,,,,,,,,,300,2023-11-09_15h29.50.690,leap3,2022.2.5,60.00299966988878,
,,,,,,,,,,,,,,,,,,,,1,0,1,0,12,0,12,0,,,,,,prominent,w,g,lower,,,,,,,3,w,LoDemNoTar,None,g,1,0.6679271117318422,None,,,,,,,,,,,,,,,,,,,,300,2023-11-09_15h29.50.690,leap3,2022.2.5,60.00299966988878,
,,,,,,,,,,,,,,,,,,,,1,0,1,0,13,0,13,0,,,,,,tyena,nw,h,lower,,,,,,,3,nw,LoDemNoTar,None,h,1,0.6877024685963988,None,,,,,,,,,,,,,,,,,,,,300,2023-11-09_15h29.50.690,leap3,2022.2.5,60.00299966988878,
,,,,,,,,,,,,,,,,,,,,1,0,1,0,14,0,14,0,,,,,,hutting,nw,h,lower,,,,,,,3,nw,LoDemNoTar,None,h,1,0.651562086539343,None,,,,,,,,,,,,,,,,,,,,300,2023-11-09_15h29.50.690,leap3,2022.2.5,60.00299966988878,
,,,,,,,,,,,,,,,,,,,,1,0,1,0,15,0,15,0,,,,,,supplier,w,g,lower,,,,,,,3,w,LoDemNoTar,None,g,1,0.6408675950951874,None,,,,,,,,,,,,,,,,,,,,300,2023-11-09_15h29.50.690,leap3,2022.2.5,60.00299966988878,
,,,,,,,,,,,,,,,,,,,,1,0,1,0,16,0,16,0,,,,,,terrify,w,g,lower,,,,,,,3,w,LoDemNoTar,None,g,1,0.661538822343573,None,,,,,,,,,,,,,,,,,,,,300,2023-11-09_15h29.50.690,leap3,2022.2.5,60.00299966988878,
,,,,,,,,,,,,,,,,,,,,1,0,1,0,17,0,17,0,,,,,,roaned,nw,h,lower,,,,,,,3,nw,LoDemNoTar,None,h,1,0.6661668226588517,None,,,,,,,,,,,,,,,,,,,,300,2023-11-09_15h29.50.690,leap3,2022.2.5,60.00299966988878,
,,,,,,,,,,,,,,,,,,,,1,0,1,0,18,0,18,0,,,,,,massacre,w,g,lower,,,,,,,3,w,LoDemNoTar,None,g,1,0.5186657409649342,None,,,,,,,,,,,,,,,,,,,,300,2023-11-09_15h29.50.690,leap3,2022.2.5,60.00299966988878,
,,,,,,,,,,,,,,,,,,,,1,0,1,0,19,0,19,0,,,,,,collision,w,g,lower,,,,,,,3,w,LoDemNoTar,None,g,1,0.6167847118340433,None,,,,,,,,,,,,,,,,,,,,300,2023-11-09_15h29.50.690,leap3,2022.2.5,60.00299966988878,
,,,,,,,,,,,,,,,,,,,,1,0,1,0,20,0,20,0,,,,,,rapport,w,g,lower,,,,,,,3,w,LoDemNoTar,None,h,0,0.5273423728067428,None,,,,,,,,,,,,,,,,,,,,300,2023-11-09_15h29.50.690,leap3,2022.2.5,60.00299966988878,
,,,,,,,,,,,,,,,,,,,,1,0,1,0,21,0,21,0,,,,,,scack,nw,h,lower,,,,,,,3,nw,LoDemNoTar,None,h,1,0.6733304734807462,None,,,,,,,,,,,,,,,,,,,,300,2023-11-09_15h29.50.690,leap3,2022.2.5,60.00299966988878,
,,,,,,,,,,,,,,,,,,,,1,0,1,0,22,0,22,0,,,,,,chight,nw,h,lower,,,,,,,3,nw,LoDemNoTar,None,h,1,0.5814332647714764,None,,,,,,,,,,,,,,,,,,,,300,2023-11-09_15h29.50.690,leap3,2022.2.5,60.00299966988878,
,,,,,,,,,,,,,,,,,,,,1,0,1,0,23,0,23,0,,,,,,permute,w,g,lower,,,,,,,3,w,LoDemNoTar,None,h,0,0.973471806384623,None,,,,,,,,,,,,,,,,,,,,300,2023-11-09_15h29.50.690,leap3,2022.2.5,60.00299966988878,
,,,,,,,,,,,,,,,,,,,,1,0,1,0,24,0,24,0,,,,,,brongs,nw,h,lower,,,,,,,3,nw,LoDemNoTar,None,h,1,0.6615252487827092,None,,,,,,,,,,,,,,,,,,,,300,2023-11-09_15h29.50.690,leap3,2022.2.5,60.00299966988878,
,,,,,,,,,,,,,,,,,,,,1,0,1,0,25,0,25,0,,,,,,mabit,nw,h,lower,,,,,,,3,nw,LoDemNoTar,None,h,1,0.6342756992671639,None,,,,,,,,,,,,,,,,,,,,300,2023-11-09_15h29.50.690,leap3,2022.2.5,60.00299966988878,
,,,,,,,,,,,,,,,,,,,,1,0,1,0,26,0,26,0,,,,,,mineluyer,nw,h,lower,,,,,,,3,nw,LoDemNoTar,None,h,1,0.5518533270806074,None,,,,,,,,,,,,,,,,,,,,300,2023-11-09_15h29.50.690,leap3,2022.2.5,60.00299966988878,
,,,,,,,,,,,,,,,,,,,,1,0,1,0,27,0,27,0,,,,,,army,w,g,lower,,,,,,,3,w,LoDemNoTar,None,g,1,0.9354099051561207,None,,,,,,,,,,,,,,,,,,,,300,2023-11-09_15h29.50.690,leap3,2022.2.5,60.00299966988878,
,,,,,,,,,,,,,,,,,,,,1,0,1,0,28,0,28,0,,,,,,harder,w,g,lower,,,,,,,3,w,LoDemNoTar,None,g,1,0.6328226416371763,None,,,,,,,,,,,,,,,,,,,,300,2023-11-09_15h29.50.690,leap3,2022.2.5,60.00299966988878,
,,,,,,,,,,,,,,,,,,,,1,0,1,0,29,0,29,0,,,,,,guivers,nw,h,lower,,,,,,,3,nw,LoDemNoTar,None,h,1,0.6549446089193225,None,,,,,,,,,,,,,,,,,,,,300,2023-11-09_15h29.50.690,leap3,2022.2.5,60.00299966988878,
,,,,,,,,,,,,,,,,,,,,1,0,1,0,,,,,,,,,,,,,,,,,,,,,,,,,,,,,,,,,,,,,,,,,,,,,,,300,2023-11-09_15h29.50.690,leap3,2022.2.5,60.00299966988878,
,,,,,,,,,,,,,,,,,,,,2,0,2,0,0,0,0,0,,,,,,setwixt,nw,h,lower,,,,,,,3,nw,LoDemNoTar,None,h,1,0.6107609283644706,None,,,,,,,,,,,,,,,,,,,,300,2023-11-09_15h29.50.690,leap3,2022.2.5,60.00299966988878,
,,,,,,,,,,,,,,,,,,,,2,0,2,0,1,0,1,0,,,,,,stalemate,w,g,lower,,,,,,,3,w,LoDemNoTar,None,g,1,0.5134325481485575,None,,,,,,,,,,,,,,,,,,,,300,2023-11-09_15h29.50.690,leap3,2022.2.5,60.00299966988878,
,,,,,,,,,,,,,,,,,,,,2,0,2,0,2,0,2,0,,,,,,scatter,w,g,lower,,,,,,,3,w,LoDemNoTar,None,g,1,0.5163939518388361,None,,,,,,,,,,,,,,,,,,,,300,2023-11-09_15h29.50.690,leap3,2022.2.5,60.00299966988878,
,,,,,,,,,,,,,,,,,,,,2,0,2,0,3,0,3,0,,,,,,awful,w,g,lower,,,,,,,3,w,LoDemNoTar,None,g,1,0.5668229004368186,None,,,,,,,,,,,,,,,,,,,,300,2023-11-09_15h29.50.690,leap3,2022.2.5,60.00299966988878,
,,,,,,,,,,,,,,,,,,,,2,0,2,0,4,0,4,0,,,,,,frunted,nw,h,lower,,,,,,,3,nw,LoDemNoTar,None,h,1,0.6072747816797346,None,,,,,,,,,,,,,,,,,,,,300,2023-11-09_15h29.50.690,leap3,2022.2.5,60.00299966988878,
,,,,,,,,,,,,,,,,,,,,2,0,2,0,5,0,5,0,,,,,,unburnid,nw,h,lower,,,,,,,3,nw,LoDemNoTar,None,h,1,0.9500050405040383,None,,,,,,,,,,,,,,,,,,,,300,2023-11-09_15h29.50.690,leap3,2022.2.5,60.00299966988878,
,,,,,,,,,,,,,,,,,,,,2,0,2,0,6,0,6,0,,,,,,arrow,w,g,lower,,,,,,,3,w,LoDemNoTar,None,g,1,0.5112190274521708,None,,,,,,,,,,,,,,,,,,,,300,2023-11-09_15h29.50.690,leap3,2022.2.5,60.00299966988878,
,,,,,,,,,,,,,,,,,,,,2,0,2,0,7,0,7,0,,,,,,serving,w,g,lower,,,,,,,3,w,LoDemNoTar,None,g,1,0.4982881711330265,None,,,,,,,,,,,,,,,,,,,,300,2023-11-09_15h29.50.690,leap3,2022.2.5,60.00299966988878,
,,,,,,,,,,,,,,,,,,,,2,0,2,0,8,0,8,0,,,,,,bentler,nw,h,lower,,,,,,,3,nw,LoDemNoTar,None,h,1,0.7013305539730936,None,,,,,,,,,,,,,,,,,,,,300,2023-11-09_15h29.50.690,leap3,2022.2.5,60.00299966988878,
,,,,,,,,,,,,,,,,,,,,2,0,2,0,9,0,9,0,,,,,,sorping,nw,h,lower,,,,,,,3,nw,LoDemNoTar,None,h,1,0.5927670483943075,None,,,,,,,,,,,,,,,,,,,,300,2023-11-09_15h29.50.690,leap3,2022.2.5,60.00299966988878,
,,,,,,,,,,,,,,,,,,,,2,0,2,0,10,0,10,0,,,,,,rearrange,w,g,lower,,,,,,,3,w,LoDemNoTar,None,g,1,0.6962208496406674,None,,,,,,,,,,,,,,,,,,,,300,2023-11-09_15h29.50.690,leap3,2022.2.5,60.00299966988878,
,,,,,,,,,,,,,,,,,,,,2,0,2,0,11,0,11,0,,,,,,snays,nw,h,lower,,,,,,,3,nw,LoDemNoTar,None,h,1,0.6106354536022991,None,,,,,,,,,,,,,,,,,,,,300,2023-11-09_15h29.50.690,leap3,2022.2.5,60.00299966988878,
,,,,,,,,,,,,,,,,,,,,2,0,2,0,12,0,12,0,,,,,,regards,w,g,lower,,,,,,,3,w,LoDemNoTar,None,g,1,0.5454256408847868,None,,,,,,,,,,,,,,,,,,,,300,2023-11-09_15h29.50.690,leap3,2022.2.5,60.00299966988878,
,,,,,,,,,,,,,,,,,,,,2,0,2,0,13,0,13,0,,,,,,gensions,nw,h,lower,,,,,,,3,nw,LoDemNoTar,None,h,1,0.5546667436137795,None,,,,,,,,,,,,,,,,,,,,300,2023-11-09_15h29.50.690,leap3,2022.2.5,60.00299966988878,
,,,,,,,,,,,,,,,,,,,,2,0,2,0,14,0,14,0,,,,,,abraid,nw,h,lower,,,,,,,3,nw,LoDemNoTar,None,h,1,0.5314082193654031,None,,,,,,,,,,,,,,,,,,,,300,2023-11-09_15h29.50.690,leap3,2022.2.5,60.00299966988878,
,,,,,,,,,,,,,,,,,,,,2,0,2,0,15,0,15,0,,,,,,dealer,w,g,lower,,,,,,,3,w,LoDemNoTar,None,g,1,0.517578182509169,None,,,,,,,,,,,,,,,,,,,,300,2023-11-09_15h29.50.690,leap3,2022.2.5,60.00299966988878,
,,,,,,,,,,,,,,,,,,,,2,0,2,0,16,0,16,0,,,,,,nameplate,w,g,lower,,,,,,,3,w,LoDemNoTar,None,g,1,0.5514401542022824,None,,,,,,,,,,,,,,,,,,,,300,2023-11-09_15h29.50.690,leap3,2022.2.5,60.00299966988878,
,,,,,,,,,,,,,,,,,,,,2,0,2,0,17,0,17,0,,,,,,planofoad,nw,h,lower,,,,,,,3,nw,LoDemNoTar,None,h,1,0.5361451411154121,None,,,,,,,,,,,,,,,,,,,,300,2023-11-09_15h29.50.690,leap3,2022.2.5,60.00299966988878,
,,,,,,,,,,,,,,,,,,,,2,0,2,0,18,0,18,0,,,,,,butler,w,g,lower,,,,,,,3,w,LoDemNoTar,None,g,1,0.5214861098211259,None,,,,,,,,,,,,,,,,,,,,300,2023-11-09_15h29.50.690,leap3,2022.2.5,60.00299966988878,
,,,,,,,,,,,,,,,,,,,,2,0,2,0,19,0,19,0,,,,,,huffle,nw,h,lower,,,,,,,3,nw,LoDemNoTar,None,h,1,0.7715249275788665,None,,,,,,,,,,,,,,,,,,,,300,2023-11-09_15h29.50.690,leap3,2022.2.5,60.00299966988878,
,,,,,,,,,,,,,,,,,,,,2,0,2,0,20,0,20,0,,,,,,committed,w,g,lower,,,,,,,3,w,LoDemNoTar,None,g,1,0.6116471975110471,None,,,,,,,,,,,,,,,,,,,,300,2023-11-09_15h29.50.690,leap3,2022.2.5,60.00299966988878,
,,,,,,,,,,,,,,,,,,,,2,0,2,0,21,0,21,0,,,,,,undue,w,g,lower,,,,,,,3,w,LoDemNoTar,None,g,1,0.6423378684557974,None,,,,,,,,,,,,,,,,,,,,300,2023-11-09_15h29.50.690,leap3,2022.2.5,60.00299966988878,
,,,,,,,,,,,,,,,,,,,,2,0,2,0,22,0,22,0,,,,,,painter,w,g,lower,,,,,,,3,w,LoDemNoTar,None,g,1,0.5187941954936832,None,,,,,,,,,,,,,,,,,,,,300,2023-11-09_15h29.50.690,leap3,2022.2.5,60.00299966988878,
,,,,,,,,,,,,,,,,,,,,2,0,2,0,23,0,23,0,,,,,,dominion,w,g,lower,,,,,,,3,w,LoDemNoTar,None,g,1,0.6325087889563292,None,,,,,,,,,,,,,,,,,,,,300,2023-11-09_15h29.50.690,leap3,2022.2.5,60.00299966988878,
,,,,,,,,,,,,,,,,,,,,2,0,2,0,24,0,24,0,,,,,,atch,nw,h,lower,,,,,,,3,nw,LoDemNoTar,None,g,0,0.5589868505485356,None,,,,,,,,,,,,,,,,,,,,300,2023-11-09_15h29.50.690,leap3,2022.2.5,60.00299966988878,
,,,,,,,,,,,,,,,,,,,,2,0,2,0,25,0,25,0,,,,,,poyride,nw,h,lower,,,,,,,3,nw,LoDemNoTar,None,h,1,0.6395277630072087,None,,,,,,,,,,,,,,,,,,,,300,2023-11-09_15h29.50.690,leap3,2022.2.5,60.00299966988878,
,,,,,,,,,,,,,,,,,,,,2,0,2,0,26,0,26,0,,,,,,bulmed,nw,h,lower,,,,,,,3,nw,LoDemNoTar,None,h,1,0.6529644909314811,None,,,,,,,,,,,,,,,,,,,,300,2023-11-09_15h29.50.690,leap3,2022.2.5,60.00299966988878,
,,,,,,,,,,,,,,,,,,,,2,0,2,0,27,0,27,0,,,,,,fabstand,nw,h,lower,,,,,,,3,nw,LoDemNoTar,None,h,1,0.6015247916802764,None,,,,,,,,,,,,,,,,,,,,300,2023-11-09_15h29.50.690,leap3,2022.2.5,60.00299966988878,
,,,,,,,,,,,,,,,,,,,,2,0,2,0,28,0,28,0,,,,,,brother,w,g,lower,,,,,,,3,w,LoDemNoTar,None,g,1,0.5362226110883057,None,,,,,,,,,,,,,,,,,,,,300,2023-11-09_15h29.50.690,leap3,2022.2.5,60.00299966988878,
,,,,,,,,,,,,,,,,,,,,2,0,2,0,29,0,29,0,,,,,,pamine,nw,h,lower,,,,,,,3,nw,LoDemNoTar,None,h,1,0.713532398454845,None,,,,,,,,,,,,,,,,,,,,300,2023-11-09_15h29.50.690,leap3,2022.2.5,60.00299966988878,
,,,,,,,,,,,,,,,,,,,,2,0,2,0,,,,,,,,,,,,,,,,,,,,,,,,,,,,,,,,,,,,,,,,,,,,,,,300,2023-11-09_15h29.50.690,leap3,2022.2.5,60.00299966988878,
,,,,,,,,,,,,,,,,,,,,3,0,3,0,0,0,0,0,,,,,,function,w,g,lower,,,,,,,4,w,LoDemTar,None,g,1,0.5078745777718723,None,,,,,,,,,,,,,,,,,,,,300,2023-11-09_15h29.50.690,leap3,2022.2.5,60.00299966988878,
,,,,,,,,,,,,,,,,,,,,3,0,3,0,1,0,1,0,,,,,,slending,nw,h,lower,,,,,,,4,nw,LoDemTar,None,h,1,0.6383402217179537,None,,,,,,,,,,,,,,,,,,,,300,2023-11-09_15h29.50.690,leap3,2022.2.5,60.00299966988878,
,,,,,,,,,,,,,,,,,,,,3,0,3,0,2,0,2,0,,,,,,heaviest,w,g,lower,,,,,,,4,w,LoDemTar,None,g,1,0.6759902741760015,None,,,,,,,,,,,,,,,,,,,,300,2023-11-09_15h29.50.690,leap3,2022.2.5,60.00299966988878,
,,,,,,,,,,,,,,,,,,,,3,0,3,0,3,0,3,0,,,,,,condensed,w,g,lower,,,,,,,4,w,LoDemTar,None,h,0,0.736017216462642,None,,,,,,,,,,,,,,,,,,,,300,2023-11-09_15h29.50.690,leap3,2022.2.5,60.00299966988878,
,,,,,,,,,,,,,,,,,,,,3,0,3,0,4,0,4,0,,,,,,nauling,nw,h,lower,,,,,,,4,nw,LoDemTar,None,h,1,0.5853259628638625,None,,,,,,,,,,,,,,,,,,,,300,2023-11-09_15h29.50.690,leap3,2022.2.5,60.00299966988878,
,,,,,,,,,,,,,,,,,,,,3,0,3,0,5,0,5,0,,,,,,sefraud,nw,h,lower,,,,,,,4,nw,LoDemTar,None,h,1,0.5208613844588399,None,,,,,,,,,,,,,,,,,,,,300,2023-11-09_15h29.50.690,leap3,2022.2.5,60.00299966988878,
,,,,,,,,,,,,,,,,,,,,3,0,3,0,6,0,6,0,,,,,,shimble,nw,h,lower,,,,,,,4,nw,LoDemTar,None,h,1,0.7540283119305968,None,,,,,,,,,,,,,,,,,,,,300,2023-11-09_15h29.50.690,leap3,2022.2.5,60.00299966988878,
,,,,,,,,,,,,,,,,,,,,3,0,3,0,7,0,7,0,,,,,,thesis,w,g,lower,,,,,,,4,w,LoDemTar,None,g,1,0.5788433193229139,None,,,,,,,,,,,,,,,,,,,,300,2023-11-09_15h29.50.690,leap3,2022.2.5,60.00299966988878,
,,,,,,,,,,,,,,,,,,,,3,0,3,0,8,0,8,0,,,,,,analysis,w,g,lower,,,,,,,4,w,LoDemTar,None,g,1,0.6026620105840266,None,,,,,,,,,,,,,,,,,,,,300,2023-11-09_15h29.50.690,leap3,2022.2.5,60.00299966988878,
,,,,,,,,,,,,,,,,,,,,3,0,3,0,9,0,9,0,,,,,,handbook,w,g,lower,,,,,,,4,w,LoDemTar,None,h,0,0.7134353956207633,None,,,,,,,,,,,,,,,,,,,,300,2023-11-09_15h29.50.690,leap3,2022.2.5,60.00299966988878,
,,,,,,,,,,,,,,,,,,,,3,0,3,0,10,0,10,0,,,,,,chrayed,nw,h,lower,,,,,,,4,nw,LoDemTar,None,h,1,0.5801027021370828,None,,,,,,,,,,,,,,,,,,,,300,2023-11-09_15h29.50.690,leap3,2022.2.5,60.00299966988878,
,,,,,,,,,,,,,,,,,,,,3,0,3,0,11,0,11,0,,,,,,emotion,w,g,lower,,,,,,,4,w,LoDemTar,None,g,1,0.5641362832393497,None,,,,,,,,,,,,,,,,,,,,300,2023-11-09_15h29.50.690,leap3,2022.2.5,60.00299966988878,
,,,,,,,,,,,,,,,,,,,,3,0,3,0,12,0,12,0,,,,,,spider,target,q,lower,,,,,,,4,target,LoDemTar,None,g,0,0.48481270810589194,None,,,,,,,,,,,,,,,,,,,,300,2023-11-09_15h29.50.690,leap3,2022.2.5,60.00299966988878,
,,,,,,,,,,,,,,,,,,,,3,0,3,0,13,0,13,0,,,,,,boutique,w,g,lower,,,,,,,4,aftertar1,LoDemTar,None,q,0,0.21634895983152092,None,q,1,,,,,,,,,,,,,,,,,,300,2023-11-09_15h29.50.690,leap3,2022.2.5,60.00299966988878,
,,,,,,,,,,,,,,,,,,,,3,0,3,0,14,0,14,0,,,,,,plapping,nw,h,lower,,,,,,,4,aftertar2,LoDemTar,None,h,1,0.6231372454203665,None,,,,,,,,,,,,,,,,,,,,300,2023-11-09_15h29.50.690,leap3,2022.2.5,60.00299966988878,
,,,,,,,,,,,,,,,,,,,,3,0,3,0,15,0,15,0,,,,,,oalis,nw,h,lower,,,,,,,4,aftertar3,LoDemTar,None,h,1,0.7732170163653791,None,,,,,,,,,,,,,,,,,,,,300,2023-11-09_15h29.50.690,leap3,2022.2.5,60.00299966988878,
,,,,,,,,,,,,,,,,,,,,3,0,3,0,16,0,16,0,,,,,,stagger,w,g,lower,,,,,,,4,nw,LoDemTar,None,g,1,0.6449387390166521,None,,,,,,,,,,,,,,,,,,,,300,2023-11-09_15h29.50.690,leap3,2022.2.5,60.00299966988878,
,,,,,,,,,,,,,,,,,,,,3,0,3,0,17,0,17,0,,,,,,loached,nw,h,lower,,,,,,,4,w,LoDemTar,None,h,1,0.9053893161471933,None,,,,,,,,,,,,,,,,,,,,300,2023-11-09_15h29.50.690,leap3,2022.2.5,60.00299966988878,
,,,,,,,,,,,,,,,,,,,,3,0,3,0,18,0,18,0,,,,,,sonnet,w,g,lower,,,,,,,4,nw,LoDemTar,None,g,1,0.7082608018536121,None,,,,,,,,,,,,,,,,,,,,300,2023-11-09_15h29.50.690,leap3,2022.2.5,60.00299966988878,
,,,,,,,,,,,,,,,,,,,,3,0,3,0,19,0,19,0,,,,,,nores,nw,h,lower,,,,,,,4,w,LoDemTar,None,h,1,0.5667106683831662,None,,,,,,,,,,,,,,,,,,,,300,2023-11-09_15h29.50.690,leap3,2022.2.5,60.00299966988878,
,,,,,,,,,,,,,,,,,,,,3,0,3,0,20,0,20,0,,,,,,desert,w,g,lower,,,,,,,4,nw,LoDemTar,None,g,1,0.6153644297737628,None,,,,,,,,,,,,,,,,,,,,300,2023-11-09_15h29.50.690,leap3,2022.2.5,60.00299966988878,
,,,,,,,,,,,,,,,,,,,,3,0,3,0,21,0,21,0,,,,,,racile,nw,h,lower,,,,,,,4,w,LoDemTar,None,h,1,0.7663738396950066,None,,,,,,,,,,,,,,,,,,,,300,2023-11-09_15h29.50.690,leap3,2022.2.5,60.00299966988878,
,,,,,,,,,,,,,,,,,,,,3,0,3,0,22,0,22,0,,,,,,omners,nw,h,lower,,,,,,,4,nw,LoDemTar,None,h,1,0.7426591038238257,None,,,,,,,,,,,,,,,,,,,,300,2023-11-09_15h29.50.690,leap3,2022.2.5,60.00299966988878,
,,,,,,,,,,,,,,,,,,,,3,0,3,0,23,0,23,0,,,,,,fragment,w,g,lower,,,,,,,4,nw,LoDemTar,None,g,1,0.6239056545309722,None,,,,,,,,,,,,,,,,,,,,300,2023-11-09_15h29.50.690,leap3,2022.2.5,60.00299966988878,
,,,,,,,,,,,,,,,,,,,,3,0,3,0,24,0,24,0,,,,,,fallacy,w,g,lower,,,,,,,4,w,LoDemTar,None,g,1,0.6539441212080419,None,,,,,,,,,,,,,,,,,,,,300,2023-11-09_15h29.50.690,leap3,2022.2.5,60.00299966988878,
,,,,,,,,,,,,,,,,,,,,3,0,3,0,25,0,25,0,,,,,,stuggard,nw,h,lower,,,,,,,4,w,LoDemTar,None,h,1,1.1777437760028988,None,,,,,,,,,,,,,,,,,,,,300,2023-11-09_15h29.50.690,leap3,2022.2.5,60.00299966988878,
,,,,,,,,,,,,,,,,,,,,3,0,3,0,26,0,26,0,,,,,,slowning,nw,h,lower,,,,,,,4,nw,LoDemTar,None,h,1,0.8336250178981572,None,,,,,,,,,,,,,,,,,,,,300,2023-11-09_15h29.50.690,leap3,2022.2.5,60.00299966988878,
,,,,,,,,,,,,,,,,,,,,3,0,3,0,27,0,27,0,,,,,,overwork,w,g,lower,,,,,,,4,nw,LoDemTar,None,g,1,0.5745722102001309,None,,,,,,,,,,,,,,,,,,,,300,2023-11-09_15h29.50.690,leap3,2022.2.5,60.00299966988878,
,,,,,,,,,,,,,,,,,,,,3,0,3,0,28,0,28,0,,,,,,mebase,nw,h,lower,,,,,,,4,w,LoDemTar,None,h,1,0.5913295510690659,None,,,,,,,,,,,,,,,,,,,,300,2023-11-09_15h29.50.690,leap3,2022.2.5,60.00299966988878,
,,,,,,,,,,,,,,,,,,,,3,0,3,0,29,0,29,0,,,,,,puyer,nw,h,lower,,,,,,,4,nw,LoDemTar,None,h,1,0.5590275719296187,None,,,,,,,,,,,,,,,,,,,,300,2023-11-09_15h29.50.690,leap3,2022.2.5,60.00299966988878,
,,,,,,,,,,,,,,,,,,,,3,0,3,0,,,,,,,,,,,,,,,,,,,,,,,,,,,,,,,,,,,,,,,,,,,,,,,300,2023-11-09_15h29.50.690,leap3,2022.2.5,60.00299966988878,
,,,,,,,,,,,,,,,,,,,,4,0,4,0,0,0,0,0,,,,,,gigglod,nw,h,lower,,,,,,,3,nw,LoDemNoTar,None,h,1,0.5436613792553544,None,,,,,,,,,,,,,,,,,,,,300,2023-11-09_15h29.50.690,leap3,2022.2.5,60.00299966988878,
,,,,,,,,,,,,,,,,,,,,4,0,4,0,1,0,1,0,,,,,,wrestle,w,g,lower,,,,,,,3,w,LoDemNoTar,None,g,1,0.6000707410275936,None,,,,,,,,,,,,,,,,,,,,300,2023-11-09_15h29.50.690,leap3,2022.2.5,60.00299966988878,
,,,,,,,,,,,,,,,,,,,,4,0,4,0,2,0,2,0,,,,,,rivet,w,g,lower,,,,,,,3,w,LoDemNoTar,None,g,1,1.1674621265847236,None,,,,,,,,,,,,,,,,,,,,300,2023-11-09_15h29.50.690,leap3,2022.2.5,60.00299966988878,
,,,,,,,,,,,,,,,,,,,,4,0,4,0,3,0,3,0,,,,,,lifetime,w,g,lower,,,,,,,3,w,LoDemNoTar,None,g,1,0.5753224105574191,None,,,,,,,,,,,,,,,,,,,,300,2023-11-09_15h29.50.690,leap3,2022.2.5,60.00299966988878,
,,,,,,,,,,,,,,,,,,,,4,0,4,0,4,0,4,0,,,,,,fidelity,w,g,lower,,,,,,,3,w,LoDemNoTar,None,g,1,0.5994420426432043,None,,,,,,,,,,,,,,,,,,,,300,2023-11-09_15h29.50.690,leap3,2022.2.5,60.00299966988878,
,,,,,,,,,,,,,,,,,,,,4,0,4,0,5,0,5,0,,,,,,spiud,nw,h,lower,,,,,,,3,nw,LoDemNoTar,None,h,1,0.6786679525393993,None,,,,,,,,,,,,,,,,,,,,300,2023-11-09_15h29.50.690,leap3,2022.2.5,60.00299966988878,
,,,,,,,,,,,,,,,,,,,,4,0,4,0,6,0,6,0,,,,,,pakened,nw,h,lower,,,,,,,3,nw,LoDemNoTar,None,h,1,0.7307982596103102,None,,,,,,,,,,,,,,,,,,,,300,2023-11-09_15h29.50.690,leap3,2022.2.5,60.00299966988878,
,,,,,,,,,,,,,,,,,,,,4,0,4,0,7,0,7,0,,,,,,rualify,nw,h,lower,,,,,,,3,nw,LoDemNoTar,None,h,1,0.6687253166455775,None,,,,,,,,,,,,,,,,,,,,300,2023-11-09_15h29.50.690,leap3,2022.2.5,60.00299966988878,
,,,,,,,,,,,,,,,,,,,,4,0,4,0,8,0,8,0,,,,,,target,w,g,lower,,,,,,,3,w,LoDemNoTar,None,g,1,0.7127212816849351,None,,,,,,,,,,,,,,,,,,,,300,2023-11-09_15h29.50.690,leap3,2022.2.5,60.00299966988878,
,,,,,,,,,,,,,,,,,,,,4,0,4,0,9,0,9,0,,,,,,solidity,w,g,lower,,,,,,,3,w,LoDemNoTar,None,g,1,0.9713897192850709,None,,,,,,,,,,,,,,,,,,,,300,2023-11-09_15h29.50.690,leap3,2022.2.5,60.00299966988878,
,,,,,,,,,,,,,,,,,,,,4,0,4,0,10,0,10,0,,,,,,chone,nw,h,lower,,,,,,,3,nw,LoDemNoTar,None,h,1,0.5144542243797332,None,,,,,,,,,,,,,,,,,,,,300,2023-11-09_15h29.50.690,leap3,2022.2.5,60.00299966988878,
,,,,,,,,,,,,,,,,,,,,4,0,4,0,11,0,11,0,,,,,,unrealon,nw,h,lower,,,,,,,3,nw,LoDemNoTar,None,h,1,0.6770096328109503,None,,,,,,,,,,,,,,,,,,,,300,2023-11-09_15h29.50.690,leap3,2022.2.5,60.00299966988878,
,,,,,,,,,,,,,,,,,,,,4,0,4,0,12,0,12,0,,,,,,virulent,w,g,lower,,,,,,,3,w,LoDemNoTar,None,g,1,1.3130304331425577,None,,,,,,,,,,,,,,,,,,,,300,2023-11-09_15h29.50.690,leap3,2022.2.5,60.00299966988878,
,,,,,,,,,,,,,,,,,,,,4,0,4,0,13,0,13,0,,,,,,micron,w,g,lower,,,,,,,3,w,LoDemNoTar,None,h,0,0.6996457488276064,None,,,,,,,,,,,,,,,,,,,,300,2023-11-09_15h29.50.690,leap3,2022.2.5,60.00299966988878,
,,,,,,,,,,,,,,,,,,,,4,0,4,0,14,0,14,0,,,,,,showdown,w,g,lower,,,,,,,3,w,LoDemNoTar,None,g,1,0.6389702442102134,None,,,,,,,,,,,,,,,,,,,,300,2023-11-09_15h29.50.690,leap3,2022.2.5,60.00299966988878,
,,,,,,,,,,,,,,,,,,,,4,0,4,0,15,0,15,0,,,,,,ebince,nw,h,lower,,,,,,,3,nw,LoDemNoTar,None,h,1,0.5403834744356573,None,,,,,,,,,,,,,,,,,,,,300,2023-11-09_15h29.50.690,leap3,2022.2.5,60.00299966988878,
,,,,,,,,,,,,,,,,,,,,4,0,4,0,16,0,16,0,,,,,,record,w,g,lower,,,,,,,3,w,LoDemNoTar,None,g,1,0.5415875688195229,None,,,,,,,,,,,,,,,,,,,,300,2023-11-09_15h29.50.690,leap3,2022.2.5,60.00299966988878,
,,,,,,,,,,,,,,,,,,,,4,0,4,0,17,0,17,0,,,,,,describe,w,g,lower,,,,,,,3,w,LoDemNoTar,None,g,1,0.8949504094198346,None,,,,,,,,,,,,,,,,,,,,300,2023-11-09_15h29.50.690,leap3,2022.2.5,60.00299966988878,
,,,,,,,,,,,,,,,,,,,,4,0,4,0,18,0,18,0,,,,,,lawsuit,w,g,lower,,,,,,,3,w,LoDemNoTar,None,g,1,0.8725794786587358,None,,,,,,,,,,,,,,,,,,,,300,2023-11-09_15h29.50.690,leap3,2022.2.5,60.00299966988878,
,,,,,,,,,,,,,,,,,,,,4,0,4,0,19,0,19,0,,,,,,oppose,w,g,lower,,,,,,,3,w,LoDemNoTar,None,g,1,1.0934071685187519,None,,,,,,,,,,,,,,,,,,,,300,2023-11-09_15h29.50.690,leap3,2022.2.5,60.00299966988878,
,,,,,,,,,,,,,,,,,,,,4,0,4,0,20,0,20,0,,,,,,kilotin,nw,h,lower,,,,,,,3,nw,LoDemNoTar,None,h,1,0.6329322250094265,None,,,,,,,,,,,,,,,,,,,,300,2023-11-09_15h29.50.690,leap3,2022.2.5,60.00299966988878,
,,,,,,,,,,,,,,,,,,,,4,0,4,0,21,0,21,0,,,,,,eightiech,nw,h,lower,,,,,,,3,nw,LoDemNoTar,None,h,1,0.8146087999921292,None,,,,,,,,,,,,,,,,,,,,300,2023-11-09_15h29.50.690,leap3,2022.2.5,60.00299966988878,
,,,,,,,,,,,,,,,,,,,,4,0,4,0,22,0,22,0,,,,,,ezulated,nw,h,lower,,,,,,,3,nw,LoDemNoTar,None,h,1,0.7064419137313962,None,,,,,,,,,,,,,,,,,,,,300,2023-11-09_15h29.50.690,leap3,2022.2.5,60.00299966988878,
,,,,,,,,,,,,,,,,,,,,4,0,4,0,23,0,23,0,,,,,,guffy,nw,h,lower,,,,,,,3,nw,LoDemNoTar,None,h,1,0.6401081252843142,None,,,,,,,,,,,,,,,,,,,,300,2023-11-09_15h29.50.690,leap3,2022.2.5,60.00299966988878,
,,,,,,,,,,,,,,,,,,,,4,0,4,0,24,0,24,0,,,,,,gelented,nw,h,lower,,,,,,,3,nw,LoDemNoTar,None,g,0,1.3893949217163026,None,,,,,,,,,,,,,,,,,,,,300,2023-11-09_15h29.50.690,leap3,2022.2.5,60.00299966988878,
,,,,,,,,,,,,,,,,,,,,4,0,4,0,25,0,25,0,,,,,,fraft,nw,h,lower,,,,,,,3,nw,LoDemNoTar,None,h,1,0.6206942943390459,None,,,,,,,,,,,,,,,,,,,,300,2023-11-09_15h29.50.690,leap3,2022.2.5,60.00299966988878,
,,,,,,,,,,,,,,,,,,,,4,0,4,0,26,0,26,0,,,,,,persona,w,g,lower,,,,,,,3,w,LoDemNoTar,None,g,1,0.6502907851245254,None,,,,,,,,,,,,,,,,,,,,300,2023-11-09_15h29.50.690,leap3,2022.2.5,60.00299966988878,
,,,,,,,,,,,,,,,,,,,,4,0,4,0,27,0,27,0,,,,,,misobeyed,nw,h,lower,,,,,,,3,nw,LoDemNoTar,None,g,0,0.6705197053961456,None,,,,,,,,,,,,,,,,,,,,300,2023-11-09_15h29.50.690,leap3,2022.2.5,60.00299966988878,
,,,,,,,,,,,,,,,,,,,,4,0,4,0,28,0,28,0,,,,,,gigoho,nw,h,lower,,,,,,,3,nw,LoDemNoTar,None,h,1,0.5464433440938592,None,,,,,,,,,,,,,,,,,,,,300,2023-11-09_15h29.50.690,leap3,2022.2.5,60.00299966988878,
,,,,,,,,,,,,,,,,,,,,4,0,4,0,29,0,29,0,,,,,,sunshine,w,g,lower,,,,,,,3,w,LoDemNoTar,None,g,1,0.5476725997868925,None,,,,,,,,,,,,,,,,,,,,300,2023-11-09_15h29.50.690,leap3,2022.2.5,60.00299966988878,
,,,,,,,,,,,,,,,,,,,,4,0,4,0,,,,,,,,,,,,,,,,,,,,,,,,,,,,,,,,,,,,,,,,,,,,,,,300,2023-11-09_15h29.50.690,leap3,2022.2.5,60.00299966988878,
,,,,,,,,,,,,,,,,,,,,5,0,5,0,0,0,0,0,,,,,,facienda,nw,h,upper,,,,,,,2,nw,HiDemNoTar,None,h,1,0.6205906700342894,None,,,,,,,,,,,,,,,,,,,,300,2023-11-09_15h29.50.690,leap3,2022.2.5,60.00299966988878,
,,,,,,,,,,,,,,,,,,,,5,0,5,0,1,0,1,0,,,,,,chappef,nw,h,upper,,,,,,,2,nw,HiDemNoTar,None,h,1,0.5470256928820163,None,,,,,,,,,,,,,,,,,,,,300,2023-11-09_15h29.50.690,leap3,2022.2.5,60.00299966988878,
,,,,,,,,,,,,,,,,,,,,5,0,5,0,2,0,2,0,,,,,,purpose,w,g,upper,,,,,,,2,w,HiDemNoTar,None,g,1,0.5965293059125543,None,,,,,,,,,,,,,,,,,,,,300,2023-11-09_15h29.50.690,leap3,2022.2.5,60.00299966988878,
,,,,,,,,,,,,,,,,,,,,5,0,5,0,3,0,3,0,,,,,,pastnoss,nw,h,upper,,,,,,,2,nw,HiDemNoTar,None,h,1,0.5156758655793965,None,,,,,,,,,,,,,,,,,,,,300,2023-11-09_15h29.50.690,leap3,2022.2.5,60.00299966988878,
,,,,,,,,,,,,,,,,,,,,5,0,5,0,4,0,4,0,,,,,,assent,w,g,upper,,,,,,,2,w,HiDemNoTar,None,h,0,0.5574357968289405,None,,,,,,,,,,,,,,,,,,,,300,2023-11-09_15h29.50.690,leap3,2022.2.5,60.00299966988878,
,,,,,,,,,,,,,,,,,,,,5,0,5,0,5,0,5,0,,,,,,prame,nw,h,upper,,,,,,,2,nw,HiDemNoTar,None,h,1,0.5100536677055061,None,,,,,,,,,,,,,,,,,,,,300,2023-11-09_15h29.50.690,leap3,2022.2.5,60.00299966988878,
,,,,,,,,,,,,,,,,,,,,5,0,5,0,6,0,6,0,,,,,,pregs,nw,h,upper,,,,,,,2,nw,HiDemNoTar,None,h,1,0.39280757145024836,None,,,,,,,,,,,,,,,,,,,,300,2023-11-09_15h29.50.690,leap3,2022.2.5,60.00299966988878,
,,,,,,,,,,,,,,,,,,,,5,0,5,0,7,0,7,0,,,,,,image,w,g,upper,,,,,,,2,w,HiDemNoTar,None,g,1,0.47223940561525524,None,,,,,,,,,,,,,,,,,,,,300,2023-11-09_15h29.50.690,leap3,2022.2.5,60.00299966988878,
,,,,,,,,,,,,,,,,,,,,5,0,5,0,8,0,8,0,,,,,,guitar,w,g,upper,,,,,,,2,w,HiDemNoTar,None,g,1,0.42813981627114117,None,,,,,,,,,,,,,,,,,,,,300,2023-11-09_15h29.50.690,leap3,2022.2.5,60.00299966988878,
,,,,,,,,,,,,,,,,,,,,5,0,5,0,9,0,9,0,,,,,,column,w,g,upper,,,,,,,2,w,HiDemNoTar,None,g,1,0.49018230102956295,None,,,,,,,,,,,,,,,,,,,,300,2023-11-09_15h29.50.690,leap3,2022.2.5,60.00299966988878,
,,,,,,,,,,,,,,,,,,,,5,0,5,0,10,0,10,0,,,,,,humanize,w,g,upper,,,,,,,2,w,HiDemNoTar,None,g,1,0.4841535515151918,None,,,,,,,,,,,,,,,,,,,,300,2023-11-09_15h29.50.690,leap3,2022.2.5,60.00299966988878,
,,,,,,,,,,,,,,,,,,,,5,0,5,0,11,0,11,0,,,,,,thorifies,nw,h,upper,,,,,,,2,nw,HiDemNoTar,None,h,1,0.5774160849396139,None,,,,,,,,,,,,,,,,,,,,300,2023-11-09_15h29.50.690,leap3,2022.2.5,60.00299966988878,
,,,,,,,,,,,,,,,,,,,,5,0,5,0,12,0,12,0,,,,,,hangar,w,g,upper,,,,,,,2,w,HiDemNoTar,None,h,0,0.5776994791813195,None,,,,,,,,,,,,,,,,,,,,300,2023-11-09_15h29.50.690,leap3,2022.2.5,60.00299966988878,
,,,,,,,,,,,,,,,,,,,,5,0,5,0,13,0,13,0,,,,,,prawls,nw,h,upper,,,,,,,2,nw,HiDemNoTar,None,g,0,0.6247578235343099,None,,,,,,,,,,,,,,,,,,,,300,2023-11-09_15h29.50.690,leap3,2022.2.5,60.00299966988878,
,,,,,,,,,,,,,,,,,,,,5,0,5,0,14,0,14,0,,,,,,preclude,w,g,upper,,,,,,,2,w,HiDemNoTar,None,g,1,0.5667950906790793,None,,,,,,,,,,,,,,,,,,,,300,2023-11-09_15h29.50.690,leap3,2022.2.5,60.00299966988878,
,,,,,,,,,,,,,,,,,,,,5,0,5,0,15,0,15,0,,,,,,egect,nw,h,upper,,,,,,,2,nw,HiDemNoTar,None,h,1,0.6233216503169388,None,,,,,,,,,,,,,,,,,,,,300,2023-11-09_15h29.50.690,leap3,2022.2.5,60.00299966988878,
,,,,,,,,,,,,,,,,,,,,5,0,5,0,16,0,16,0,,,,,,brimitar,nw,h,upper,,,,,,,2,nw,HiDemNoTar,None,h,1,0.4935108593199402,None,,,,,,,,,,,,,,,,,,,,300,2023-11-09_15h29.50.690,leap3,2022.2.5,60.00299966988878,
,,,,,,,,,,,,,,,,,,,,5,0,5,0,17,0,17,0,,,,,,ethical,w,g,upper,,,,,,,2,w,HiDemNoTar,None,g,1,0.5526985439937562,None,,,,,,,,,,,,,,,,,,,,300,2023-11-09_15h29.50.690,leap3,2022.2.5,60.00299966988878,
,,,,,,,,,,,,,,,,,,,,5,0,5,0,18,0,18,0,,,,,,perishing,w,g,upper,,,,,,,2,w,HiDemNoTar,None,h,0,0.7613353149499744,None,,,,,,,,,,,,,,,,,,,,300,2023-11-09_15h29.50.690,leap3,2022.2.5,60.00299966988878,
,,,,,,,,,,,,,,,,,,,,5,0,5,0,19,0,19,0,,,,,,iolize,nw,h,upper,,,,,,,2,nw,HiDemNoTar,None,h,1,0.6340277292765677,None,,,,,,,,,,,,,,,,,,,,300,2023-11-09_15h29.50.690,leap3,2022.2.5,60.00299966988878,
,,,,,,,,,,,,,,,,,,,,5,0,5,0,20,0,20,0,,,,,,olerates,nw,h,upper,,,,,,,2,nw,HiDemNoTar,None,h,1,0.4954188042320311,None,,,,,,,,,,,,,,,,,,,,300,2023-11-09_15h29.50.690,leap3,2022.2.5,60.00299966988878,
,,,,,,,,,,,,,,,,,,,,5,0,5,0,21,0,21,0,,,,,,wrecber,nw,h,upper,,,,,,,2,nw,HiDemNoTar,None,h,1,0.5387162156403065,None,,,,,,,,,,,,,,,,,,,,300,2023-11-09_15h29.50.690,leap3,2022.2.5,60.00299966988878,
,,,,,,,,,,,,,,,,,,,,5,0,5,0,22,0,22,0,,,,,,brudent,nw,h,upper,,,,,,,2,nw,HiDemNoTar,None,h,1,0.6360899521969259,None,,,,,,,,,,,,,,,,,,,,300,2023-11-09_15h29.50.690,leap3,2022.2.5,60.00299966988878,
,,,,,,,,,,,,,,,,,,,,5,0,5,0,23,0,23,0,,,,,,outrank,w,g,upper,,,,,,,2,w,HiDemNoTar,None,g,1,0.5364964043255895,None,,,,,,,,,,,,,,,,,,,,300,2023-11-09_15h29.50.690,leap3,2022.2.5,60.00299966988878,
,,,,,,,,,,,,,,,,,,,,5,0,5,0,24,0,24,0,,,,,,ready,w,g,upper,,,,,,,2,w,HiDemNoTar,None,g,1,0.48172318120487034,None,,,,,,,,,,,,,,,,,,,,300,2023-11-09_15h29.50.690,leap3,2022.2.5,60.00299966988878,
,,,,,,,,,,,,,,,,,,,,5,0,5,0,25,0,25,0,,,,,,flougy,nw,h,upper,,,,,,,2,nw,HiDemNoTar,None,h,1,0.6697794373612851,None,,,,,,,,,,,,,,,,,,,,300,2023-11-09_15h29.50.690,leap3,2022.2.5,60.00299966988878,
,,,,,,,,,,,,,,,,,,,,5,0,5,0,26,0,26,0,,,,,,airbis,nw,h,upper,,,,,,,2,nw,HiDemNoTar,None,h,1,0.56988196936436,None,,,,,,,,,,,,,,,,,,,,300,2023-11-09_15h29.50.690,leap3,2022.2.5,60.00299966988878,
,,,,,,,,,,,,,,,,,,,,5,0,5,0,27,0,27,0,,,,,,issue,w,g,upper,,,,,,,2,w,HiDemNoTar,None,g,1,0.5698826315347105,None,,,,,,,,,,,,,,,,,,,,300,2023-11-09_15h29.50.690,leap3,2022.2.5,60.00299966988878,
,,,,,,,,,,,,,,,,,,,,5,0,5,0,28,0,28,0,,,,,,fictional,w,g,upper,,,,,,,2,w,HiDemNoTar,None,g,1,0.5618575415574014,None,,,,,,,,,,,,,,,,,,,,300,2023-11-09_15h29.50.690,leap3,2022.2.5,60.00299966988878,
,,,,,,,,,,,,,,,,,,,,5,0,5,0,29,0,29,0,,,,,,entitle,w,g,upper,,,,,,,2,w,HiDemNoTar,None,g,1,0.6106741887051612,None,,,,,,,,,,,,,,,,,,,,300,2023-11-09_15h29.50.690,leap3,2022.2.5,60.00299966988878,
,,,,,,,,,,,,,,,,,,,,5,0,5,0,,,,,,,,,,,,,,,,,,,,,,,,,,,,,,,,,,,,,,,,,,,,,,,300,2023-11-09_15h29.50.690,leap3,2022.2.5,60.00299966988878,
,,,,,,,,,,,,,,,,,,,,6,0,6,0,0,0,0,0,,,,,,previous,w,g,upper,,,,,,,1,w,HiDemTar,None,g,1,0.6482974246609956,None,,,,,,,,,,,,,,,,,,,,300,2023-11-09_15h29.50.690,leap3,2022.2.5,60.00299966988878,
,,,,,,,,,,,,,,,,,,,,6,0,6,0,1,0,1,0,,,,,,absent,w,g,upper,,,,,,,1,w,HiDemTar,None,g,1,0.5016538088675588,None,,,,,,,,,,,,,,,,,,,,300,2023-11-09_15h29.50.690,leap3,2022.2.5,60.00299966988878,
,,,,,,,,,,,,,,,,,,,,6,0,6,0,2,0,2,0,,,,,,alchemist,w,g,upper,,,,,,,1,w,HiDemTar,None,g,1,0.47247876785695553,None,,,,,,,,,,,,,,,,,,,,300,2023-11-09_15h29.50.690,leap3,2022.2.5,60.00299966988878,
,,,,,,,,,,,,,,,,,,,,6,0,6,0,3,0,3,0,,,,,,arrigns,nw,h,upper,,,,,,,1,nw,HiDemTar,None,h,1,0.6285720586311072,None,,,,,,,,,,,,,,,,,,,,300,2023-11-09_15h29.50.690,leap3,2022.2.5,60.00299966988878,
,,,,,,,,,,,,,,,,,,,,6,0,6,0,4,0,4,0,,,,,,adok,nw,h,upper,,,,,,,1,nw,HiDemTar,None,h,1,0.4984100041911006,None,,,,,,,,,,,,,,,,,,,,300,2023-11-09_15h29.50.690,leap3,2022.2.5,60.00299966988878,
,,,,,,,,,,,,,,,,,,,,6,0,6,0,5,0,5,0,,,,,,lignpost,nw,h,upper,,,,,,,1,nw,HiDemTar,None,h,1,0.9338856679387391,None,,,,,,,,,,,,,,,,,,,,300,2023-11-09_15h29.50.690,leap3,2022.2.5,60.00299966988878,
,,,,,,,,,,,,,,,,,,,,6,0,6,0,6,0,6,0,,,,,,slutches,nw,h,upper,,,,,,,1,nw,HiDemTar,None,h,1,0.6078253479208797,None,,,,,,,,,,,,,,,,,,,,300,2023-11-09_15h29.50.690,leap3,2022.2.5,60.00299966988878,
,,,,,,,,,,,,,,,,,,,,6,0,6,0,7,0,7,0,,,,,,podes,nw,h,upper,,,,,,,1,nw,HiDemTar,None,h,1,0.5025238557718694,None,,,,,,,,,,,,,,,,,,,,300,2023-11-09_15h29.50.690,leap3,2022.2.5,60.00299966988878,
,,,,,,,,,,,,,,,,,,,,6,0,6,0,8,0,8,0,,,,,,finish,w,g,upper,,,,,,,1,w,HiDemTar,None,g,1,0.505289267282933,None,,,,,,,,,,,,,,,,,,,,300,2023-11-09_15h29.50.690,leap3,2022.2.5,60.00299966988878,
,,,,,,,,,,,,,,,,,,,,6,0,6,0,9,0,9,0,,,,,,cobalt,w,g,upper,,,,,,,1,w,HiDemTar,None,h,0,0.5547726852819324,None,,,,,,,,,,,,,,,,,,,,300,2023-11-09_15h29.50.690,leap3,2022.2.5,60.00299966988878,
,,,,,,,,,,,,,,,,,,,,6,0,6,0,10,0,10,0,,,,,,threaded,w,g,upper,,,,,,,1,w,HiDemTar,None,g,1,0.6679622048977762,None,,,,,,,,,,,,,,,,,,,,300,2023-11-09_15h29.50.690,leap3,2022.2.5,60.00299966988878,
,,,,,,,,,,,,,,,,,,,,6,0,6,0,11,0,11,0,,,,,,exit,w,g,upper,,,,,,,1,w,HiDemTar,None,g,1,0.4876794263254851,None,,,,,,,,,,,,,,,,,,,,300,2023-11-09_15h29.50.690,leap3,2022.2.5,60.00299966988878,
,,,,,,,,,,,,,,,,,,,,6,0,6,0,12,0,12,0,,,,,,sullen,w,g,upper,,,,,,,1,w,HiDemTar,None,g,1,0.5311724990606308,None,,,,,,,,,,,,,,,,,,,,300,2023-11-09_15h29.50.690,leap3,2022.2.5,60.00299966988878,
,,,,,,,,,,,,,,,,,,,,6,0,6,0,13,0,13,0,,,,,,culer,nw,h,upper,,,,,,,1,nw,HiDemTar,None,h,1,0.5651135961525142,None,,,,,,,,,,,,,,,,,,,,300,2023-11-09_15h29.50.690,leap3,2022.2.5,60.00299966988878,
,,,,,,,,,,,,,,,,,,,,6,0,6,0,14,0,14,0,,,,,,contusiok,nw,h,upper,,,,,,,1,nw,HiDemTar,None,h,1,0.645775348180905,None,,,,,,,,,,,,,,,,,,,,300,2023-11-09_15h29.50.690,leap3,2022.2.5,60.00299966988878,
,,,,,,,,,,,,,,,,,,,,6,0,6,0,15,0,15,0,,,,,,ausht,nw,h,upper,,,,,,,1,nw,HiDemTar,None,h,1,0.53128009615466,None,,,,,,,,,,,,,,,,,,,,300,2023-11-09_15h29.50.690,leap3,2022.2.5,60.00299966988878,
,,,,,,,,,,,,,,,,,,,,6,0,6,0,16,0,16,0,,,,,,loneliest,w,g,upper,,,,,,,1,w,HiDemTar,None,g,1,0.5091813034377992,None,,,,,,,,,,,,,,,,,,,,300,2023-11-09_15h29.50.690,leap3,2022.2.5,60.00299966988878,
,,,,,,,,,,,,,,,,,,,,6,0,6,0,17,0,17,0,,,,,,amplifier,w,g,upper,,,,,,,1,w,HiDemTar,None,g,1,0.5601330082863569,None,,,,,,,,,,,,,,,,,,,,300,2023-11-09_15h29.50.690,leap3,2022.2.5,60.00299966988878,
,,,,,,,,,,,,,,,,,,,,6,0,6,0,18,0,18,0,,,,,,ludictous,nw,h,upper,,,,,,,1,nw,HiDemTar,None,h,1,1.695806352654472,None,,,,,,,,,,,,,,,,,,,,300,2023-11-09_15h29.50.690,leap3,2022.2.5,60.00299966988878,
,,,,,,,,,,,,,,,,,,,,6,0,6,0,19,0,19,0,,,,,,chraps,nw,h,upper,,,,,,,1,nw,HiDemTar,None,h,1,1.5230480888858438,None,,,,,,,,,,,,,,,,,,,,300,2023-11-09_15h29.50.690,leap3,2022.2.5,60.00299966988878,
,,,,,,,,,,,,,,,,,,,,6,0,6,0,20,0,20,0,,,,,,schides,nw,h,upper,,,,,,,1,nw,HiDemTar,None,h,1,0.8290317796636373,None,,,,,,,,,,,,,,,,,,,,300,2023-11-09_15h29.50.690,leap3,2022.2.5,60.00299966988878,
,,,,,,,,,,,,,,,,,,,,6,0,6,0,21,0,21,0,,,,,,surface,w,g,upper,,,,,,,1,w,HiDemTar,None,g,1,0.571160885039717,None,,,,,,,,,,,,,,,,,,,,300,2023-11-09_15h29.50.690,leap3,2022.2.5,60.00299966988878,
,,,,,,,,,,,,,,,,,,,,6,0,6,0,22,0,22,0,,,,,,frader,nw,h,upper,,,,,,,1,nw,HiDemTar,None,h,1,0.6107374227140099,None,,,,,,,,,,,,,,,,,,,,300,2023-11-09_15h29.50.690,leap3,2022.2.5,60.00299966988878,
,,,,,,,,,,,,,,,,,,,,6,0,6,0,23,0,23,0,,,,,,crocodile,target,q,upper,,,,,,,1,target,HiDemTar,None,g,0,0.5059159791562706,None,,,,,,,,,,,,,,,,,,,,300,2023-11-09_15h29.50.690,leap3,2022.2.5,60.00299966988878,
,,,,,,,,,,,,,,,,,,,,6,0,6,0,24,0,24,0,,,,,,undertake,w,g,upper,,,,,,,1,aftertar1,HiDemTar,None,g,1,0.6922404186334461,None,,,,,,,,,,,,,,,,,,,,300,2023-11-09_15h29.50.690,leap3,2022.2.5,60.00299966988878,
,,,,,,,,,,,,,,,,,,,,6,0,6,0,25,0,25,0,,,,,,moral,w,g,upper,,,,,,,1,aftertar2,HiDemTar,None,g,1,0.5759338934440166,None,,,,,,,,,,,,,,,,,,,,300,2023-11-09_15h29.50.690,leap3,2022.2.5,60.00299966988878,
,,,,,,,,,,,,,,,,,,,,6,0,6,0,26,0,26,0,,,,,,bureaug,nw,h,upper,,,,,,,1,aftertar3,HiDemTar,None,h,1,0.5750280909705907,None,,,,,,,,,,,,,,,,,,,,300,2023-11-09_15h29.50.690,leap3,2022.2.5,60.00299966988878,
,,,,,,,,,,,,,,,,,,,,6,0,6,0,27,0,27,0,,,,,,ignoble,w,g,upper,,,,,,,1,nw,HiDemTar,None,h,0,0.9669438062701374,None,,,,,,,,,,,,,,,,,,,,300,2023-11-09_15h29.50.690,leap3,2022.2.5,60.00299966988878,
,,,,,,,,,,,,,,,,,,,,6,0,6,0,28,0,28,0,,,,,,tipoff,w,g,upper,,,,,,,1,w,HiDemTar,None,h,0,0.8235982907935977,None,,,,,,,,,,,,,,,,,,,,300,2023-11-09_15h29.50.690,leap3,2022.2.5,60.00299966988878,
,,,,,,,,,,,,,,,,,,,,6,0,6,0,29,0,29,0,,,,,,donastic,nw,h,upper,,,,,,,1,w,HiDemTar,None,h,1,0.6773589092772454,None,,,,,,,,,,,,,,,,,,,,300,2023-11-09_15h29.50.690,leap3,2022.2.5,60.00299966988878,
,,,,,,,,,,,,,,,,,,,,6,0,6,0,,,,,,,,,,,,,,,,,,,,,,,,,,,,,,,,,,,,,,,,,,,,,,,300,2023-11-09_15h29.50.690,leap3,2022.2.5,60.00299966988878,
,,,,,,,,,,,,,,,,,,,,7,0,7,0,0,0,0,0,,,,,,listless,w,g,upper,,,,,,,1,w,HiDemTar,None,g,1,0.9539334939327091,None,,,,,,,,,,,,,,,,,,,,300,2023-11-09_15h29.50.690,leap3,2022.2.5,60.00299966988878,
,,,,,,,,,,,,,,,,,,,,7,0,7,0,1,0,1,0,,,,,,triangle,w,g,upper,,,,,,,1,w,HiDemTar,None,g,1,0.7146020792424679,None,,,,,,,,,,,,,,,,,,,,300,2023-11-09_15h29.50.690,leap3,2022.2.5,60.00299966988878,
,,,,,,,,,,,,,,,,,,,,7,0,7,0,2,0,2,0,,,,,,cayward,nw,h,upper,,,,,,,1,nw,HiDemTar,None,h,1,4.444467099616304,None,,,,,,,,,,,,,,,,,,,,300,2023-11-09_15h29.50.690,leap3,2022.2.5,60.00299966988878,
,,,,,,,,,,,,,,,,,,,,7,0,7,0,3,0,3,0,,,,,,deserve,w,g,upper,,,,,,,1,w,HiDemTar,None,g,1,0.8737474866211414,None,,,,,,,,,,,,,,,,,,,,300,2023-11-09_15h29.50.690,leap3,2022.2.5,60.00299966988878,
,,,,,,,,,,,,,,,,,,,,7,0,7,0,4,0,4,0,,,,,,reddar,nw,h,upper,,,,,,,1,nw,HiDemTar,None,h,1,2.4616266877856106,None,,,,,,,,,,,,,,,,,,,,300,2023-11-09_15h29.50.690,leap3,2022.2.5,60.00299966988878,
,,,,,,,,,,,,,,,,,,,,7,0,7,0,5,0,5,0,,,,,,kickoff,w,g,upper,,,,,,,1,w,HiDemTar,None,g,1,0.9623949313536286,None,,,,,,,,,,,,,,,,,,,,300,2023-11-09_15h29.50.690,leap3,2022.2.5,60.00299966988878,
,,,,,,,,,,,,,,,,,,,,7,0,7,0,6,0,6,0,,,,,,hardest,w,g,upper,,,,,,,1,w,HiDemTar,None,g,1,2.4423681281041354,None,,,,,,,,,,,,,,,,,,,,300,2023-11-09_15h29.50.690,leap3,2022.2.5,60.00299966988878,
,,,,,,,,,,,,,,,,,,,,7,0,7,0,7,0,7,0,,,,,,dileting,nw,h,upper,,,,,,,1,nw,HiDemTar,None,h,1,2.1989510024432093,None,,,,,,,,,,,,,,,,,,,,300,2023-11-09_15h29.50.690,leap3,2022.2.5,60.00299966988878,
,,,,,,,,,,,,,,,,,,,,7,0,7,0,8,0,8,0,,,,,,border,w,g,upper,,,,,,,1,w,HiDemTar,None,g,1,0.7104329392313957,None,,,,,,,,,,,,,,,,,,,,300,2023-11-09_15h29.50.690,leap3,2022.2.5,60.00299966988878,
,,,,,,,,,,,,,,,,,,,,7,0,7,0,9,0,9,0,,,,,,scrobby,nw,h,upper,,,,,,,1,nw,HiDemTar,None,h,1,0.6003283117897809,None,,,,,,,,,,,,,,,,,,,,300,2023-11-09_15h29.50.690,leap3,2022.2.5,60.00299966988878,
,,,,,,,,,,,,,,,,,,,,7,0,7,0,10,0,10,0,,,,,,ottans,nw,h,upper,,,,,,,1,nw,HiDemTar,None,h,1,0.558968641795218,None,,,,,,,,,,,,,,,,,,,,300,2023-11-09_15h29.50.690,leap3,2022.2.5,60.00299966988878,
,,,,,,,,,,,,,,,,,,,,7,0,7,0,11,0,11,0,,,,,,argue,w,g,upper,,,,,,,1,w,HiDemTar,None,g,1,0.870989027665928,None,,,,,,,,,,,,,,,,,,,,300,2023-11-09_15h29.50.690,leap3,2022.2.5,60.00299966988878,
,,,,,,,,,,,,,,,,,,,,7,0,7,0,12,0,12,0,,,,,,venturous,w,g,upper,,,,,,,1,w,HiDemTar,None,g,1,0.6583436846267432,None,,,,,,,,,,,,,,,,,,,,300,2023-11-09_15h29.50.690,leap3,2022.2.5,60.00299966988878,
,,,,,,,,,,,,,,,,,,,,7,0,7,0,13,0,13,0,,,,,,pillage,w,g,upper,,,,,,,1,w,HiDemTar,None,g,1,0.5662895496934652,None,,,,,,,,,,,,,,,,,,,,300,2023-11-09_15h29.50.690,leap3,2022.2.5,60.00299966988878,
,,,,,,,,,,,,,,,,,,,,7,0,7,0,14,0,14,0,,,,,,crawfish,w,g,upper,,,,,,,1,w,HiDemTar,None,q,0,0.5415173824876547,None,q,,,,,,,,,,,,,,,,,,,300,2023-11-09_15h29.50.690,leap3,2022.2.5,60.00299966988878,
,,,,,,,,,,,,,,,,,,,,7,0,7,0,15,0,15,0,,,,,,hangar,w,g,upper,,,,,,,1,w,HiDemTar,None,g,1,0.7100349955726415,None,,,,,,,,,,,,,,,,,,,,300,2023-11-09_15h29.50.690,leap3,2022.2.5,60.00299966988878,
,,,,,,,,,,,,,,,,,,,,7,0,7,0,16,0,16,0,,,,,,joadbed,nw,h,upper,,,,,,,1,nw,HiDemTar,None,h,1,0.6642863561864942,None,,,,,,,,,,,,,,,,,,,,300,2023-11-09_15h29.50.690,leap3,2022.2.5,60.00299966988878,
,,,,,,,,,,,,,,,,,,,,7,0,7,0,17,0,17,0,,,,,,uncarled,nw,h,upper,,,,,,,1,nw,HiDemTar,None,h,1,0.7006664315704256,None,,,,,,,,,,,,,,,,,,,,300,2023-11-09_15h29.50.690,leap3,2022.2.5,60.00299966988878,
,,,,,,,,,,,,,,,,,,,,7,0,7,0,18,0,18,0,,,,,,hodels,nw,h,upper,,,,,,,1,nw,HiDemTar,None,h,1,0.6473326922859997,None,,,,,,,,,,,,,,,,,,,,300,2023-11-09_15h29.50.690,leap3,2022.2.5,60.00299966988878,
,,,,,,,,,,,,,,,,,,,,7,0,7,0,19,0,19,0,,,,,,latpin,nw,h,upper,,,,,,,1,nw,HiDemTar,None,h,1,0.5239615058526397,None,,,,,,,,,,,,,,,,,,,,300,2023-11-09_15h29.50.690,leap3,2022.2.5,60.00299966988878,
,,,,,,,,,,,,,,,,,,,,7,0,7,0,20,0,20,0,,,,,,egpended,nw,h,upper,,,,,,,1,nw,HiDemTar,None,h,1,0.629391783149913,None,,,,,,,,,,,,,,,,,,,,300,2023-11-09_15h29.50.690,leap3,2022.2.5,60.00299966988878,
,,,,,,,,,,,,,,,,,,,,7,0,7,0,21,0,21,0,,,,,,dorte,nw,h,upper,,,,,,,1,nw,HiDemTar,None,h,1,0.6187363578937948,None,,,,,,,,,,,,,,,,,,,,300,2023-11-09_15h29.50.690,leap3,2022.2.5,60.00299966988878,
,,,,,,,,,,,,,,,,,,,,7,0,7,0,22,0,22,0,,,,,,mitten,w,g,upper,,,,,,,1,w,HiDemTar,None,g,1,0.5847558637615293,None,,,,,,,,,,,,,,,,,,,,300,2023-11-09_15h29.50.690,leap3,2022.2.5,60.00299966988878,
,,,,,,,,,,,,,,,,,,,,7,0,7,0,23,0,23,0,,,,,,cegalia,nw,h,upper,,,,,,,1,nw,HiDemTar,None,h,1,0.5442079724743962,None,,,,,,,,,,,,,,,,,,,,300,2023-11-09_15h29.50.690,leap3,2022.2.5,60.00299966988878,
,,,,,,,,,,,,,,,,,,,,7,0,7,0,24,0,24,0,,,,,,quickel,nw,h,upper,,,,,,,1,nw,HiDemTar,None,h,1,0.5765635846182704,None,,,,,,,,,,,,,,,,,,,,300,2023-11-09_15h29.50.690,leap3,2022.2.5,60.00299966988878,
,,,,,,,,,,,,,,,,,,,,7,0,7,0,25,0,25,0,,,,,,lentils,w,g,upper,,,,,,,1,w,HiDemTar,None,g,1,0.5759388592559844,None,,,,,,,,,,,,,,,,,,,,300,2023-11-09_15h29.50.690,leap3,2022.2.5,60.00299966988878,
,,,,,,,,,,,,,,,,,,,,7,0,7,0,26,0,26,0,,,,,,slooping,nw,h,upper,,,,,,,1,nw,HiDemTar,None,h,1,0.7672303128056228,None,,,,,,,,,,,,,,,,,,,,300,2023-11-09_15h29.50.690,leap3,2022.2.5,60.00299966988878,
,,,,,,,,,,,,,,,,,,,,7,0,7,0,27,0,27,0,,,,,,squirrel,target,q,upper,,,,,,,1,target,HiDemTar,None,g,0,0.8232695404440165,None,,,,,,,,,,,,,,,,,,,,300,2023-11-09_15h29.50.690,leap3,2022.2.5,60.00299966988878,
,,,,,,,,,,,,,,,,,,,,7,0,7,0,28,0,28,0,,,,,,correct,w,g,upper,,,,,,,1,aftertar1,HiDemTar,None,g,1,1.6042812643572688,None,,,,,,,,,,,,,,,,,,,,300,2023-11-09_15h29.50.690,leap3,2022.2.5,60.00299966988878,
,,,,,,,,,,,,,,,,,,,,7,0,7,0,29,0,29,0,,,,,,rudder,w,g,upper,,,,,,,1,aftertar2,HiDemTar,None,g,1,1.394003058085218,None,,,,,,,,,,,,,,,,,,,,300,2023-11-09_15h29.50.690,leap3,2022.2.5,60.00299966988878,
,,,,,,,,,,,,,,,,,,,,7,0,7,0,,,,,,,,,,,,,,,,,,,,,,,,,,,,,,,,,,,,,,,,,,,,,,,300,2023-11-09_15h29.50.690,leap3,2022.2.5,60.00299966988878,
,,,,,,,,,,,,,,,,,,,,8,0,8,0,0,0,0,0,,,,,,uncle,w,g,upper,,,,,,,1,w,HiDemTar,None,g,1,0.6965264256577939,None,,,,,,,,,,,,,,,,,,,,300,2023-11-09_15h29.50.690,leap3,2022.2.5,60.00299966988878,
,,,,,,,,,,,,,,,,,,,,8,0,8,0,1,0,1,0,,,,,,tiery,nw,h,upper,,,,,,,1,nw,HiDemTar,None,h,1,0.6752592758275568,None,,,,,,,,,,,,,,,,,,,,300,2023-11-09_15h29.50.690,leap3,2022.2.5,60.00299966988878,
,,,,,,,,,,,,,,,,,,,,8,0,8,0,2,0,2,0,,,,,,coverall,w,g,upper,,,,,,,1,w,HiDemTar,None,h,0,0.6305952155962586,None,,,,,,,,,,,,,,,,,,,,300,2023-11-09_15h29.50.690,leap3,2022.2.5,60.00299966988878,
,,,,,,,,,,,,,,,,,,,,8,0,8,0,3,0,3,0,,,,,,exploit,w,g,upper,,,,,,,1,w,HiDemTar,None,g,1,0.5959155058953911,None,,,,,,,,,,,,,,,,,,,,300,2023-11-09_15h29.50.690,leap3,2022.2.5,60.00299966988878,
,,,,,,,,,,,,,,,,,,,,8,0,8,0,4,0,4,0,,,,,,potatoes,w,g,upper,,,,,,,1,w,HiDemTar,None,g,1,0.4585715918801725,None,,,,,,,,,,,,,,,,,,,,300,2023-11-09_15h29.50.690,leap3,2022.2.5,60.00299966988878,
,,,,,,,,,,,,,,,,,,,,8,0,8,0,5,0,5,0,,,,,,frogmy,nw,h,upper,,,,,,,1,nw,HiDemTar,None,h,1,0.5586395601276308,None,,,,,,,,,,,,,,,,,,,,300,2023-11-09_15h29.50.690,leap3,2022.2.5,60.00299966988878,
,,,,,,,,,,,,,,,,,,,,8,0,8,0,6,0,6,0,,,,,,staircase,w,g,upper,,,,,,,1,w,HiDemTar,None,g,1,0.5266146850772202,None,,,,,,,,,,,,,,,,,,,,300,2023-11-09_15h29.50.690,leap3,2022.2.5,60.00299966988878,
,,,,,,,,,,,,,,,,,,,,8,0,8,0,7,0,7,0,,,,,,insole,w,g,upper,,,,,,,1,w,HiDemTar,None,h,0,0.5920105581171811,None,,,,,,,,,,,,,,,,,,,,300,2023-11-09_15h29.50.690,leap3,2022.2.5,60.00299966988878,
,,,,,,,,,,,,,,,,,,,,8,0,8,0,8,0,8,0,,,,,,blueberry,w,g,upper,,,,,,,1,w,HiDemTar,None,g,1,0.5093412091955543,None,,,,,,,,,,,,,,,,,,,,300,2023-11-09_15h29.50.690,leap3,2022.2.5,60.00299966988878,
,,,,,,,,,,,,,,,,,,,,8,0,8,0,9,0,9,0,,,,,,iguana,w,g,upper,,,,,,,1,w,HiDemTar,None,q,0,0.6622142014093697,None,q,,,,,,,,,,,,,,,,,,,300,2023-11-09_15h29.50.690,leap3,2022.2.5,60.00299966988878,
,,,,,,,,,,,,,,,,,,,,8,0,8,0,10,0,10,0,,,,,,earmaff,nw,h,upper,,,,,,,1,nw,HiDemTar,None,h,1,0.5555016971193254,None,,,,,,,,,,,,,,,,,,,,300,2023-11-09_15h29.50.690,leap3,2022.2.5,60.00299966988878,
,,,,,,,,,,,,,,,,,,,,8,0,8,0,11,0,11,0,,,,,,doxing,nw,h,upper,,,,,,,1,nw,HiDemTar,None,h,1,0.9236040182877332,None,,,,,,,,,,,,,,,,,,,,300,2023-11-09_15h29.50.690,leap3,2022.2.5,60.00299966988878,
,,,,,,,,,,,,,,,,,,,,8,0,8,0,12,0,12,0,,,,,,grested,nw,h,upper,,,,,,,1,nw,HiDemTar,None,h,1,0.5812207190319896,None,,,,,,,,,,,,,,,,,,,,300,2023-11-09_15h29.50.690,leap3,2022.2.5,60.00299966988878,
,,,,,,,,,,,,,,,,,,,,8,0,8,0,13,0,13,0,,,,,,hostade,nw,h,upper,,,,,,,1,nw,HiDemTar,None,h,1,0.5563422788400203,None,,,,,,,,,,,,,,,,,,,,300,2023-11-09_15h29.50.690,leap3,2022.2.5,60.00299966988878,
,,,,,,,,,,,,,,,,,,,,8,0,8,0,14,0,14,0,,,,,,coupling,w,g,upper,,,,,,,1,w,HiDemTar,None,g,1,0.7563173163216561,None,,,,,,,,,,,,,,,,,,,,300,2023-11-09_15h29.50.690,leap3,2022.2.5,60.00299966988878,
,,,,,,,,,,,,,,,,,,,,8,0,8,0,15,0,15,0,,,,,,shillac,nw,h,upper,,,,,,,1,nw,HiDemTar,None,h,1,0.6043309245724231,None,,,,,,,,,,,,,,,,,,,,300,2023-11-09_15h29.50.690,leap3,2022.2.5,60.00299966988878,
,,,,,,,,,,,,,,,,,,,,8,0,8,0,16,0,16,0,,,,,,begut,nw,h,upper,,,,,,,1,nw,HiDemTar,None,h,1,0.5543591813184321,None,,,,,,,,,,,,,,,,,,,,300,2023-11-09_15h29.50.690,leap3,2022.2.5,60.00299966988878,
,,,,,,,,,,,,,,,,,,,,8,0,8,0,17,0,17,0,,,,,,module,w,g,upper,,,,,,,1,w,HiDemTar,None,g,1,0.5935331399086863,None,,,,,,,,,,,,,,,,,,,,300,2023-11-09_15h29.50.690,leap3,2022.2.5,60.00299966988878,
,,,,,,,,,,,,,,,,,,,,8,0,8,0,18,0,18,0,,,,,,oldest,w,g,upper,,,,,,,1,w,HiDemTar,None,g,1,0.5521648621652275,None,,,,,,,,,,,,,,,,,,,,300,2023-11-09_15h29.50.690,leap3,2022.2.5,60.00299966988878,
,,,,,,,,,,,,,,,,,,,,8,0,8,0,19,0,19,0,,,,,,alticles,nw,h,upper,,,,,,,1,nw,HiDemTar,None,h,1,0.6888009526301175,None,,,,,,,,,,,,,,,,,,,,300,2023-11-09_15h29.50.690,leap3,2022.2.5,60.00299966988878,
,,,,,,,,,,,,,,,,,,,,8,0,8,0,20,0,20,0,,,,,,oppose,w,g,upper,,,,,,,1,w,HiDemTar,None,g,1,0.5876033799722791,None,,,,,,,,,,,,,,,,,,,,300,2023-11-09_15h29.50.690,leap3,2022.2.5,60.00299966988878,
,,,,,,,,,,,,,,,,,,,,8,0,8,0,21,0,21,0,,,,,,manage,w,g,upper,,,,,,,1,w,HiDemTar,None,g,1,0.57886649412103,None,,,,,,,,,,,,,,,,,,,,300,2023-11-09_15h29.50.690,leap3,2022.2.5,60.00299966988878,
,,,,,,,,,,,,,,,,,,,,8,0,8,0,22,0,22,0,,,,,,veranpah,nw,h,upper,,,,,,,1,nw,HiDemTar,None,h,1,0.5543247503228486,None,,,,,,,,,,,,,,,,,,,,300,2023-11-09_15h29.50.690,leap3,2022.2.5,60.00299966988878,
,,,,,,,,,,,,,,,,,,,,8,0,8,0,23,0,23,0,,,,,,jaguar,target,q,upper,,,,,,,1,target,HiDemTar,None,g,0,0.5783659191802144,None,,,,,,,,,,,,,,,,,,,,300,2023-11-09_15h29.50.690,leap3,2022.2.5,60.00299966988878,
,,,,,,,,,,,,,,,,,,,,8,0,8,0,24,0,24,0,,,,,,irfirm,nw,h,upper,,,,,,,1,aftertar1,HiDemTar,None,q,0,0.27368365693837404,None,q,1,,,,,,,,,,,,,,,,,,300,2023-11-09_15h29.50.690,leap3,2022.2.5,60.00299966988878,
,,,,,,,,,,,,,,,,,,,,8,0,8,0,25,0,25,0,,,,,,carony,nw,h,upper,,,,,,,1,aftertar2,HiDemTar,None,h,1,1.0130288107320666,None,,,,,,,,,,,,,,,,,,,,300,2023-11-09_15h29.50.690,leap3,2022.2.5,60.00299966988878,
,,,,,,,,,,,,,,,,,,,,8,0,8,0,26,0,26,0,,,,,,resent,w,g,upper,,,,,,,1,aftertar3,HiDemTar,None,g,1,0.7228989759460092,None,,,,,,,,,,,,,,,,,,,,300,2023-11-09_15h29.50.690,leap3,2022.2.5,60.00299966988878,
,,,,,,,,,,,,,,,,,,,,8,0,8,0,27,0,27,0,,,,,,omission,w,g,upper,,,,,,,1,w,HiDemTar,None,g,1,0.8282395340502262,None,,,,,,,,,,,,,,,,,,,,300,2023-11-09_15h29.50.690,leap3,2022.2.5,60.00299966988878,
,,,,,,,,,,,,,,,,,,,,8,0,8,0,28,0,28,0,,,,,,nearsipe,nw,h,upper,,,,,,,1,w,HiDemTar,None,h,1,0.577591551002115,None,,,,,,,,,,,,,,,,,,,,300,2023-11-09_15h29.50.690,leap3,2022.2.5,60.00299966988878,
,,,,,,,,,,,,,,,,,,,,8,0,8,0,29,0,29,0,,,,,,legalosm,nw,h,upper,,,,,,,1,nw,HiDemTar,None,h,1,0.6568234201986343,None,,,,,,,,,,,,,,,,,,,,300,2023-11-09_15h29.50.690,leap3,2022.2.5,60.00299966988878,
,,,,,,,,,,,,,,,,,,,,8,0,8,0,,,,,,,,,,,,,,,,,,,,,,,,,,,,,,,,,,,,,,,,,,,,,,,300,2023-11-09_15h29.50.690,leap3,2022.2.5,60.00299966988878,
,,,,,,,,,,,,,,,,,,,,9,0,9,0,0,0,0,0,,,,,,browting,nw,h,lower,,,,,,,3,nw,LoDemNoTar,None,h,1,0.8056861849036068,None,,,,,,,,,,,,,,,,,,,,300,2023-11-09_15h29.50.690,leap3,2022.2.5,60.00299966988878,
,,,,,,,,,,,,,,,,,,,,9,0,9,0,1,0,1,0,,,,,,senior,w,g,lower,,,,,,,3,w,LoDemNoTar,None,g,1,0.8270029949489981,None,,,,,,,,,,,,,,,,,,,,300,2023-11-09_15h29.50.690,leap3,2022.2.5,60.00299966988878,
,,,,,,,,,,,,,,,,,,,,9,0,9,0,2,0,2,0,,,,,,felevance,nw,h,lower,,,,,,,3,nw,LoDemNoTar,None,h,1,0.6800948558375239,None,,,,,,,,,,,,,,,,,,,,300,2023-11-09_15h29.50.690,leap3,2022.2.5,60.00299966988878,
,,,,,,,,,,,,,,,,,,,,9,0,9,0,3,0,3,0,,,,,,deakers,nw,h,lower,,,,,,,3,nw,LoDemNoTar,None,h,1,0.5796130525413901,None,,,,,,,,,,,,,,,,,,,,300,2023-11-09_15h29.50.690,leap3,2022.2.5,60.00299966988878,
,,,,,,,,,,,,,,,,,,,,9,0,9,0,4,0,4,0,,,,,,caution,w,g,lower,,,,,,,3,w,LoDemNoTar,None,g,1,0.9946985659189522,None,,,,,,,,,,,,,,,,,,,,300,2023-11-09_15h29.50.690,leap3,2022.2.5,60.00299966988878,
,,,,,,,,,,,,,,,,,,,,9,0,9,0,5,0,5,0,,,,,,tasher,nw,h,lower,,,,,,,3,nw,LoDemNoTar,None,h,1,0.6255106723401695,None,,,,,,,,,,,,,,,,,,,,300,2023-11-09_15h29.50.690,leap3,2022.2.5,60.00299966988878,
,,,,,,,,,,,,,,,,,,,,9,0,9,0,6,0,6,0,,,,,,mortgage,w,g,lower,,,,,,,3,w,LoDemNoTar,None,g,1,0.6628968636505306,None,,,,,,,,,,,,,,,,,,,,300,2023-11-09_15h29.50.690,leap3,2022.2.5,60.00299966988878,
,,,,,,,,,,,,,,,,,,,,9,0,9,0,7,0,7,0,,,,,,hecture,nw,h,lower,,,,,,,3,nw,LoDemNoTar,None,h,1,0.7869543542619795,None,,,,,,,,,,,,,,,,,,,,300,2023-11-09_15h29.50.690,leap3,2022.2.5,60.00299966988878,
,,,,,,,,,,,,,,,,,,,,9,0,9,0,8,0,8,0,,,,,,student,w,g,lower,,,,,,,3,w,LoDemNoTar,None,g,1,0.49765914189629257,None,,,,,,,,,,,,,,,,,,,,300,2023-11-09_15h29.50.690,leap3,2022.2.5,60.00299966988878,
,,,,,,,,,,,,,,,,,,,,9,0,9,0,9,0,9,0,,,,,,rational,w,g,lower,,,,,,,3,w,LoDemNoTar,None,g,1,0.5803983460646123,None,,,,,,,,,,,,,,,,,,,,300,2023-11-09_15h29.50.690,leap3,2022.2.5,60.00299966988878,
,,,,,,,,,,,,,,,,,,,,9,0,9,0,10,0,10,0,,,,,,alber,nw,h,lower,,,,,,,3,nw,LoDemNoTar,None,h,1,0.5957791055552661,None,,,,,,,,,,,,,,,,,,,,300,2023-11-09_15h29.50.690,leap3,2022.2.5,60.00299966988878,
,,,,,,,,,,,,,,,,,,,,9,0,9,0,11,0,11,0,,,,,,rainfall,w,g,lower,,,,,,,3,w,LoDemNoTar,None,g,1,0.5463734888471663,None,,,,,,,,,,,,,,,,,,,,300,2023-11-09_15h29.50.690,leap3,2022.2.5,60.00299966988878,
,,,,,,,,,,,,,,,,,,,,9,0,9,0,12,0,12,0,,,,,,nogwhell,nw,h,lower,,,,,,,3,nw,LoDemNoTar,None,h,1,0.7780893449671566,None,,,,,,,,,,,,,,,,,,,,300,2023-11-09_15h29.50.690,leap3,2022.2.5,60.00299966988878,
,,,,,,,,,,,,,,,,,,,,9,0,9,0,13,0,13,0,,,,,,migmarole,nw,h,lower,,,,,,,3,nw,LoDemNoTar,None,h,1,0.5374058482702821,None,,,,,,,,,,,,,,,,,,,,300,2023-11-09_15h29.50.690,leap3,2022.2.5,60.00299966988878,
,,,,,,,,,,,,,,,,,,,,9,0,9,0,14,0,14,0,,,,,,antique,w,g,lower,,,,,,,3,w,LoDemNoTar,None,g,1,0.7301503594499081,None,,,,,,,,,,,,,,,,,,,,300,2023-11-09_15h29.50.690,leap3,2022.2.5,60.00299966988878,
,,,,,,,,,,,,,,,,,,,,9,0,9,0,15,0,15,0,,,,,,edasion,nw,h,lower,,,,,,,3,nw,LoDemNoTar,None,h,1,0.5317217409610748,None,,,,,,,,,,,,,,,,,,,,300,2023-11-09_15h29.50.690,leap3,2022.2.5,60.00299966988878,
,,,,,,,,,,,,,,,,,,,,9,0,9,0,16,0,16,0,,,,,,eaglot,nw,h,lower,,,,,,,3,nw,LoDemNoTar,None,h,1,0.8849011694546789,None,,,,,,,,,,,,,,,,,,,,300,2023-11-09_15h29.50.690,leap3,2022.2.5,60.00299966988878,
,,,,,,,,,,,,,,,,,,,,9,0,9,0,17,0,17,0,,,,,,rejoiced,w,g,lower,,,,,,,3,w,LoDemNoTar,None,h,0,0.5762844942510128,None,,,,,,,,,,,,,,,,,,,,300,2023-11-09_15h29.50.690,leap3,2022.2.5,60.00299966988878,
,,,,,,,,,,,,,,,,,,,,9,0,9,0,18,0,18,0,,,,,,noblin,nw,h,lower,,,,,,,3,nw,LoDemNoTar,q,h,1,0.7357066746335477,None,q,,0.043629431165754795,,,,,,,,,,,,,,,,,300,2023-11-09_15h29.50.690,leap3,2022.2.5,60.00299966988878,
,,,,,,,,,,,,,,,,,,,,9,0,9,0,19,0,19,0,,,,,,aicline,nw,h,lower,,,,,,,3,nw,LoDemNoTar,None,h,1,0.5851922114379704,None,,,,,,,,,,,,,,,,,,,,300,2023-11-09_15h29.50.690,leap3,2022.2.5,60.00299966988878,
,,,,,,,,,,,,,,,,,,,,9,0,9,0,20,0,20,0,,,,,,fission,w,g,lower,,,,,,,3,w,LoDemNoTar,None,g,1,0.7030762759968638,None,,,,,,,,,,,,,,,,,,,,300,2023-11-09_15h29.50.690,leap3,2022.2.5,60.00299966988878,
,,,,,,,,,,,,,,,,,,,,9,0,9,0,21,0,21,0,,,,,,dialogues,w,g,lower,,,,,,,3,w,LoDemNoTar,None,g,1,0.8167514724191278,None,,,,,,,,,,,,,,,,,,,,300,2023-11-09_15h29.50.690,leap3,2022.2.5,60.00299966988878,
,,,,,,,,,,,,,,,,,,,,9,0,9,0,22,0,22,0,,,,,,perform,w,g,lower,,,,,,,3,w,LoDemNoTar,None,g,1,0.5585034913383424,None,,,,,,,,,,,,,,,,,,,,300,2023-11-09_15h29.50.690,leap3,2022.2.5,60.00299966988878,
,,,,,,,,,,,,,,,,,,,,9,0,9,0,23,0,23,0,,,,,,acorn,w,g,lower,,,,,,,3,w,LoDemNoTar,None,g,1,0.7188983494415879,None,,,,,,,,,,,,,,,,,,,,300,2023-11-09_15h29.50.690,leap3,2022.2.5,60.00299966988878,
,,,,,,,,,,,,,,,,,,,,9,0,9,0,24,0,24,0,,,,,,sonkers,nw,h,lower,,,,,,,3,nw,LoDemNoTar,None,h,1,0.5453263204544783,None,,,,,,,,,,,,,,,,,,,,300,2023-11-09_15h29.50.690,leap3,2022.2.5,60.00299966988878,
,,,,,,,,,,,,,,,,,,,,9,0,9,0,25,0,25,0,,,,,,affluent,w,g,lower,,,,,,,3,w,LoDemNoTar,None,g,1,0.6659996334929019,None,,,,,,,,,,,,,,,,,,,,300,2023-11-09_15h29.50.690,leap3,2022.2.5,60.00299966988878,
,,,,,,,,,,,,,,,,,,,,9,0,9,0,26,0,26,0,,,,,,ilcurring,nw,h,lower,,,,,,,3,nw,LoDemNoTar,None,h,1,0.6535120776388794,None,,,,,,,,,,,,,,,,,,,,300,2023-11-09_15h29.50.690,leap3,2022.2.5,60.00299966988878,
,,,,,,,,,,,,,,,,,,,,9,0,9,0,27,0,27,0,,,,,,throttle,w,g,lower,,,,,,,3,w,LoDemNoTar,None,h,0,0.6410205487627536,None,,,,,,,,,,,,,,,,,,,,300,2023-11-09_15h29.50.690,leap3,2022.2.5,60.00299966988878,
,,,,,,,,,,,,,,,,,,,,9,0,9,0,28,0,28,0,,,,,,obviously,w,g,lower,,,,,,,3,w,LoDemNoTar,None,g,1,0.7100230769719929,None,,,,,,,,,,,,,,,,,,,,300,2023-11-09_15h29.50.690,leap3,2022.2.5,60.00299966988878,
,,,,,,,,,,,,,,,,,,,,9,0,9,0,29,0,29,0,,,,,,pypecast,nw,h,lower,,,,,,,3,nw,LoDemNoTar,None,h,1,0.7040979522280395,None,,,,,,,,,,,,,,,,,,,,300,2023-11-09_15h29.50.690,leap3,2022.2.5,60.00299966988878,
,,,,,,,,,,,,,,,,,,,,9,0,9,0,,,,,,,,,,,,,,,,,,,,,,,,,,,,,,,,,,,,,,,,,,,,,,,300,2023-11-09_15h29.50.690,leap3,2022.2.5,60.00299966988878,
,,,,,,,,,,,,,,,,,,,,10,0,10,0,0,0,0,0,,,,,,potent,w,g,upper,,,,,,,1,w,HiDemTar,None,g,1,0.5787022842559963,None,,,,,,,,,,,,,,,,,,,,300,2023-11-09_15h29.50.690,leap3,2022.2.5,60.00299966988878,
,,,,,,,,,,,,,,,,,,,,10,0,10,0,1,0,1,0,,,,,,saturate,w,g,upper,,,,,,,1,w,HiDemTar,None,g,1,0.7218435308896005,None,,,,,,,,,,,,,,,,,,,,300,2023-11-09_15h29.50.690,leap3,2022.2.5,60.00299966988878,
,,,,,,,,,,,,,,,,,,,,10,0,10,0,2,0,2,0,,,,,,minister,w,g,upper,,,,,,,1,w,HiDemTar,None,g,1,0.6112562061753124,None,,,,,,,,,,,,,,,,,,,,300,2023-11-09_15h29.50.690,leap3,2022.2.5,60.00299966988878,
,,,,,,,,,,,,,,,,,,,,10,0,10,0,3,0,3,0,,,,,,clypaper,nw,h,upper,,,,,,,1,nw,HiDemTar,None,h,1,0.6333692348562181,None,,,,,,,,,,,,,,,,,,,,300,2023-11-09_15h29.50.690,leap3,2022.2.5,60.00299966988878,
,,,,,,,,,,,,,,,,,,,,10,0,10,0,4,0,4,0,,,,,,party,w,g,upper,,,,,,,1,w,HiDemTar,None,g,1,0.5903075439855456,None,,,,,,,,,,,,,,,,,,,,300,2023-11-09_15h29.50.690,leap3,2022.2.5,60.00299966988878,
,,,,,,,,,,,,,,,,,,,,10,0,10,0,5,0,5,0,,,,,,fracture,w,g,upper,,,,,,,1,w,HiDemTar,None,g,1,0.5811074937228113,None,,,,,,,,,,,,,,,,,,,,300,2023-11-09_15h29.50.690,leap3,2022.2.5,60.00299966988878,
,,,,,,,,,,,,,,,,,,,,10,0,10,0,6,0,6,0,,,,,,earnest,w,g,upper,,,,,,,1,w,HiDemTar,None,g,1,0.6433102153241634,None,,,,,,,,,,,,,,,,,,,,300,2023-11-09_15h29.50.690,leap3,2022.2.5,60.00299966988878,
,,,,,,,,,,,,,,,,,,,,10,0,10,0,7,0,7,0,,,,,,moyeur,nw,h,upper,,,,,,,1,nw,HiDemTar,None,h,1,0.6719413117971271,None,,,,,,,,,,,,,,,,,,,,300,2023-11-09_15h29.50.690,leap3,2022.2.5,60.00299966988878,
,,,,,,,,,,,,,,,,,,,,10,0,10,0,8,0,8,0,,,,,,apticle,nw,h,upper,,,,,,,1,nw,HiDemTar,None,h,1,0.5793531641829759,None,,,,,,,,,,,,,,,,,,,,300,2023-11-09_15h29.50.690,leap3,2022.2.5,60.00299966988878,
,,,,,,,,,,,,,,,,,,,,10,0,10,0,9,0,9,0,,,,,,postal,w,g,upper,,,,,,,1,w,HiDemTar,None,g,1,0.9144274739082903,None,,,,,,,,,,,,,,,,,,,,300,2023-11-09_15h29.50.690,leap3,2022.2.5,60.00299966988878,
,,,,,,,,,,,,,,,,,,,,10,0,10,0,10,0,10,0,,,,,,traze,nw,h,upper,,,,,,,1,nw,HiDemTar,None,h,1,0.6520249198656529,None,,,,,,,,,,,,,,,,,,,,300,2023-11-09_15h29.50.690,leap3,2022.2.5,60.00299966988878,
,,,,,,,,,,,,,,,,,,,,10,0,10,0,11,0,11,0,,,,,,elephant,target,q,upper,,,,,,,1,target,HiDemTar,None,g,0,0.5766589322593063,q,q,,,0.24021764239296317,,,,,,,,,,,,,,,,300,2023-11-09_15h29.50.690,leap3,2022.2.5,60.00299966988878,
,,,,,,,,,,,,,,,,,,,,10,0,10,0,12,0,12,0,,,,,,peems,nw,h,upper,,,,,,,1,aftertar1,HiDemTar,None,q,0,0.19197506760247052,None,q,1,,,,,,,,,,,,,,,,,,300,2023-11-09_15h29.50.690,leap3,2022.2.5,60.00299966988878,
,,,,,,,,,,,,,,,,,,,,10,0,10,0,13,0,13,0,,,,,,vergas,nw,h,upper,,,,,,,1,aftertar2,HiDemTar,None,h,1,0.6706438560504466,None,,,,,,,,,,,,,,,,,,,,300,2023-11-09_15h29.50.690,leap3,2022.2.5,60.00299966988878,
,,,,,,,,,,,,,,,,,,,,10,0,10,0,14,0,14,0,,,,,,sliding,w,g,upper,,,,,,,1,aftertar3,HiDemTar,None,g,1,0.6819349320139736,None,,,,,,,,,,,,,,,,,,,,300,2023-11-09_15h29.50.690,leap3,2022.2.5,60.00299966988878,
,,,,,,,,,,,,,,,,,,,,10,0,10,0,15,0,15,0,,,,,,ergonomic,w,g,upper,,,,,,,1,w,HiDemTar,None,h,0,0.7164282507728785,None,,,,,,,,,,,,,,,,,,,,300,2023-11-09_15h29.50.690,leap3,2022.2.5,60.00299966988878,
,,,,,,,,,,,,,,,,,,,,10,0,10,0,16,0,16,0,,,,,,typical,w,g,upper,,,,,,,1,w,HiDemTar,None,g,1,1.5017772973515093,None,,,,,,,,,,,,,,,,,,,,300,2023-11-09_15h29.50.690,leap3,2022.2.5,60.00299966988878,
,,,,,,,,,,,,,,,,,,,,10,0,10,0,17,0,17,0,,,,,,walsams,nw,h,upper,,,,,,,1,w,HiDemTar,None,h,1,0.8155927343759686,None,,,,,,,,,,,,,,,,,,,,300,2023-11-09_15h29.50.690,leap3,2022.2.5,60.00299966988878,
,,,,,,,,,,,,,,,,,,,,10,0,10,0,18,0,18,0,,,,,,serfume,nw,h,upper,,,,,,,1,nw,HiDemTar,None,h,1,0.7108315452933311,None,,,,,,,,,,,,,,,,,,,,300,2023-11-09_15h29.50.690,leap3,2022.2.5,60.00299966988878,
,,,,,,,,,,,,,,,,,,,,10,0,10,0,19,0,19,0,,,,,,flacked,nw,h,upper,,,,,,,1,nw,HiDemTar,None,h,1,0.7610151721164584,None,,,,,,,,,,,,,,,,,,,,300,2023-11-09_15h29.50.690,leap3,2022.2.5,60.00299966988878,
,,,,,,,,,,,,,,,,,,,,10,0,10,0,20,0,20,0,,,,,,dehydrate,w,g,upper,,,,,,,1,nw,HiDemTar,None,g,1,0.6011109566316009,None,,,,,,,,,,,,,,,,,,,,300,2023-11-09_15h29.50.690,leap3,2022.2.5,60.00299966988878,
,,,,,,,,,,,,,,,,,,,,10,0,10,0,21,0,21,0,,,,,,gradielts,nw,h,upper,,,,,,,1,w,HiDemTar,None,h,1,1.4320586689282209,None,,,,,,,,,,,,,,,,,,,,300,2023-11-09_15h29.50.690,leap3,2022.2.5,60.00299966988878,
,,,,,,,,,,,,,,,,,,,,10,0,10,0,22,0,22,0,,,,,,ahead,w,g,upper,,,,,,,1,nw,HiDemTar,None,g,1,0.6845245466101915,None,,,,,,,,,,,,,,,,,,,,300,2023-11-09_15h29.50.690,leap3,2022.2.5,60.00299966988878,
,,,,,,,,,,,,,,,,,,,,10,0,10,0,23,0,23,0,,,,,,mamps,nw,h,upper,,,,,,,1,w,HiDemTar,None,h,1,0.7117449617944658,None,,,,,,,,,,,,,,,,,,,,300,2023-11-09_15h29.50.690,leap3,2022.2.5,60.00299966988878,
,,,,,,,,,,,,,,,,,,,,10,0,10,0,24,0,24,0,,,,,,companion,w,g,upper,,,,,,,1,nw,HiDemTar,None,g,1,0.6256093306001276,None,,,,,,,,,,,,,,,,,,,,300,2023-11-09_15h29.50.690,leap3,2022.2.5,60.00299966988878,
,,,,,,,,,,,,,,,,,,,,10,0,10,0,25,0,25,0,,,,,,otiates,nw,h,upper,,,,,,,1,w,HiDemTar,None,h,1,0.5512044336646795,None,,,,,,,,,,,,,,,,,,,,300,2023-11-09_15h29.50.690,leap3,2022.2.5,60.00299966988878,
,,,,,,,,,,,,,,,,,,,,10,0,10,0,26,0,26,0,,,,,,command,w,g,upper,,,,,,,1,nw,HiDemTar,None,g,1,0.5837788819335401,None,,,,,,,,,,,,,,,,,,,,300,2023-11-09_15h29.50.690,leap3,2022.2.5,60.00299966988878,
,,,,,,,,,,,,,,,,,,,,10,0,10,0,27,0,27,0,,,,,,vorm,nw,h,upper,,,,,,,1,w,HiDemTar,None,h,1,0.607134077930823,None,,,,,,,,,,,,,,,,,,,,300,2023-11-09_15h29.50.690,leap3,2022.2.5,60.00299966988878,
,,,,,,,,,,,,,,,,,,,,10,0,10,0,28,0,28,0,,,,,,defensa,nw,h,upper,,,,,,,1,nw,HiDemTar,None,h,1,0.7331763214897364,None,,,,,,,,,,,,,,,,,,,,300,2023-11-09_15h29.50.690,leap3,2022.2.5,60.00299966988878,
,,,,,,,,,,,,,,,,,,,,10,0,10,0,29,0,29,0,,,,,,entertain,w,g,upper,,,,,,,1,nw,HiDemTar,None,g,1,0.5347377709113061,None,,,,,,,,,,,,,,,,,,,,300,2023-11-09_15h29.50.690,leap3,2022.2.5,60.00299966988878,
,,,,,,,,,,,,,,,,,,,,10,0,10,0,,,,,,,,,,,,,,,,,,,,,,,,,,,,,,,,,,,,,,,,,,,,,,,300,2023-11-09_15h29.50.690,leap3,2022.2.5,60.00299966988878,
,,,,,,,,,,,,,,,,,,,,11,0,11,0,0,0,0,0,,,,,,educate,w,g,lower,,,,,,,3,w,LoDemNoTar,None,g,1,0.558974270010367,None,,,,,,,,,,,,,,,,,,,,300,2023-11-09_15h29.50.690,leap3,2022.2.5,60.00299966988878,
,,,,,,,,,,,,,,,,,,,,11,0,11,0,1,0,1,0,,,,,,rawhide,w,g,lower,,,,,,,3,w,LoDemNoTar,None,h,0,0.6230091222096235,None,,,,,,,,,,,,,,,,,,,,300,2023-11-09_15h29.50.690,leap3,2022.2.5,60.00299966988878,
,,,,,,,,,,,,,,,,,,,,11,0,11,0,2,0,2,0,,,,,,rocket,w,g,lower,,,,,,,3,w,LoDemNoTar,None,g,1,0.6444123408291489,None,,,,,,,,,,,,,,,,,,,,300,2023-11-09_15h29.50.690,leap3,2022.2.5,60.00299966988878,
,,,,,,,,,,,,,,,,,,,,11,0,11,0,3,0,3,0,,,,,,minimum,w,g,lower,,,,,,,3,w,LoDemNoTar,None,g,1,0.8810154236853123,None,,,,,,,,,,,,,,,,,,,,300,2023-11-09_15h29.50.690,leap3,2022.2.5,60.00299966988878,
,,,,,,,,,,,,,,,,,,,,11,0,11,0,4,0,4,0,,,,,,bengths,nw,h,lower,,,,,,,3,nw,LoDemNoTar,None,h,1,0.8445363589562476,None,,,,,,,,,,,,,,,,,,,,300,2023-11-09_15h29.50.690,leap3,2022.2.5,60.00299966988878,
,,,,,,,,,,,,,,,,,,,,11,0,11,0,5,0,5,0,,,,,,athcan,nw,h,lower,,,,,,,3,nw,LoDemNoTar,None,h,1,0.7448918267618865,None,,,,,,,,,,,,,,,,,,,,300,2023-11-09_15h29.50.690,leap3,2022.2.5,60.00299966988878,
,,,,,,,,,,,,,,,,,,,,11,0,11,0,6,0,6,0,,,,,,provide,w,g,lower,,,,,,,3,w,LoDemNoTar,None,g,1,0.5298217413946986,None,,,,,,,,,,,,,,,,,,,,300,2023-11-09_15h29.50.690,leap3,2022.2.5,60.00299966988878,
,,,,,,,,,,,,,,,,,,,,11,0,11,0,7,0,7,0,,,,,,snife,nw,h,lower,,,,,,,3,nw,LoDemNoTar,None,h,1,0.5703371877316386,None,,,,,,,,,,,,,,,,,,,,300,2023-11-09_15h29.50.690,leap3,2022.2.5,60.00299966988878,
,,,,,,,,,,,,,,,,,,,,11,0,11,0,8,0,8,0,,,,,,matter,w,g,lower,,,,,,,3,w,LoDemNoTar,None,g,1,0.4979816023260355,None,,,,,,,,,,,,,,,,,,,,300,2023-11-09_15h29.50.690,leap3,2022.2.5,60.00299966988878,
,,,,,,,,,,,,,,,,,,,,11,0,11,0,9,0,9,0,,,,,,pressing,w,g,lower,,,,,,,3,w,LoDemNoTar,None,g,1,0.5250103292055428,None,,,,,,,,,,,,,,,,,,,,300,2023-11-09_15h29.50.690,leap3,2022.2.5,60.00299966988878,
,,,,,,,,,,,,,,,,,,,,11,0,11,0,10,0,10,0,,,,,,partner,w,g,lower,,,,,,,3,w,LoDemNoTar,None,g,1,0.47028180002234876,None,,,,,,,,,,,,,,,,,,,,300,2023-11-09_15h29.50.690,leap3,2022.2.5,60.00299966988878,
,,,,,,,,,,,,,,,,,,,,11,0,11,0,11,0,11,0,,,,,,gablus,nw,h,lower,,,,,,,3,nw,LoDemNoTar,None,h,1,0.5215579515788704,None,,,,,,,,,,,,,,,,,,,,300,2023-11-09_15h29.50.690,leap3,2022.2.5,60.00299966988878,
,,,,,,,,,,,,,,,,,,,,11,0,11,0,12,0,12,0,,,,,,plymie,nw,h,lower,,,,,,,3,nw,LoDemNoTar,None,h,1,0.5309473727829754,None,,,,,,,,,,,,,,,,,,,,300,2023-11-09_15h29.50.690,leap3,2022.2.5,60.00299966988878,
,,,,,,,,,,,,,,,,,,,,11,0,11,0,13,0,13,0,,,,,,smallash,nw,h,lower,,,,,,,3,nw,LoDemNoTar,None,h,1,0.5243743474129587,None,,,,,,,,,,,,,,,,,,,,300,2023-11-09_15h29.50.690,leap3,2022.2.5,60.00299966988878,
,,,,,,,,,,,,,,,,,,,,11,0,11,0,14,0,14,0,,,,,,funtair,nw,h,lower,,,,,,,3,nw,LoDemNoTar,None,h,1,0.4777890993282199,None,,,,,,,,,,,,,,,,,,,,300,2023-11-09_15h29.50.690,leap3,2022.2.5,60.00299966988878,
,,,,,,,,,,,,,,,,,,,,11,0,11,0,15,0,15,0,,,,,,professor,w,g,lower,,,,,,,3,w,LoDemNoTar,None,g,1,0.5692820739932358,None,,,,,,,,,,,,,,,,,,,,300,2023-11-09_15h29.50.690,leap3,2022.2.5,60.00299966988878,
,,,,,,,,,,,,,,,,,,,,11,0,11,0,16,0,16,0,,,,,,owner,w,g,lower,,,,,,,3,w,LoDemNoTar,None,g,1,0.5133295860141516,None,,,,,,,,,,,,,,,,,,,,300,2023-11-09_15h29.50.690,leap3,2022.2.5,60.00299966988878,
,,,,,,,,,,,,,,,,,,,,11,0,11,0,17,0,17,0,,,,,,single,w,g,lower,,,,,,,3,w,LoDemNoTar,None,g,1,0.4912380769383162,None,,,,,,,,,,,,,,,,,,,,300,2023-11-09_15h29.50.690,leap3,2022.2.5,60.00299966988878,
,,,,,,,,,,,,,,,,,,,,11,0,11,0,18,0,18,0,,,,,,decant,w,g,lower,,,,,,,3,w,LoDemNoTar,None,g,1,0.7489781999029219,None,,,,,,,,,,,,,,,,,,,,300,2023-11-09_15h29.50.690,leap3,2022.2.5,60.00299966988878,
,,,,,,,,,,,,,,,,,,,,11,0,11,0,19,0,19,0,,,,,,beggarlan,nw,h,lower,,,,,,,3,nw,LoDemNoTar,None,h,1,0.605635663960129,None,,,,,,,,,,,,,,,,,,,,300,2023-11-09_15h29.50.690,leap3,2022.2.5,60.00299966988878,
,,,,,,,,,,,,,,,,,,,,11,0,11,0,20,0,20,0,,,,,,handle,w,g,lower,,,,,,,3,w,LoDemNoTar,None,g,1,0.6756260993424803,None,,,,,,,,,,,,,,,,,,,,300,2023-11-09_15h29.50.690,leap3,2022.2.5,60.00299966988878,
,,,,,,,,,,,,,,,,,,,,11,0,11,0,21,0,21,0,,,,,,glaims,nw,h,lower,,,,,,,3,nw,LoDemNoTar,None,h,1,0.6229766774922609,None,,,,,,,,,,,,,,,,,,,,300,2023-11-09_15h29.50.690,leap3,2022.2.5,60.00299966988878,
,,,,,,,,,,,,,,,,,,,,11,0,11,0,22,0,22,0,,,,,,pranny,nw,h,lower,,,,,,,3,nw,LoDemNoTar,None,h,1,0.8203793163411319,None,,,,,,,,,,,,,,,,,,,,300,2023-11-09_15h29.50.690,leap3,2022.2.5,60.00299966988878,
,,,,,,,,,,,,,,,,,,,,11,0,11,0,23,0,23,0,,,,,,rumblos,nw,h,lower,,,,,,,3,nw,LoDemNoTar,None,g,0,0.6577533902600408,None,,,,,,,,,,,,,,,,,,,,300,2023-11-09_15h29.50.690,leap3,2022.2.5,60.00299966988878,
,,,,,,,,,,,,,,,,,,,,11,0,11,0,24,0,24,0,,,,,,vopings,nw,h,lower,,,,,,,3,nw,LoDemNoTar,None,h,1,0.8777894964441657,None,,,,,,,,,,,,,,,,,,,,300,2023-11-09_15h29.50.690,leap3,2022.2.5,60.00299966988878,
,,,,,,,,,,,,,,,,,,,,11,0,11,0,25,0,25,0,,,,,,abstain,w,g,lower,,,,,,,3,w,LoDemNoTar,None,g,1,0.665212684776634,None,,,,,,,,,,,,,,,,,,,,300,2023-11-09_15h29.50.690,leap3,2022.2.5,60.00299966988878,
,,,,,,,,,,,,,,,,,,,,11,0,11,0,26,0,26,0,,,,,,zears,nw,h,lower,,,,,,,3,nw,LoDemNoTar,None,h,1,0.5973165857139975,None,,,,,,,,,,,,,,,,,,,,300,2023-11-09_15h29.50.690,leap3,2022.2.5,60.00299966988878,
,,,,,,,,,,,,,,,,,,,,11,0,11,0,27,0,27,0,,,,,,thrapping,nw,h,lower,,,,,,,3,nw,LoDemNoTar,None,h,1,0.6910631405189633,None,,,,,,,,,,,,,,,,,,,,300,2023-11-09_15h29.50.690,leap3,2022.2.5,60.00299966988878,
,,,,,,,,,,,,,,,,,,,,11,0,11,0,28,0,28,0,,,,,,gettle,nw,h,lower,,,,,,,3,nw,LoDemNoTar,None,h,1,0.6537742833606899,None,,,,,,,,,,,,,,,,,,,,300,2023-11-09_15h29.50.690,leap3,2022.2.5,60.00299966988878,
,,,,,,,,,,,,,,,,,,,,11,0,11,0,29,0,29,0,,,,,,flicking,w,g,lower,,,,,,,3,w,LoDemNoTar,None,g,1,0.7696351911872625,None,,,,,,,,,,,,,,,,,,,,300,2023-11-09_15h29.50.690,leap3,2022.2.5,60.00299966988878,
,,,,,,,,,,,,,,,,,,,,11,0,11,0,,,,,,,,,,,,,,,,,,,,,,,,,,,,,,,,,,,,,,,,,,,,,,,300,2023-11-09_15h29.50.690,leap3,2022.2.5,60.00299966988878,
,,,,,,,,,,,,,,,,,,,,12,0,12,0,0,0,0,0,,,,,,upstairs,w,g,lower,,,,,,,3,w,LoDemNoTar,None,g,1,0.7536518876440823,None,,,,,,,,,,,,,,,,,,,,300,2023-11-09_15h29.50.690,leap3,2022.2.5,60.00299966988878,
,,,,,,,,,,,,,,,,,,,,12,0,12,0,1,0,1,0,,,,,,antonym,w,g,lower,,,,,,,3,w,LoDemNoTar,None,g,1,0.7856264403089881,None,,,,,,,,,,,,,,,,,,,,300,2023-11-09_15h29.50.690,leap3,2022.2.5,60.00299966988878,
,,,,,,,,,,,,,,,,,,,,12,0,12,0,2,0,2,0,,,,,,lenie,nw,h,lower,,,,,,,3,nw,LoDemNoTar,None,h,1,0.6330226066056639,None,,,,,,,,,,,,,,,,,,,,300,2023-11-09_15h29.50.690,leap3,2022.2.5,60.00299966988878,
,,,,,,,,,,,,,,,,,,,,12,0,12,0,3,0,3,0,,,,,,gewer,nw,h,lower,,,,,,,3,nw,LoDemNoTar,None,h,1,0.5657128291204572,None,,,,,,,,,,,,,,,,,,,,300,2023-11-09_15h29.50.690,leap3,2022.2.5,60.00299966988878,
,,,,,,,,,,,,,,,,,,,,12,0,12,0,4,0,4,0,,,,,,riosk,nw,h,lower,,,,,,,3,nw,LoDemNoTar,None,h,1,0.5254595885053277,None,,,,,,,,,,,,,,,,,,,,300,2023-11-09_15h29.50.690,leap3,2022.2.5,60.00299966988878,
,,,,,,,,,,,,,,,,,,,,12,0,12,0,5,0,5,0,,,,,,trises,nw,h,lower,,,,,,,3,nw,LoDemNoTar,None,h,1,0.5988838619086891,None,,,,,,,,,,,,,,,,,,,,300,2023-11-09_15h29.50.690,leap3,2022.2.5,60.00299966988878,
,,,,,,,,,,,,,,,,,,,,12,0,12,0,6,0,6,0,,,,,,admire,w,g,lower,,,,,,,3,w,LoDemNoTar,None,g,1,0.66164310881868,None,,,,,,,,,,,,,,,,,,,,300,2023-11-09_15h29.50.690,leap3,2022.2.5,60.00299966988878,
,,,,,,,,,,,,,,,,,,,,12,0,12,0,7,0,7,0,,,,,,mustled,nw,h,lower,,,,,,,3,nw,LoDemNoTar,None,h,1,1.2576460582204163,None,,,,,,,,,,,,,,,,,,,,300,2023-11-09_15h29.50.690,leap3,2022.2.5,60.00299966988878,
,,,,,,,,,,,,,,,,,,,,12,0,12,0,8,0,8,0,,,,,,attrove,nw,h,lower,,,,,,,3,nw,LoDemNoTar,None,h,1,0.6137736476957798,None,,,,,,,,,,,,,,,,,,,,300,2023-11-09_15h29.50.690,leap3,2022.2.5,60.00299966988878,
,,,,,,,,,,,,,,,,,,,,12,0,12,0,9,0,9,0,,,,,,ebciting,nw,h,lower,,,,,,,3,nw,LoDemNoTar,None,h,1,0.6198470911476761,None,,,,,,,,,,,,,,,,,,,,300,2023-11-09_15h29.50.690,leap3,2022.2.5,60.00299966988878,
,,,,,,,,,,,,,,,,,,,,12,0,12,0,10,0,10,0,,,,,,criminal,w,g,lower,,,,,,,3,w,LoDemNoTar,None,g,1,0.6171598117798567,None,,,,,,,,,,,,,,,,,,,,300,2023-11-09_15h29.50.690,leap3,2022.2.5,60.00299966988878,
,,,,,,,,,,,,,,,,,,,,12,0,12,0,11,0,11,0,,,,,,talate,nw,h,lower,,,,,,,3,nw,LoDemNoTar,None,h,1,0.5729334235657007,None,,,,,,,,,,,,,,,,,,,,300,2023-11-09_15h29.50.690,leap3,2022.2.5,60.00299966988878,
,,,,,,,,,,,,,,,,,,,,12,0,12,0,12,0,12,0,,,,,,offonents,nw,h,lower,,,,,,,3,nw,LoDemNoTar,None,h,1,0.5643584297504276,None,,,,,,,,,,,,,,,,,,,,300,2023-11-09_15h29.50.690,leap3,2022.2.5,60.00299966988878,
,,,,,,,,,,,,,,,,,,,,12,0,12,0,13,0,13,0,,,,,,emission,w,g,lower,,,,,,,3,w,LoDemNoTar,None,g,1,0.6043216548860073,None,,,,,,,,,,,,,,,,,,,,300,2023-11-09_15h29.50.690,leap3,2022.2.5,60.00299966988878,
,,,,,,,,,,,,,,,,,,,,12,0,12,0,14,0,14,0,,,,,,sefine,nw,h,lower,,,,,,,3,nw,LoDemNoTar,None,h,1,0.5303981306497008,None,,,,,,,,,,,,,,,,,,,,300,2023-11-09_15h29.50.690,leap3,2022.2.5,60.00299966988878,
,,,,,,,,,,,,,,,,,,,,12,0,12,0,15,0,15,0,,,,,,handed,w,g,lower,,,,,,,3,w,LoDemNoTar,None,g,1,0.6357396820094436,None,,,,,,,,,,,,,,,,,,,,300,2023-11-09_15h29.50.690,leap3,2022.2.5,60.00299966988878,
,,,,,,,,,,,,,,,,,,,,12,0,12,0,16,0,16,0,,,,,,recollect,w,g,lower,,,,,,,3,w,LoDemNoTar,None,g,1,0.6164516571443528,None,,,,,,,,,,,,,,,,,,,,300,2023-11-09_15h29.50.690,leap3,2022.2.5,60.00299966988878,
,,,,,,,,,,,,,,,,,,,,12,0,12,0,17,0,17,0,,,,,,buzzer,w,g,lower,,,,,,,3,w,LoDemNoTar,None,g,1,1.0305264196358621,None,,,,,,,,,,,,,,,,,,,,300,2023-11-09_15h29.50.690,leap3,2022.2.5,60.00299966988878,
,,,,,,,,,,,,,,,,,,,,12,0,12,0,18,0,18,0,,,,,,alomalous,nw,h,lower,,,,,,,3,nw,LoDemNoTar,None,h,1,0.6838147365488112,None,,,,,,,,,,,,,,,,,,,,300,2023-11-09_15h29.50.690,leap3,2022.2.5,60.00299966988878,
,,,,,,,,,,,,,,,,,,,,12,0,12,0,19,0,19,0,,,,,,leather,w,g,lower,,,,,,,3,w,LoDemNoTar,None,g,1,0.4704691846854985,None,,,,,,,,,,,,,,,,,,,,300,2023-11-09_15h29.50.690,leap3,2022.2.5,60.00299966988878,
,,,,,,,,,,,,,,,,,,,,12,0,12,0,20,0,20,0,,,,,,volder,nw,h,lower,,,,,,,3,nw,LoDemNoTar,None,h,1,0.5449035465717316,None,,,,,,,,,,,,,,,,,,,,300,2023-11-09_15h29.50.690,leap3,2022.2.5,60.00299966988878,
,,,,,,,,,,,,,,,,,,,,12,0,12,0,21,0,21,0,,,,,,achieve,w,g,lower,,,,,,,3,w,LoDemNoTar,None,g,1,0.5615109135396779,None,,,,,,,,,,,,,,,,,,,,300,2023-11-09_15h29.50.690,leap3,2022.2.5,60.00299966988878,
,,,,,,,,,,,,,,,,,,,,12,0,12,0,22,0,22,0,,,,,,elvisages,nw,h,lower,,,,,,,3,nw,LoDemNoTar,None,h,1,0.8818560054060072,None,,,,,,,,,,,,,,,,,,,,300,2023-11-09_15h29.50.690,leap3,2022.2.5,60.00299966988878,
,,,,,,,,,,,,,,,,,,,,12,0,12,0,23,0,23,0,,,,,,ounside,nw,h,lower,,,,,,,3,nw,LoDemNoTar,None,h,1,0.7735391457099468,None,,,,,,,,,,,,,,,,,,,,300,2023-11-09_15h29.50.690,leap3,2022.2.5,60.00299966988878,
,,,,,,,,,,,,,,,,,,,,12,0,12,0,24,0,24,0,,,,,,bedding,w,g,lower,,,,,,,3,w,LoDemNoTar,None,g,1,0.6208942595403641,None,,,,,,,,,,,,,,,,,,,,300,2023-11-09_15h29.50.690,leap3,2022.2.5,60.00299966988878,
,,,,,,,,,,,,,,,,,,,,12,0,12,0,25,0,25,0,,,,,,blanned,nw,h,lower,,,,,,,3,nw,LoDemNoTar,None,h,1,0.8503260770812631,None,,,,,,,,,,,,,,,,,,,,300,2023-11-09_15h29.50.690,leap3,2022.2.5,60.00299966988878,
,,,,,,,,,,,,,,,,,,,,12,0,12,0,26,0,26,0,,,,,,uncorked,w,g,lower,,,,,,,3,w,LoDemNoTar,None,g,1,1.22325205989182,None,,,,,,,,,,,,,,,,,,,,300,2023-11-09_15h29.50.690,leap3,2022.2.5,60.00299966988878,
,,,,,,,,,,,,,,,,,,,,12,0,12,0,27,0,27,0,,,,,,inside,w,g,lower,,,,,,,3,w,LoDemNoTar,None,g,1,0.6686276516411453,None,,,,,,,,,,,,,,,,,,,,300,2023-11-09_15h29.50.690,leap3,2022.2.5,60.00299966988878,
,,,,,,,,,,,,,,,,,,,,12,0,12,0,28,0,28,0,,,,,,summon,w,g,lower,,,,,,,3,w,LoDemNoTar,None,g,1,0.5850495211780071,None,,,,,,,,,,,,,,,,,,,,300,2023-11-09_15h29.50.690,leap3,2022.2.5,60.00299966988878,
,,,,,,,,,,,,,,,,,,,,12,0,12,0,29,0,29,0,,,,,,shivering,w,g,lower,,,,,,,3,w,LoDemNoTar,None,g,1,0.5837153168395162,None,,,,,,,,,,,,,,,,,,,,300,2023-11-09_15h29.50.690,leap3,2022.2.5,60.00299966988878,
,,,,,,,,,,,,,,,,,,,,12,0,12,0,,,,,,,,,,,,,,,,,,,,,,,,,,,,,,,,,,,,,,,,,,,,,,,300,2023-11-09_15h29.50.690,leap3,2022.2.5,60.00299966988878,
,,,,,,,,,,,,,,,,,,,,13,0,13,0,0,0,0,0,,,,,,infusion,w,g,lower,,,,,,,4,w,LoDemTar,None,g,1,0.5038087309803814,None,,,,,,,,,,,,,,,,,,,,300,2023-11-09_15h29.50.690,leap3,2022.2.5,60.00299966988878,
,,,,,,,,,,,,,,,,,,,,13,0,13,0,1,0,1,0,,,,,,erithets,nw,h,lower,,,,,,,4,nw,LoDemTar,None,h,1,0.8017842168919742,None,,,,,,,,,,,,,,,,,,,,300,2023-11-09_15h29.50.690,leap3,2022.2.5,60.00299966988878,
,,,,,,,,,,,,,,,,,,,,13,0,13,0,2,0,2,0,,,,,,triplet,w,g,lower,,,,,,,4,w,LoDemTar,None,g,1,0.6316973413340747,None,,,,,,,,,,,,,,,,,,,,300,2023-11-09_15h29.50.690,leap3,2022.2.5,60.00299966988878,
,,,,,,,,,,,,,,,,,,,,13,0,13,0,3,0,3,0,,,,,,brials,nw,h,lower,,,,,,,4,nw,LoDemTar,None,h,1,0.7088669873774052,None,,,,,,,,,,,,,,,,,,,,300,2023-11-09_15h29.50.690,leap3,2022.2.5,60.00299966988878,
,,,,,,,,,,,,,,,,,,,,13,0,13,0,4,0,4,0,,,,,,stable,w,g,lower,,,,,,,4,w,LoDemTar,None,g,1,0.6870128537993878,None,,,,,,,,,,,,,,,,,,,,300,2023-11-09_15h29.50.690,leap3,2022.2.5,60.00299966988878,
,,,,,,,,,,,,,,,,,,,,13,0,13,0,5,0,5,0,,,,,,corduroy,w,g,lower,,,,,,,4,w,LoDemTar,None,g,1,1.536817209329456,None,,,,,,,,,,,,,,,,,,,,300,2023-11-09_15h29.50.690,leap3,2022.2.5,60.00299966988878,
,,,,,,,,,,,,,,,,,,,,13,0,13,0,6,0,6,0,,,,,,dontrite,nw,h,lower,,,,,,,4,nw,LoDemTar,None,h,1,0.7934754018206149,None,,,,,,,,,,,,,,,,,,,,300,2023-11-09_15h29.50.690,leap3,2022.2.5,60.00299966988878,
,,,,,,,,,,,,,,,,,,,,13,0,13,0,7,0,7,0,,,,,,ciping,nw,h,lower,,,,,,,4,nw,LoDemTar,None,h,1,1.0407438420224935,None,,,,,,,,,,,,,,,,,,,,300,2023-11-09_15h29.50.690,leap3,2022.2.5,60.00299966988878,
,,,,,,,,,,,,,,,,,,,,13,0,13,0,8,0,8,0,,,,,,pived,nw,h,lower,,,,,,,4,nw,LoDemTar,None,h,1,0.7736778631806374,None,,,,,,,,,,,,,,,,,,,,300,2023-11-09_15h29.50.690,leap3,2022.2.5,60.00299966988878,
,,,,,,,,,,,,,,,,,,,,13,0,13,0,9,0,9,0,,,,,,railroad,w,g,lower,,,,,,,4,w,LoDemTar,None,g,1,0.6448443848639727,None,,,,,,,,,,,,,,,,,,,,300,2023-11-09_15h29.50.690,leap3,2022.2.5,60.00299966988878,
,,,,,,,,,,,,,,,,,,,,13,0,13,0,10,0,10,0,,,,,,chrik,nw,h,lower,,,,,,,4,nw,LoDemTar,None,h,1,0.7615140916313976,None,,,,,,,,,,,,,,,,,,,,300,2023-11-09_15h29.50.690,leap3,2022.2.5,60.00299966988878,
,,,,,,,,,,,,,,,,,,,,13,0,13,0,11,0,11,0,,,,,,smolvers,nw,h,lower,,,,,,,4,nw,LoDemTar,None,h,1,0.7618511188775301,None,,,,,,,,,,,,,,,,,,,,300,2023-11-09_15h29.50.690,leap3,2022.2.5,60.00299966988878,
,,,,,,,,,,,,,,,,,,,,13,0,13,0,12,0,12,0,,,,,,rebool,nw,h,lower,,,,,,,4,nw,LoDemTar,None,h,1,0.616916807834059,None,,,,,,,,,,,,,,,,,,,,300,2023-11-09_15h29.50.690,leap3,2022.2.5,60.00299966988878,
,,,,,,,,,,,,,,,,,,,,13,0,13,0,13,0,13,0,,,,,,lightels,nw,h,lower,,,,,,,4,nw,LoDemTar,None,g,0,0.5668867966160178,None,,,,,,,,,,,,,,,,,,,,300,2023-11-09_15h29.50.690,leap3,2022.2.5,60.00299966988878,
,,,,,,,,,,,,,,,,,,,,13,0,13,0,14,0,14,0,,,,,,revising,w,g,lower,,,,,,,4,w,LoDemTar,None,g,1,0.8386340776924044,None,,,,,,,,,,,,,,,,,,,,300,2023-11-09_15h29.50.690,leap3,2022.2.5,60.00299966988878,
,,,,,,,,,,,,,,,,,,,,13,0,13,0,15,0,15,0,,,,,,confined,w,g,lower,,,,,,,4,w,LoDemTar,None,g,1,0.7152410408016294,None,,,,,,,,,,,,,,,,,,,,300,2023-11-09_15h29.50.690,leap3,2022.2.5,60.00299966988878,
,,,,,,,,,,,,,,,,,,,,13,0,13,0,16,0,16,0,,,,,,overcoat,w,g,lower,,,,,,,4,w,LoDemTar,None,g,1,0.6694228772539645,None,,,,,,,,,,,,,,,,,,,,300,2023-11-09_15h29.50.690,leap3,2022.2.5,60.00299966988878,
,,,,,,,,,,,,,,,,,,,,13,0,13,0,17,0,17,0,,,,,,eggays,nw,h,lower,,,,,,,4,nw,LoDemTar,None,h,1,0.9528052140958607,None,,,,,,,,,,,,,,,,,,,,300,2023-11-09_15h29.50.690,leap3,2022.2.5,60.00299966988878,
,,,,,,,,,,,,,,,,,,,,13,0,13,0,18,0,18,0,,,,,,embrace,w,g,lower,,,,,,,4,w,LoDemTar,None,g,1,0.9450231282971799,None,,,,,,,,,,,,,,,,,,,,300,2023-11-09_15h29.50.690,leap3,2022.2.5,60.00299966988878,
,,,,,,,,,,,,,,,,,,,,13,0,13,0,19,0,19,0,,,,,,gorilla,target,q,lower,,,,,,,4,target,LoDemTar,None,g,0,0.5936433856841177,q,q,,,0.3830761567223817,,,,,,,,,,,,,,,,300,2023-11-09_15h29.50.690,leap3,2022.2.5,60.00299966988878,
,,,,,,,,,,,,,,,,,,,,13,0,13,0,20,0,20,0,,,,,,peanimate,nw,h,lower,,,,,,,4,aftertar1,LoDemTar,None,q,0,0.17618643189780414,None,q,1,,,,,,,,,,,,,,,,,,300,2023-11-09_15h29.50.690,leap3,2022.2.5,60.00299966988878,
,,,,,,,,,,,,,,,,,,,,13,0,13,0,21,0,21,0,,,,,,fuhrek,nw,h,lower,,,,,,,4,aftertar2,LoDemTar,None,h,1,0.5840695598162711,None,,,,,,,,,,,,,,,,,,,,300,2023-11-09_15h29.50.690,leap3,2022.2.5,60.00299966988878,
,,,,,,,,,,,,,,,,,,,,13,0,13,0,22,0,22,0,,,,,,twenties,w,g,lower,,,,,,,4,aftertar3,LoDemTar,None,g,1,0.8705096412450075,None,,,,,,,,,,,,,,,,,,,,300,2023-11-09_15h29.50.690,leap3,2022.2.5,60.00299966988878,
,,,,,,,,,,,,,,,,,,,,13,0,13,0,23,0,23,0,,,,,,restock,w,g,lower,,,,,,,4,w,LoDemTar,None,g,1,1.0338748418726027,None,,,,,,,,,,,,,,,,,,,,300,2023-11-09_15h29.50.690,leap3,2022.2.5,60.00299966988878,
,,,,,,,,,,,,,,,,,,,,13,0,13,0,24,0,24,0,,,,,,measure,w,g,lower,,,,,,,4,w,LoDemTar,None,g,1,0.614460282959044,None,,,,,,,,,,,,,,,,,,,,300,2023-11-09_15h29.50.690,leap3,2022.2.5,60.00299966988878,
,,,,,,,,,,,,,,,,,,,,13,0,13,0,25,0,25,0,,,,,,passet,nw,h,lower,,,,,,,4,w,LoDemTar,None,h,1,0.6046053802128881,None,,,,,,,,,,,,,,,,,,,,300,2023-11-09_15h29.50.690,leap3,2022.2.5,60.00299966988878,
,,,,,,,,,,,,,,,,,,,,13,0,13,0,26,0,26,0,,,,,,expected,w,g,lower,,,,,,,4,nw,LoDemTar,None,g,1,1.1705589371267706,None,,,,,,,,,,,,,,,,,,,,300,2023-11-09_15h29.50.690,leap3,2022.2.5,60.00299966988878,
,,,,,,,,,,,,,,,,,,,,13,0,13,0,27,0,27,0,,,,,,icepick,w,g,lower,,,,,,,4,w,LoDemTar,None,g,1,1.0579679887741804,None,,,,,,,,,,,,,,,,,,,,300,2023-11-09_15h29.50.690,leap3,2022.2.5,60.00299966988878,
,,,,,,,,,,,,,,,,,,,,13,0,13,0,28,0,28,0,,,,,,grieving,w,g,lower,,,,,,,4,w,LoDemTar,None,g,1,0.9899891228415072,None,,,,,,,,,,,,,,,,,,,,300,2023-11-09_15h29.50.690,leap3,2022.2.5,60.00299966988878,
,,,,,,,,,,,,,,,,,,,,13,0,13,0,29,0,29,0,,,,,,pexts,nw,h,lower,,,,,,,4,w,LoDemTar,None,h,1,0.6686812846455723,None,,,,,,,,,,,,,,,,,,,,300,2023-11-09_15h29.50.690,leap3,2022.2.5,60.00299966988878,
,,,,,,,,,,,,,,,,,,,,13,0,13,0,,,,,,,,,,,,,,,,,,,,,,,,,,,,,,,,,,,,,,,,,,,,,,,300,2023-11-09_15h29.50.690,leap3,2022.2.5,60.00299966988878,
,,,,,,,,,,,,,,,,,,,,14,0,14,0,0,0,0,0,,,,,,sporidic,nw,h,lower,,,,,,,3,nw,LoDemNoTar,None,h,1,0.5917745067272335,None,,,,,,,,,,,,,,,,,,,,300,2023-11-09_15h29.50.690,leap3,2022.2.5,60.00299966988878,
,,,,,,,,,,,,,,,,,,,,14,0,14,0,1,0,1,0,,,,,,terrify,w,g,lower,,,,,,,3,w,LoDemNoTar,None,g,1,0.9986018580384552,None,,,,,,,,,,,,,,,,,,,,300,2023-11-09_15h29.50.690,leap3,2022.2.5,60.00299966988878,
,,,,,,,,,,,,,,,,,,,,14,0,14,0,2,0,2,0,,,,,,sunhess,nw,h,lower,,,,,,,3,nw,LoDemNoTar,None,h,1,0.6375003019347787,None,,,,,,,,,,,,,,,,,,,,300,2023-11-09_15h29.50.690,leap3,2022.2.5,60.00299966988878,
,,,,,,,,,,,,,,,,,,,,14,0,14,0,3,0,3,0,,,,,,probable,w,g,lower,,,,,,,3,w,LoDemNoTar,None,g,1,1.66596785094589,None,,,,,,,,,,,,,,,,,,,,300,2023-11-09_15h29.50.690,leap3,2022.2.5,60.00299966988878,
,,,,,,,,,,,,,,,,,,,,14,0,14,0,4,0,4,0,,,,,,sampling,w,g,lower,,,,,,,3,w,LoDemNoTar,None,g,1,2.4050329213496298,None,,,,,,,,,,,,,,,,,,,,300,2023-11-09_15h29.50.690,leap3,2022.2.5,60.00299966988878,
,,,,,,,,,,,,,,,,,,,,14,0,14,0,5,0,5,0,,,,,,illness,w,g,lower,,,,,,,3,w,LoDemNoTar,None,g,1,1.2750350767746568,None,,,,,,,,,,,,,,,,,,,,300,2023-11-09_15h29.50.690,leap3,2022.2.5,60.00299966988878,
,,,,,,,,,,,,,,,,,,,,14,0,14,0,6,0,6,0,,,,,,audience,w,g,lower,,,,,,,3,w,LoDemNoTar,None,g,1,0.6224006190896034,None,,,,,,,,,,,,,,,,,,,,300,2023-11-09_15h29.50.690,leap3,2022.2.5,60.00299966988878,
,,,,,,,,,,,,,,,,,,,,14,0,14,0,7,0,7,0,,,,,,blipover,nw,h,lower,,,,,,,3,nw,LoDemNoTar,None,h,1,0.7157767089083791,None,,,,,,,,,,,,,,,,,,,,300,2023-11-09_15h29.50.690,leap3,2022.2.5,60.00299966988878,
,,,,,,,,,,,,,,,,,,,,14,0,14,0,8,0,8,0,,,,,,rander,nw,h,lower,,,,,,,3,nw,LoDemNoTar,None,h,1,0.7158154437784106,None,,,,,,,,,,,,,,,,,,,,300,2023-11-09_15h29.50.690,leap3,2022.2.5,60.00299966988878,
,,,,,,,,,,,,,,,,,,,,14,0,14,0,9,0,9,0,,,,,,series,w,g,lower,,,,,,,3,w,LoDemNoTar,None,h,0,1.832504352554679,None,,,,,,,,,,,,,,,,,,,,300,2023-11-09_15h29.50.690,leap3,2022.2.5,60.00299966988878,
,,,,,,,,,,,,,,,,,,,,14,0,14,0,10,0,10,0,,,,,,theles,nw,h,lower,,,,,,,3,nw,LoDemNoTar,None,h,1,0.5659733796492219,None,,,,,,,,,,,,,,,,,,,,300,2023-11-09_15h29.50.690,leap3,2022.2.5,60.00299966988878,
,,,,,,,,,,,,,,,,,,,,14,0,14,0,11,0,11,0,,,,,,recount,w,g,lower,,,,,,,3,w,LoDemNoTar,None,g,1,0.5419186369981617,None,,,,,,,,,,,,,,,,,,,,300,2023-11-09_15h29.50.690,leap3,2022.2.5,60.00299966988878,
,,,,,,,,,,,,,,,,,,,,14,0,14,0,12,0,12,0,,,,,,patio,w,g,lower,,,,,,,3,w,LoDemNoTar,None,g,1,0.5501479955855757,None,,,,,,,,,,,,,,,,,,,,300,2023-11-09_15h29.50.690,leap3,2022.2.5,60.00299966988878,
,,,,,,,,,,,,,,,,,,,,14,0,14,0,13,0,13,0,,,,,,glating,nw,h,lower,,,,,,,3,nw,LoDemNoTar,None,h,1,0.7097565671429038,None,,,,,,,,,,,,,,,,,,,,300,2023-11-09_15h29.50.690,leap3,2022.2.5,60.00299966988878,
,,,,,,,,,,,,,,,,,,,,14,0,14,0,14,0,14,0,,,,,,graciap,nw,h,lower,,,,,,,3,nw,LoDemNoTar,None,h,1,0.47223179088905454,None,,,,,,,,,,,,,,,,,,,,300,2023-11-09_15h29.50.690,leap3,2022.2.5,60.00299966988878,
,,,,,,,,,,,,,,,,,,,,14,0,14,0,15,0,15,0,,,,,,houted,nw,h,lower,,,,,,,3,nw,LoDemNoTar,None,h,1,0.6355347509961575,None,,,,,,,,,,,,,,,,,,,,300,2023-11-09_15h29.50.690,leap3,2022.2.5,60.00299966988878,
,,,,,,,,,,,,,,,,,,,,14,0,14,0,16,0,16,0,,,,,,strenuous,w,g,lower,,,,,,,3,w,LoDemNoTar,None,g,1,0.8163293607067317,None,,,,,,,,,,,,,,,,,,,,300,2023-11-09_15h29.50.690,leap3,2022.2.5,60.00299966988878,
,,,,,,,,,,,,,,,,,,,,14,0,14,0,17,0,17,0,,,,,,rarren,nw,h,lower,,,,,,,3,nw,LoDemNoTar,None,h,1,0.5423159184865654,None,,,,,,,,,,,,,,,,,,,,300,2023-11-09_15h29.50.690,leap3,2022.2.5,60.00299966988878,
,,,,,,,,,,,,,,,,,,,,14,0,14,0,18,0,18,0,,,,,,cervical,w,g,lower,,,,,,,3,w,LoDemNoTar,None,h,0,0.495285052806139,None,,,,,,,,,,,,,,,,,,,,300,2023-11-09_15h29.50.690,leap3,2022.2.5,60.00299966988878,
,,,,,,,,,,,,,,,,,,,,14,0,14,0,19,0,19,0,,,,,,tucker,w,g,lower,,,,,,,3,w,LoDemNoTar,None,h,0,0.7463667350821197,None,,,,,,,,,,,,,,,,,,,,300,2023-11-09_15h29.50.690,leap3,2022.2.5,60.00299966988878,
,,,,,,,,,,,,,,,,,,,,14,0,14,0,20,0,20,0,,,,,,parlayid,nw,h,lower,,,,,,,3,nw,LoDemNoTar,None,h,1,0.6510625048540533,None,,,,,,,,,,,,,,,,,,,,300,2023-11-09_15h29.50.690,leap3,2022.2.5,60.00299966988878,
,,,,,,,,,,,,,,,,,,,,14,0,14,0,21,0,21,0,,,,,,defeat,w,g,lower,,,,,,,3,w,LoDemNoTar,None,g,1,0.7102670741733164,None,,,,,,,,,,,,,,,,,,,,300,2023-11-09_15h29.50.690,leap3,2022.2.5,60.00299966988878,
,,,,,,,,,,,,,,,,,,,,14,0,14,0,22,0,22,0,,,,,,carbled,nw,h,lower,,,,,,,3,nw,LoDemNoTar,None,h,1,0.7442088334355503,None,,,,,,,,,,,,,,,,,,,,300,2023-11-09_15h29.50.690,leap3,2022.2.5,60.00299966988878,
,,,,,,,,,,,,,,,,,,,,14,0,14,0,23,0,23,0,,,,,,nomma,nw,h,lower,,,,,,,3,nw,LoDemNoTar,None,h,1,0.9370758396107703,None,,,,,,,,,,,,,,,,,,,,300,2023-11-09_15h29.50.690,leap3,2022.2.5,60.00299966988878,
,,,,,,,,,,,,,,,,,,,,14,0,14,0,24,0,24,0,,,,,,combat,w,g,lower,,,,,,,3,w,LoDemNoTar,None,g,1,0.6255050443578511,None,,,,,,,,,,,,,,,,,,,,300,2023-11-09_15h29.50.690,leap3,2022.2.5,60.00299966988878,
,,,,,,,,,,,,,,,,,,,,14,0,14,0,25,0,25,0,,,,,,iflaid,nw,h,lower,,,,,,,3,nw,LoDemNoTar,None,h,1,0.6309845517389476,None,,,,,,,,,,,,,,,,,,,,300,2023-11-09_15h29.50.690,leap3,2022.2.5,60.00299966988878,
,,,,,,,,,,,,,,,,,,,,14,0,14,0,26,0,26,0,,,,,,inducing,w,g,lower,,,,,,,3,w,LoDemNoTar,None,g,1,0.6604155085515231,None,,,,,,,,,,,,,,,,,,,,300,2023-11-09_15h29.50.690,leap3,2022.2.5,60.00299966988878,
,,,,,,,,,,,,,,,,,,,,14,0,14,0,27,0,27,0,,,,,,tiger,w,g,lower,,,,,,,3,w,LoDemNoTar,None,g,1,0.5283031321596354,q,q,,,0.24961964413523674,,,,,,,,,,,,,,,,300,2023-11-09_15h29.50.690,leap3,2022.2.5,60.00299966988878,
,,,,,,,,,,,,,,,,,,,,14,0,14,0,28,0,28,0,,,,,,geadpan,nw,h,lower,,,,,,,3,nw,LoDemNoTar,None,q,0,0.5214814748615026,None,q,,,,,,,,,,,,,,,,,,,300,2023-11-09_15h29.50.690,leap3,2022.2.5,60.00299966988878,
,,,,,,,,,,,,,,,,,,,,14,0,14,0,29,0,29,0,,,,,,fuestion,nw,h,lower,,,,,,,3,nw,LoDemNoTar,None,h,1,0.6749484029132873,None,,,,,,,,,,,,,,,,,,,,300,2023-11-09_15h29.50.690,leap3,2022.2.5,60.00299966988878,
,,,,,,,,,,,,,,,,,,,,14,0,14,0,,,,,,,,,,,,,,,,,,,,,,,,,,,,,,,,,,,,,,,,,,,,,,,300,2023-11-09_15h29.50.690,leap3,2022.2.5,60.00299966988878,
,,,,,,,,,,,,,,,,,,,,15,0,15,0,0,0,0,0,,,,,,contact,w,g,upper,,,,,,,2,w,HiDemNoTar,None,g,1,0.6692887947428972,None,,,,,,,,,,,,,,,,,,,,300,2023-11-09_15h29.50.690,leap3,2022.2.5,60.00299966988878,
,,,,,,,,,,,,,,,,,,,,15,0,15,0,1,0,1,0,,,,,,larger,w,g,upper,,,,,,,2,w,HiDemNoTar,None,g,1,0.5372740833554417,None,,,,,,,,,,,,,,,,,,,,300,2023-11-09_15h29.50.690,leap3,2022.2.5,60.00299966988878,
,,,,,,,,,,,,,,,,,,,,15,0,15,0,2,0,2,0,,,,,,airline,w,g,upper,,,,,,,2,w,HiDemNoTar,None,g,1,0.594181040301919,None,,,,,,,,,,,,,,,,,,,,300,2023-11-09_15h29.50.690,leap3,2022.2.5,60.00299966988878,
,,,,,,,,,,,,,,,,,,,,15,0,15,0,3,0,3,0,,,,,,extruded,w,g,upper,,,,,,,2,w,HiDemNoTar,None,g,1,1.240712920203805,None,,,,,,,,,,,,,,,,,,,,300,2023-11-09_15h29.50.690,leap3,2022.2.5,60.00299966988878,
,,,,,,,,,,,,,,,,,,,,15,0,15,0,4,0,4,0,,,,,,pallir,nw,h,upper,,,,,,,2,nw,HiDemNoTar,None,h,1,0.4934383553918451,None,,,,,,,,,,,,,,,,,,,,300,2023-11-09_15h29.50.690,leap3,2022.2.5,60.00299966988878,
,,,,,,,,,,,,,,,,,,,,15,0,15,0,5,0,5,0,,,,,,sequence,w,g,upper,,,,,,,2,w,HiDemNoTar,None,g,1,0.8801361068617553,None,,,,,,,,,,,,,,,,,,,,300,2023-11-09_15h29.50.690,leap3,2022.2.5,60.00299966988878,
,,,,,,,,,,,,,,,,,,,,15,0,15,0,6,0,6,0,,,,,,lindo,nw,h,upper,,,,,,,2,nw,HiDemNoTar,None,h,1,0.8827339981216937,None,,,,,,,,,,,,,,,,,,,,300,2023-11-09_15h29.50.690,leap3,2022.2.5,60.00299966988878,
,,,,,,,,,,,,,,,,,,,,15,0,15,0,7,0,7,0,,,,,,fisco,nw,h,upper,,,,,,,2,nw,HiDemNoTar,None,h,1,0.6539894775487483,None,,,,,,,,,,,,,,,,,,,,300,2023-11-09_15h29.50.690,leap3,2022.2.5,60.00299966988878,
,,,,,,,,,,,,,,,,,,,,15,0,15,0,8,0,8,0,,,,,,bellicove,nw,h,upper,,,,,,,2,nw,HiDemNoTar,None,h,1,0.4981653450522572,None,,,,,,,,,,,,,,,,,,,,300,2023-11-09_15h29.50.690,leap3,2022.2.5,60.00299966988878,
,,,,,,,,,,,,,,,,,,,,15,0,15,0,9,0,9,0,,,,,,fravity,nw,h,upper,,,,,,,2,nw,HiDemNoTar,None,h,1,0.5486807019915432,None,,,,,,,,,,,,,,,,,,,,300,2023-11-09_15h29.50.690,leap3,2022.2.5,60.00299966988878,
