demoRace_loop.thisRepN,demoRace_loop.thisTrialN,demoRace_loop.thisN,demoRace_loop.thisIndex,LDTunderstand.thisRepN,LDTunderstand.thisTrialN,LDTunderstand.thisN,LDTunderstand.thisIndex,pracBlocks.thisRepN,pracBlocks.thisTrialN,pracBlocks.thisN,pracBlocks.thisIndex,pracTrial.thisRepN,pracTrial.thisTrialN,pracTrial.thisN,pracTrial.thisIndex,PMunderstand.thisRepN,PMunderstand.thisTrialN,PMunderstand.thisN,PMunderstand.thisIndex,LDT_block.thisRepN,LDT_block.thisTrialN,LDT_block.thisN,LDT_block.thisIndex,LDT_trial.thisRepN,LDT_trial.thisTrialN,LDT_trial.thisN,LDT_trial.thisIndex,ageTextbox.text,genderTextbox.text,race,raceResp,LDTunderstand,stim,word_type,corr_key,stim_location,LDTpracKey.keys,LDTpracKey.corr,LDTpracKey.rt,PMunderstand,cueTextbox.text,intentionTextbox.text,block_type,role,block_desc,lateQResp.keys,LDTResp.keys,LDTResp.corr,LDTResp.rt,blankQResp.keys,pressedQ,PM_corr,lateQResp.rt,postQ1,Q2Textbox.text,Q3Textbox.text,Q4,Q5,Q6Key.keys,Q6Key.rt,postQ7_correct,postQ7,Q8Textbox.text,education,medTextbox.text,health,healthLimit,psych,participant,date,expName,psychopyVersion,frameRate,
0,0,0,0,,,,,,,,,,,,,,,,,,,,,,,,,"
20 ",female,American Indian or Alaska Native,n,,,,,,,,,,,,,,,,,,,,,,,,,,,,,,,,,,,,,,301,2023-11-09_16h34.04.648,leap3,2022.2.5,60.06600144450393,
1,0,1,0,,,,,,,,,,,,,,,,,,,,,,,,,,,Asian,n,,,,,,,,,,,,,,,,,,,,,,,,,,,,,,,,,,,,,,301,2023-11-09_16h34.04.648,leap3,2022.2.5,60.06600144450393,
2,0,2,0,,,,,,,,,,,,,,,,,,,,,,,,,,,Black or African American,n,,,,,,,,,,,,,,,,,,,,,,,,,,,,,,,,,,,,,,301,2023-11-09_16h34.04.648,leap3,2022.2.5,60.06600144450393,
3,0,3,0,,,,,,,,,,,,,,,,,,,,,,,,,,,Native Hawaiian or other Pacific Islander,n,,,,,,,,,,,,,,,,,,,,,,,,,,,,,,,,,,,,,,301,2023-11-09_16h34.04.648,leap3,2022.2.5,60.06600144450393,
4,0,4,0,,,,,,,,,,,,,,,,,,,,,,,,,,,White,y,,,,,,,,,,,,,,,,,,,,,,,,,,,,,,,,,,,,,,301,2023-11-09_16h34.04.648,leap3,2022.2.5,60.06600144450393,
,,,,0,0,0,0,,,,,,,,,,,,,,,,,,,,,,,,,y,,,,,,,,,,,,,,,,,,,,,,,,,,,,,,,,,,,,,301,2023-11-09_16h34.04.648,leap3,2022.2.5,60.06600144450393,
,,,,,,,,0,0,0,0,0,0,0,0,,,,,,,,,,,,,,,,,,tricycle,w,g,lower,g,1,0.6660256078466773,,,,,,,,,,,,,,,,,,,,,,,,,,,,,,301,2023-11-09_16h34.04.648,leap3,2022.2.5,60.06600144450393,
,,,,,,,,0,0,0,0,1,0,1,0,,,,,,,,,,,,,,,,,,grutch,nw,h,lower,g,0,0.8602453581988811,,,,,,,,,,,,,,,,,,,,,,,,,,,,,,301,2023-11-09_16h34.04.648,leap3,2022.2.5,60.06600144450393,
,,,,,,,,0,0,0,0,2,0,2,0,,,,,,,,,,,,,,,,,,julled,nw,h,lower,h,1,16.48057750542648,,,,,,,,,,,,,,,,,,,,,,,,,,,,,,301,2023-11-09_16h34.04.648,leap3,2022.2.5,60.06600144450393,
,,,,,,,,0,0,0,0,3,0,3,0,,,,,,,,,,,,,,,,,,grimace,w,g,lower,g,1,1.3320739497430623,,,,,,,,,,,,,,,,,,,,,,,,,,,,,,301,2023-11-09_16h34.04.648,leap3,2022.2.5,60.06600144450393,
,,,,,,,,0,0,0,0,4,0,4,0,,,,,,,,,,,,,,,,,,infinity,w,g,lower,g,1,0.7312374070752412,,,,,,,,,,,,,,,,,,,,,,,,,,,,,,301,2023-11-09_16h34.04.648,leap3,2022.2.5,60.06600144450393,
,,,,,,,,0,0,0,0,5,0,5,0,,,,,,,,,,,,,,,,,,revival,w,g,lower,g,1,0.8294351717922837,,,,,,,,,,,,,,,,,,,,,,,,,,,,,,301,2023-11-09_16h34.04.648,leap3,2022.2.5,60.06600144450393,
,,,,,,,,0,0,0,0,6,0,6,0,,,,,,,,,,,,,,,,,,lumbigo,nw,h,lower,h,1,0.6018023777287453,,,,,,,,,,,,,,,,,,,,,,,,,,,,,,301,2023-11-09_16h34.04.648,leap3,2022.2.5,60.06600144450393,
,,,,,,,,0,0,0,0,7,0,7,0,,,,,,,,,,,,,,,,,,lurshing,nw,h,lower,h,1,0.7688652779906988,,,,,,,,,,,,,,,,,,,,,,,,,,,,,,301,2023-11-09_16h34.04.648,leap3,2022.2.5,60.06600144450393,
,,,,,,,,0,0,0,0,8,0,8,0,,,,,,,,,,,,,,,,,,slumber,w,g,lower,g,1,0.9366048807278275,,,,,,,,,,,,,,,,,,,,,,,,,,,,,,301,2023-11-09_16h34.04.648,leap3,2022.2.5,60.06600144450393,
,,,,,,,,0,0,0,0,9,0,9,0,,,,,,,,,,,,,,,,,,overshoot,w,g,lower,g,1,0.8242900432087481,,,,,,,,,,,,,,,,,,,,,,,,,,,,,,301,2023-11-09_16h34.04.648,leap3,2022.2.5,60.06600144450393,
,,,,,,,,0,0,0,0,10,0,10,0,,,,,,,,,,,,,,,,,,curlecs,nw,h,lower,h,1,0.5816790682729334,,,,,,,,,,,,,,,,,,,,,,,,,,,,,,301,2023-11-09_16h34.04.648,leap3,2022.2.5,60.06600144450393,
,,,,,,,,0,0,0,0,11,0,11,0,,,,,,,,,,,,,,,,,,turative,nw,h,lower,h,1,0.7010711478069425,,,,,,,,,,,,,,,,,,,,,,,,,,,,,,301,2023-11-09_16h34.04.648,leap3,2022.2.5,60.06600144450393,
,,,,,,,,0,0,0,0,12,0,12,0,,,,,,,,,,,,,,,,,,hasking,nw,h,lower,h,1,0.7186432471498847,,,,,,,,,,,,,,,,,,,,,,,,,,,,,,301,2023-11-09_16h34.04.648,leap3,2022.2.5,60.06600144450393,
,,,,,,,,0,0,0,0,13,0,13,0,,,,,,,,,,,,,,,,,,picture,w,g,lower,h,0,0.4885175107046962,,,,,,,,,,,,,,,,,,,,,,,,,,,,,,301,2023-11-09_16h34.04.648,leap3,2022.2.5,60.06600144450393,
,,,,,,,,0,0,0,0,,,,,,,,,,,,,,,,,,,,,,,,,,,,,,,,,,,,,,,,,,,,,,,,,,,,,,,,,,301,2023-11-09_16h34.04.648,leap3,2022.2.5,60.06600144450393,
,,,,,,,,1,0,1,0,0,0,0,0,,,,,,,,,,,,,,,,,,umpire,w,g,upper,g,1,0.882796058896929,,,,,,,,,,,,,,,,,,,,,,,,,,,,,,301,2023-11-09_16h34.04.648,leap3,2022.2.5,60.06600144450393,
,,,,,,,,1,0,1,0,1,0,1,0,,,,,,,,,,,,,,,,,,alolition,nw,h,upper,h,1,0.9024320363532752,,,,,,,,,,,,,,,,,,,,,,,,,,,,,,301,2023-11-09_16h34.04.648,leap3,2022.2.5,60.06600144450393,
,,,,,,,,1,0,1,0,2,0,2,0,,,,,,,,,,,,,,,,,,crinklo,nw,h,upper,h,1,0.6562571139074862,,,,,,,,,,,,,,,,,,,,,,,,,,,,,,301,2023-11-09_16h34.04.648,leap3,2022.2.5,60.06600144450393,
,,,,,,,,1,0,1,0,3,0,3,0,,,,,,,,,,,,,,,,,,sponsor,w,g,upper,g,1,0.8684075099881738,,,,,,,,,,,,,,,,,,,,,,,,,,,,,,301,2023-11-09_16h34.04.648,leap3,2022.2.5,60.06600144450393,
,,,,,,,,1,0,1,0,4,0,4,0,,,,,,,,,,,,,,,,,,busted,w,g,upper,g,1,0.8947807224467397,,,,,,,,,,,,,,,,,,,,,,,,,,,,,,301,2023-11-09_16h34.04.648,leap3,2022.2.5,60.06600144450393,
,,,,,,,,1,0,1,0,5,0,5,0,,,,,,,,,,,,,,,,,,hiring,w,g,upper,g,1,0.7455925177782774,,,,,,,,,,,,,,,,,,,,,,,,,,,,,,301,2023-11-09_16h34.04.648,leap3,2022.2.5,60.06600144450393,
,,,,,,,,1,0,1,0,6,0,6,0,,,,,,,,,,,,,,,,,,treeps,nw,h,upper,h,1,0.9783184628468007,,,,,,,,,,,,,,,,,,,,,,,,,,,,,,301,2023-11-09_16h34.04.648,leap3,2022.2.5,60.06600144450393,
,,,,,,,,1,0,1,0,7,0,7,0,,,,,,,,,,,,,,,,,,grocus,nw,h,upper,h,1,0.793704983079806,,,,,,,,,,,,,,,,,,,,,,,,,,,,,,301,2023-11-09_16h34.04.648,leap3,2022.2.5,60.06600144450393,
,,,,,,,,1,0,1,0,8,0,8,0,,,,,,,,,,,,,,,,,,unscrew,w,g,upper,g,1,0.7679641104768962,,,,,,,,,,,,,,,,,,,,,,,,,,,,,,301,2023-11-09_16h34.04.648,leap3,2022.2.5,60.06600144450393,
,,,,,,,,1,0,1,0,9,0,9,0,,,,,,,,,,,,,,,,,,summary,w,g,upper,g,1,0.678865420166403,,,,,,,,,,,,,,,,,,,,,,,,,,,,,,301,2023-11-09_16h34.04.648,leap3,2022.2.5,60.06600144450393,
,,,,,,,,1,0,1,0,10,0,10,0,,,,,,,,,,,,,,,,,,trotch,nw,h,upper,h,1,0.8182414297480136,,,,,,,,,,,,,,,,,,,,,,,,,,,,,,301,2023-11-09_16h34.04.648,leap3,2022.2.5,60.06600144450393,
,,,,,,,,1,0,1,0,11,0,11,0,,,,,,,,,,,,,,,,,,latador,nw,h,upper,h,1,0.5837555271573365,,,,,,,,,,,,,,,,,,,,,,,,,,,,,,301,2023-11-09_16h34.04.648,leap3,2022.2.5,60.06600144450393,
,,,,,,,,1,0,1,0,12,0,12,0,,,,,,,,,,,,,,,,,,raestro,nw,h,upper,h,1,0.646368773188442,,,,,,,,,,,,,,,,,,,,,,,,,,,,,,301,2023-11-09_16h34.04.648,leap3,2022.2.5,60.06600144450393,
,,,,,,,,1,0,1,0,13,0,13,0,,,,,,,,,,,,,,,,,,reputable,w,g,upper,h,0,0.6189947419334203,,,,,,,,,,,,,,,,,,,,,,,,,,,,,,301,2023-11-09_16h34.04.648,leap3,2022.2.5,60.06600144450393,
,,,,,,,,1,0,1,0,,,,,,,,,,,,,,,,,,,,,,,,,,,,,,,,,,,,,,,,,,,,,,,,,,,,,,,,,,301,2023-11-09_16h34.04.648,leap3,2022.2.5,60.06600144450393,
,,,,,,,,,,,,,,,,0,0,0,0,,,,,,,,,,,,,,,,,,,,,y,,,,,,,,,,,,,,,,,,,,,,,,,,,,,301,2023-11-09_16h34.04.648,leap3,2022.2.5,60.06600144450393,
,,,,,,,,,,,,,,,,,,,,0,0,0,0,0,0,0,0,,,,,,prama,nw,h,lower,,,,,animal,"
q",2,nw,HiDemNoTar,None,h,1,1.1148453005589545,None,,,,,,,,,,,,,,,,,,,301,2023-11-09_16h34.04.648,leap3,2022.2.5,60.06600144450393,
,,,,,,,,,,,,,,,,,,,,0,0,0,0,1,0,1,0,,,,,,publish,w,g,lower,,,,,,,2,w,HiDemNoTar,None,g,1,0.885559483896941,None,,,,,,,,,,,,,,,,,,,301,2023-11-09_16h34.04.648,leap3,2022.2.5,60.06600144450393,
,,,,,,,,,,,,,,,,,,,,0,0,0,0,2,0,2,0,,,,,,dialect,w,g,lower,,,,,,,2,w,HiDemNoTar,None,h,0,0.6490510865114629,None,,,,,,,,,,,,,,,,,,,301,2023-11-09_16h34.04.648,leap3,2022.2.5,60.06600144450393,
,,,,,,,,,,,,,,,,,,,,0,0,0,0,3,0,3,0,,,,,,ignore,w,g,lower,,,,,,,2,w,HiDemNoTar,None,g,1,0.6063178151380271,None,,,,,,,,,,,,,,,,,,,301,2023-11-09_16h34.04.648,leap3,2022.2.5,60.06600144450393,
,,,,,,,,,,,,,,,,,,,,0,0,0,0,4,0,4,0,,,,,,unlined,w,g,lower,,,,,,,2,w,HiDemNoTar,None,g,1,1.1491052159108222,None,,,,,,,,,,,,,,,,,,,301,2023-11-09_16h34.04.648,leap3,2022.2.5,60.06600144450393,
,,,,,,,,,,,,,,,,,,,,0,0,0,0,5,0,5,0,,,,,,veranpah,nw,h,lower,,,,,,,2,nw,HiDemNoTar,None,h,1,0.8783809351734817,None,,,,,,,,,,,,,,,,,,,301,2023-11-09_16h34.04.648,leap3,2022.2.5,60.06600144450393,
,,,,,,,,,,,,,,,,,,,,0,0,0,0,6,0,6,0,,,,,,crundle,nw,h,lower,,,,,,,2,nw,HiDemNoTar,None,h,1,0.8807563483715057,None,,,,,,,,,,,,,,,,,,,301,2023-11-09_16h34.04.648,leap3,2022.2.5,60.06600144450393,
,,,,,,,,,,,,,,,,,,,,0,0,0,0,7,0,7,0,,,,,,befin,nw,h,lower,,,,,,,2,nw,HiDemNoTar,None,h,1,0.9718407851178199,None,,,,,,,,,,,,,,,,,,,301,2023-11-09_16h34.04.648,leap3,2022.2.5,60.06600144450393,
,,,,,,,,,,,,,,,,,,,,0,0,0,0,8,0,8,0,,,,,,lanthers,nw,h,lower,,,,,,,2,nw,HiDemNoTar,None,h,1,0.9735931283794343,None,,,,,,,,,,,,,,,,,,,301,2023-11-09_16h34.04.648,leap3,2022.2.5,60.06600144450393,
,,,,,,,,,,,,,,,,,,,,0,0,0,0,9,0,9,0,,,,,,melodic,w,g,lower,,,,,,,2,w,HiDemNoTar,None,g,1,0.8615742654073983,None,,,,,,,,,,,,,,,,,,,301,2023-11-09_16h34.04.648,leap3,2022.2.5,60.06600144450393,
,,,,,,,,,,,,,,,,,,,,0,0,0,0,10,0,10,0,,,,,,slooch,nw,h,lower,,,,,,,2,nw,HiDemNoTar,None,h,1,0.8664045482873917,None,,,,,,,,,,,,,,,,,,,301,2023-11-09_16h34.04.648,leap3,2022.2.5,60.06600144450393,
,,,,,,,,,,,,,,,,,,,,0,0,0,0,11,0,11,0,,,,,,saturate,w,g,lower,,,,,,,2,w,HiDemNoTar,None,g,1,0.9831172940321267,None,,,,,,,,,,,,,,,,,,,301,2023-11-09_16h34.04.648,leap3,2022.2.5,60.06600144450393,
,,,,,,,,,,,,,,,,,,,,0,0,0,0,12,0,12,0,,,,,,allained,nw,h,lower,,,,,,,2,nw,HiDemNoTar,None,h,1,1.0071091339923441,None,,,,,,,,,,,,,,,,,,,301,2023-11-09_16h34.04.648,leap3,2022.2.5,60.06600144450393,
,,,,,,,,,,,,,,,,,,,,0,0,0,0,13,0,13,0,,,,,,glapula,nw,h,lower,,,,,,,2,nw,HiDemNoTar,None,h,1,0.8858432092238218,None,,,,,,,,,,,,,,,,,,,301,2023-11-09_16h34.04.648,leap3,2022.2.5,60.06600144450393,
,,,,,,,,,,,,,,,,,,,,0,0,0,0,14,0,14,0,,,,,,monopoly,w,g,lower,,,,,,,2,w,HiDemNoTar,None,g,1,0.760304851224646,None,,,,,,,,,,,,,,,,,,,301,2023-11-09_16h34.04.648,leap3,2022.2.5,60.06600144450393,
,,,,,,,,,,,,,,,,,,,,0,0,0,0,15,0,15,0,,,,,,otoist,nw,h,lower,,,,,,,2,nw,HiDemNoTar,None,h,1,0.8249167548492551,None,,,,,,,,,,,,,,,,,,,301,2023-11-09_16h34.04.648,leap3,2022.2.5,60.06600144450393,
,,,,,,,,,,,,,,,,,,,,0,0,0,0,16,0,16,0,,,,,,troven,nw,h,lower,,,,,,,2,nw,HiDemNoTar,None,h,1,0.9831242465879768,None,,,,,,,,,,,,,,,,,,,301,2023-11-09_16h34.04.648,leap3,2022.2.5,60.06600144450393,
,,,,,,,,,,,,,,,,,,,,0,0,0,0,17,0,17,0,,,,,,design,w,g,lower,,,,,,,2,w,HiDemNoTar,None,g,1,0.8230674089863896,None,,,,,,,,,,,,,,,,,,,301,2023-11-09_16h34.04.648,leap3,2022.2.5,60.06600144450393,
,,,,,,,,,,,,,,,,,,,,0,0,0,0,18,0,18,0,,,,,,bloodless,w,g,lower,,,,,,,2,w,HiDemNoTar,None,g,1,1.0531471266876906,None,,,,,,,,,,,,,,,,,,,301,2023-11-09_16h34.04.648,leap3,2022.2.5,60.06600144450393,
,,,,,,,,,,,,,,,,,,,,0,0,0,0,19,0,19,0,,,,,,afford,w,g,lower,,,,,,,2,w,HiDemNoTar,None,g,1,1.0257840207777917,None,,,,,,,,,,,,,,,,,,,301,2023-11-09_16h34.04.648,leap3,2022.2.5,60.06600144450393,
,,,,,,,,,,,,,,,,,,,,0,0,0,0,20,0,20,0,,,,,,borrent,nw,h,lower,,,,,,,2,nw,HiDemNoTar,None,h,1,0.8078068266622722,None,,,,,,,,,,,,,,,,,,,301,2023-11-09_16h34.04.648,leap3,2022.2.5,60.06600144450393,
,,,,,,,,,,,,,,,,,,,,0,0,0,0,21,0,21,0,,,,,,armada,w,g,lower,,,,,,,2,w,HiDemNoTar,None,g,1,1.6145683620125055,None,,,,,,,,,,,,,,,,,,,301,2023-11-09_16h34.04.648,leap3,2022.2.5,60.06600144450393,
,,,,,,,,,,,,,,,,,,,,0,0,0,0,22,0,22,0,,,,,,valif,nw,h,lower,,,,,,,2,nw,HiDemNoTar,None,h,1,0.7164595222566277,None,,,,,,,,,,,,,,,,,,,301,2023-11-09_16h34.04.648,leap3,2022.2.5,60.06600144450393,
,,,,,,,,,,,,,,,,,,,,0,0,0,0,23,0,23,0,,,,,,mennel,nw,h,lower,,,,,,,2,nw,HiDemNoTar,None,h,1,0.878996059531346,None,,,,,,,,,,,,,,,,,,,301,2023-11-09_16h34.04.648,leap3,2022.2.5,60.06600144450393,
,,,,,,,,,,,,,,,,,,,,0,0,0,0,24,0,24,0,,,,,,golemic,nw,h,lower,,,,,,,2,nw,HiDemNoTar,None,h,1,0.6029309888835996,None,,,,,,,,,,,,,,,,,,,301,2023-11-09_16h34.04.648,leap3,2022.2.5,60.06600144450393,
,,,,,,,,,,,,,,,,,,,,0,0,0,0,25,0,25,0,,,,,,gaining,w,g,lower,,,,,,,2,w,HiDemNoTar,None,g,1,0.913583732675761,None,,,,,,,,,,,,,,,,,,,301,2023-11-09_16h34.04.648,leap3,2022.2.5,60.06600144450393,
,,,,,,,,,,,,,,,,,,,,0,0,0,0,26,0,26,0,,,,,,calcify,w,g,lower,,,,,,,2,w,HiDemNoTar,None,g,1,1.1083686160854995,None,,,,,,,,,,,,,,,,,,,301,2023-11-09_16h34.04.648,leap3,2022.2.5,60.06600144450393,
,,,,,,,,,,,,,,,,,,,,0,0,0,0,27,0,27,0,,,,,,slightly,w,g,lower,,,,,,,2,w,HiDemNoTar,None,g,1,0.7429489395581186,None,,,,,,,,,,,,,,,,,,,301,2023-11-09_16h34.04.648,leap3,2022.2.5,60.06600144450393,
,,,,,,,,,,,,,,,,,,,,0,0,0,0,28,0,28,0,,,,,,bingu,nw,h,lower,,,,,,,2,nw,HiDemNoTar,None,h,1,1.8964171917177737,None,,,,,,,,,,,,,,,,,,,301,2023-11-09_16h34.04.648,leap3,2022.2.5,60.06600144450393,
,,,,,,,,,,,,,,,,,,,,0,0,0,0,29,0,29,0,,,,,,module,w,g,lower,,,,,,,2,w,HiDemNoTar,None,g,1,0.7780391736887395,None,,,,,,,,,,,,,,,,,,,301,2023-11-09_16h34.04.648,leap3,2022.2.5,60.06600144450393,
,,,,,,,,,,,,,,,,,,,,0,0,0,0,,,,,,,,,,,,,,,,,,,,,,,,,,,,,,,,,,,,,,,,,,,,,,301,2023-11-09_16h34.04.648,leap3,2022.2.5,60.06600144450393,
,,,,,,,,,,,,,,,,,,,,1,0,1,0,0,0,0,0,,,,,,favoting,nw,h,lower,,,,,,,1,nw,HiDemTar,None,h,1,0.8910714359954,None,,,,,,,,,,,,,,,,,,,301,2023-11-09_16h34.04.648,leap3,2022.2.5,60.06600144450393,
,,,,,,,,,,,,,,,,,,,,1,0,1,0,1,0,1,0,,,,,,yearnungs,nw,h,lower,,,,,,,1,nw,HiDemTar,None,h,1,1.5025120885111392,None,,,,,,,,,,,,,,,,,,,301,2023-11-09_16h34.04.648,leap3,2022.2.5,60.06600144450393,
,,,,,,,,,,,,,,,,,,,,1,0,1,0,2,0,2,0,,,,,,arranged,w,g,lower,,,,,,,1,w,HiDemTar,None,g,1,0.7692188585642725,None,,,,,,,,,,,,,,,,,,,301,2023-11-09_16h34.04.648,leap3,2022.2.5,60.06600144450393,
,,,,,,,,,,,,,,,,,,,,1,0,1,0,3,0,3,0,,,,,,sporidic,nw,h,lower,,,,,,,1,nw,HiDemTar,None,h,1,1.4332360979169607,None,,,,,,,,,,,,,,,,,,,301,2023-11-09_16h34.04.648,leap3,2022.2.5,60.06600144450393,
,,,,,,,,,,,,,,,,,,,,1,0,1,0,4,0,4,0,,,,,,capobly,nw,h,lower,,,,,,,1,nw,HiDemTar,None,h,1,1.01439130702056,None,,,,,,,,,,,,,,,,,,,301,2023-11-09_16h34.04.648,leap3,2022.2.5,60.06600144450393,
,,,,,,,,,,,,,,,,,,,,1,0,1,0,5,0,5,0,,,,,,surround,w,g,lower,,,,,,,1,w,HiDemTar,None,g,1,0.941011396702379,None,,,,,,,,,,,,,,,,,,,301,2023-11-09_16h34.04.648,leap3,2022.2.5,60.06600144450393,
,,,,,,,,,,,,,,,,,,,,1,0,1,0,6,0,6,0,,,,,,terrify,w,g,lower,,,,,,,1,w,HiDemTar,None,g,1,0.7343938099220395,None,,,,,,,,,,,,,,,,,,,301,2023-11-09_16h34.04.648,leap3,2022.2.5,60.06600144450393,
,,,,,,,,,,,,,,,,,,,,1,0,1,0,7,0,7,0,,,,,,sonnet,w,g,lower,,,,,,,1,w,HiDemTar,None,g,1,0.9437569440342486,None,,,,,,,,,,,,,,,,,,,301,2023-11-09_16h34.04.648,leap3,2022.2.5,60.06600144450393,
,,,,,,,,,,,,,,,,,,,,1,0,1,0,8,0,8,0,,,,,,pammed,nw,h,lower,,,,,,,1,nw,HiDemTar,None,h,1,1.1531680834013969,None,,,,,,,,,,,,,,,,,,,301,2023-11-09_16h34.04.648,leap3,2022.2.5,60.06600144450393,
,,,,,,,,,,,,,,,,,,,,1,0,1,0,9,0,9,0,,,,,,tining,nw,h,lower,,,,,,,1,nw,HiDemTar,None,h,1,1.033826326020062,None,,,,,,,,,,,,,,,,,,,301,2023-11-09_16h34.04.648,leap3,2022.2.5,60.06600144450393,
,,,,,,,,,,,,,,,,,,,,1,0,1,0,10,0,10,0,,,,,,slutches,nw,h,lower,,,,,,,1,nw,HiDemTar,None,h,1,0.8152237443719059,None,,,,,,,,,,,,,,,,,,,301,2023-11-09_16h34.04.648,leap3,2022.2.5,60.06600144450393,
,,,,,,,,,,,,,,,,,,,,1,0,1,0,11,0,11,0,,,,,,protest,w,g,lower,,,,,,,1,w,HiDemTar,None,g,1,0.965873945504427,None,,,,,,,,,,,,,,,,,,,301,2023-11-09_16h34.04.648,leap3,2022.2.5,60.06600144450393,
,,,,,,,,,,,,,,,,,,,,1,0,1,0,12,0,12,0,,,,,,massacre,w,g,lower,,,,,,,1,w,HiDemTar,None,g,1,0.8536869001109153,None,,,,,,,,,,,,,,,,,,,301,2023-11-09_16h34.04.648,leap3,2022.2.5,60.06600144450393,
,,,,,,,,,,,,,,,,,,,,1,0,1,0,13,0,13,0,,,,,,shamrock,w,g,lower,,,,,,,1,w,HiDemTar,None,g,1,1.3223223402164876,None,,,,,,,,,,,,,,,,,,,301,2023-11-09_16h34.04.648,leap3,2022.2.5,60.06600144450393,
,,,,,,,,,,,,,,,,,,,,1,0,1,0,14,0,14,0,,,,,,tipoff,w,g,lower,,,,,,,1,w,HiDemTar,None,g,1,1.0844565636944026,None,,,,,,,,,,,,,,,,,,,301,2023-11-09_16h34.04.648,leap3,2022.2.5,60.06600144450393,
,,,,,,,,,,,,,,,,,,,,1,0,1,0,15,0,15,0,,,,,,meteoroid,w,g,lower,,,,,,,1,w,HiDemTar,None,g,1,1.1917563825845718,None,,,,,,,,,,,,,,,,,,,301,2023-11-09_16h34.04.648,leap3,2022.2.5,60.06600144450393,
,,,,,,,,,,,,,,,,,,,,1,0,1,0,16,0,16,0,,,,,,ensues,w,g,lower,,,,,,,1,w,HiDemTar,None,g,1,1.5832546211313456,None,,,,,,,,,,,,,,,,,,,301,2023-11-09_16h34.04.648,leap3,2022.2.5,60.06600144450393,
,,,,,,,,,,,,,,,,,,,,1,0,1,0,17,0,17,0,,,,,,levels,w,g,lower,,,,,,,1,w,HiDemTar,None,g,1,0.6072335492353886,None,,,,,,,,,,,,,,,,,,,301,2023-11-09_16h34.04.648,leap3,2022.2.5,60.06600144450393,
,,,,,,,,,,,,,,,,,,,,1,0,1,0,18,0,18,0,,,,,,blocking,w,g,lower,,,,,,,1,w,HiDemTar,None,g,1,0.6772984752897173,None,,,,,,,,,,,,,,,,,,,301,2023-11-09_16h34.04.648,leap3,2022.2.5,60.06600144450393,
,,,,,,,,,,,,,,,,,,,,1,0,1,0,19,0,19,0,,,,,,neally,nw,h,lower,,,,,,,1,nw,HiDemTar,None,h,1,0.8180662947706878,None,,,,,,,,,,,,,,,,,,,301,2023-11-09_16h34.04.648,leap3,2022.2.5,60.06600144450393,
,,,,,,,,,,,,,,,,,,,,1,0,1,0,20,0,20,0,,,,,,cutout,w,g,lower,,,,,,,1,w,HiDemTar,None,g,1,0.9356739174108952,None,,,,,,,,,,,,,,,,,,,301,2023-11-09_16h34.04.648,leap3,2022.2.5,60.06600144450393,
,,,,,,,,,,,,,,,,,,,,1,0,1,0,21,0,21,0,,,,,,nauling,nw,h,lower,,,,,,,1,nw,HiDemTar,None,h,1,0.8891118441242725,None,,,,,,,,,,,,,,,,,,,301,2023-11-09_16h34.04.648,leap3,2022.2.5,60.06600144450393,
,,,,,,,,,,,,,,,,,,,,1,0,1,0,22,0,22,0,,,,,,chonemic,nw,h,lower,,,,,,,1,nw,HiDemTar,None,h,1,2.2285363883711398,None,,,,,,,,,,,,,,,,,,,301,2023-11-09_16h34.04.648,leap3,2022.2.5,60.06600144450393,
,,,,,,,,,,,,,,,,,,,,1,0,1,0,23,0,23,0,,,,,,coyote,target,q,lower,,,,,,,1,target,HiDemTar,None,g,0,0.8426186328288168,None,,,,,,,,,,,,,,,,,,,301,2023-11-09_16h34.04.648,leap3,2022.2.5,60.06600144450393,
,,,,,,,,,,,,,,,,,,,,1,0,1,0,24,0,24,0,,,,,,leuter,nw,h,lower,,,,,,,1,aftertar1,HiDemTar,None,h,1,0.8799667512066662,None,,,,,,,,,,,,,,,,,,,301,2023-11-09_16h34.04.648,leap3,2022.2.5,60.06600144450393,
,,,,,,,,,,,,,,,,,,,,1,0,1,0,25,0,25,0,,,,,,brongs,nw,h,lower,,,,,,,1,aftertar2,HiDemTar,None,h,1,0.9161584489047527,None,,,,,,,,,,,,,,,,,,,301,2023-11-09_16h34.04.648,leap3,2022.2.5,60.06600144450393,
,,,,,,,,,,,,,,,,,,,,1,0,1,0,26,0,26,0,,,,,,havel,nw,h,lower,,,,,,,1,aftertar3,HiDemTar,None,h,1,0.9266850887797773,None,,,,,,,,,,,,,,,,,,,301,2023-11-09_16h34.04.648,leap3,2022.2.5,60.06600144450393,
,,,,,,,,,,,,,,,,,,,,1,0,1,0,27,0,27,0,,,,,,sength,nw,h,lower,,,,,,,1,nw,HiDemTar,None,h,1,0.9197919208090752,None,,,,,,,,,,,,,,,,,,,301,2023-11-09_16h34.04.648,leap3,2022.2.5,60.06600144450393,
,,,,,,,,,,,,,,,,,,,,1,0,1,0,28,0,28,0,,,,,,latter,w,g,lower,,,,,,,1,nw,HiDemTar,None,g,1,1.2177895882632583,None,,,,,,,,,,,,,,,,,,,301,2023-11-09_16h34.04.648,leap3,2022.2.5,60.06600144450393,
,,,,,,,,,,,,,,,,,,,,1,0,1,0,29,0,29,0,,,,,,charcoal,w,g,lower,,,,,,,1,w,HiDemTar,None,g,1,0.6078062972519547,None,,,,,,,,,,,,,,,,,,,301,2023-11-09_16h34.04.648,leap3,2022.2.5,60.06600144450393,
,,,,,,,,,,,,,,,,,,,,1,0,1,0,,,,,,,,,,,,,,,,,,,,,,,,,,,,,,,,,,,,,,,,,,,,,,301,2023-11-09_16h34.04.648,leap3,2022.2.5,60.06600144450393,
,,,,,,,,,,,,,,,,,,,,2,0,2,0,0,0,0,0,,,,,,epic,w,g,lower,,,,,,,1,w,HiDemTar,None,g,1,0.7422646216582507,None,,,,,,,,,,,,,,,,,,,301,2023-11-09_16h34.04.648,leap3,2022.2.5,60.06600144450393,
,,,,,,,,,,,,,,,,,,,,2,0,2,0,1,0,1,0,,,,,,fracture,w,g,lower,,,,,,,1,w,HiDemTar,None,g,1,0.696079634828493,None,,,,,,,,,,,,,,,,,,,301,2023-11-09_16h34.04.648,leap3,2022.2.5,60.06600144450393,
,,,,,,,,,,,,,,,,,,,,2,0,2,0,2,0,2,0,,,,,,anemic,w,g,lower,,,,,,,1,w,HiDemTar,None,g,1,0.9144577523693442,None,,,,,,,,,,,,,,,,,,,301,2023-11-09_16h34.04.648,leap3,2022.2.5,60.06600144450393,
,,,,,,,,,,,,,,,,,,,,2,0,2,0,3,0,3,0,,,,,,ugifies,nw,h,lower,,,,,,,1,nw,HiDemTar,None,h,1,0.8290120668243617,None,,,,,,,,,,,,,,,,,,,301,2023-11-09_16h34.04.648,leap3,2022.2.5,60.06600144450393,
,,,,,,,,,,,,,,,,,,,,2,0,2,0,4,0,4,0,,,,,,lightels,nw,h,lower,,,,,,,1,nw,HiDemTar,None,h,1,1.107184054562822,None,,,,,,,,,,,,,,,,,,,301,2023-11-09_16h34.04.648,leap3,2022.2.5,60.06600144450393,
,,,,,,,,,,,,,,,,,,,,2,0,2,0,5,0,5,0,,,,,,ganter,nw,h,lower,,,,,,,1,nw,HiDemTar,None,h,1,0.933564682956785,None,,,,,,,,,,,,,,,,,,,301,2023-11-09_16h34.04.648,leap3,2022.2.5,60.06600144450393,
,,,,,,,,,,,,,,,,,,,,2,0,2,0,6,0,6,0,,,,,,tapling,nw,h,lower,,,,,,,1,nw,HiDemTar,None,h,1,0.8151730911340564,None,,,,,,,,,,,,,,,,,,,301,2023-11-09_16h34.04.648,leap3,2022.2.5,60.06600144450393,
,,,,,,,,,,,,,,,,,,,,2,0,2,0,7,0,7,0,,,,,,selongs,nw,h,lower,,,,,,,1,nw,HiDemTar,None,h,1,0.9099439703859389,None,,,,,,,,,,,,,,,,,,,301,2023-11-09_16h34.04.648,leap3,2022.2.5,60.06600144450393,
,,,,,,,,,,,,,,,,,,,,2,0,2,0,8,0,8,0,,,,,,retona,nw,h,lower,,,,,,,1,nw,HiDemTar,None,h,1,1.16066412627697,None,,,,,,,,,,,,,,,,,,,301,2023-11-09_16h34.04.648,leap3,2022.2.5,60.06600144450393,
,,,,,,,,,,,,,,,,,,,,2,0,2,0,9,0,9,0,,,,,,repayment,w,g,lower,,,,,,,1,w,HiDemTar,None,g,1,0.817391247022897,None,,,,,,,,,,,,,,,,,,,301,2023-11-09_16h34.04.648,leap3,2022.2.5,60.06600144450393,
,,,,,,,,,,,,,,,,,,,,2,0,2,0,10,0,10,0,,,,,,fudden,nw,h,lower,,,,,,,1,nw,HiDemTar,None,h,1,0.8151389912236482,None,,,,,,,,,,,,,,,,,,,301,2023-11-09_16h34.04.648,leap3,2022.2.5,60.06600144450393,
,,,,,,,,,,,,,,,,,,,,2,0,2,0,11,0,11,0,,,,,,rapport,w,g,lower,,,,,,,1,w,HiDemTar,None,h,0,0.6937886439263821,None,,,,,,,,,,,,,,,,,,,301,2023-11-09_16h34.04.648,leap3,2022.2.5,60.06600144450393,
,,,,,,,,,,,,,,,,,,,,2,0,2,0,12,0,12,0,,,,,,gymnasium,w,g,lower,,,,,,,1,w,HiDemTar,None,g,1,0.7452713819220662,None,,,,,,,,,,,,,,,,,,,301,2023-11-09_16h34.04.648,leap3,2022.2.5,60.06600144450393,
,,,,,,,,,,,,,,,,,,,,2,0,2,0,13,0,13,0,,,,,,railroad,w,g,lower,,,,,,,1,w,HiDemTar,None,g,1,0.6746774094644934,None,,,,,,,,,,,,,,,,,,,301,2023-11-09_16h34.04.648,leap3,2022.2.5,60.06600144450393,
,,,,,,,,,,,,,,,,,,,,2,0,2,0,14,0,14,0,,,,,,outflow,w,g,lower,,,,,,,1,w,HiDemTar,None,g,1,0.846896363189444,None,,,,,,,,,,,,,,,,,,,301,2023-11-09_16h34.04.648,leap3,2022.2.5,60.06600144450393,
,,,,,,,,,,,,,,,,,,,,2,0,2,0,15,0,15,0,,,,,,amms,nw,h,lower,,,,,,,1,nw,HiDemTar,None,h,1,0.8841484717559069,None,,,,,,,,,,,,,,,,,,,301,2023-11-09_16h34.04.648,leap3,2022.2.5,60.06600144450393,
,,,,,,,,,,,,,,,,,,,,2,0,2,0,16,0,16,0,,,,,,padicals,nw,h,lower,,,,,,,1,nw,HiDemTar,None,h,1,0.9594091798644513,None,,,,,,,,,,,,,,,,,,,301,2023-11-09_16h34.04.648,leap3,2022.2.5,60.06600144450393,
,,,,,,,,,,,,,,,,,,,,2,0,2,0,17,0,17,0,,,,,,expected,w,g,lower,,,,,,,1,w,HiDemTar,None,g,1,1.0237830455880612,None,,,,,,,,,,,,,,,,,,,301,2023-11-09_16h34.04.648,leap3,2022.2.5,60.06600144450393,
,,,,,,,,,,,,,,,,,,,,2,0,2,0,18,0,18,0,,,,,,ragtam,nw,h,lower,,,,,,,1,nw,HiDemTar,None,h,1,1.2933363385964185,None,,,,,,,,,,,,,,,,,,,301,2023-11-09_16h34.04.648,leap3,2022.2.5,60.06600144450393,
,,,,,,,,,,,,,,,,,,,,2,0,2,0,19,0,19,0,,,,,,amaze,w,g,lower,,,,,,,1,w,HiDemTar,None,g,1,1.1042249684687704,None,,,,,,,,,,,,,,,,,,,301,2023-11-09_16h34.04.648,leap3,2022.2.5,60.06600144450393,
,,,,,,,,,,,,,,,,,,,,2,0,2,0,20,0,20,0,,,,,,chrik,nw,h,lower,,,,,,,1,nw,HiDemTar,None,h,1,0.7473004979547113,None,,,,,,,,,,,,,,,,,,,301,2023-11-09_16h34.04.648,leap3,2022.2.5,60.06600144450393,
,,,,,,,,,,,,,,,,,,,,2,0,2,0,21,0,21,0,,,,,,metrol,nw,h,lower,,,,,,,1,nw,HiDemTar,None,h,1,1.668713218299672,None,,,,,,,,,,,,,,,,,,,301,2023-11-09_16h34.04.648,leap3,2022.2.5,60.06600144450393,
,,,,,,,,,,,,,,,,,,,,2,0,2,0,22,0,22,0,,,,,,balign,nw,h,lower,,,,,,,1,nw,HiDemTar,None,h,1,0.8490267859306186,None,,,,,,,,,,,,,,,,,,,301,2023-11-09_16h34.04.648,leap3,2022.2.5,60.06600144450393,
,,,,,,,,,,,,,,,,,,,,2,0,2,0,23,0,23,0,,,,,,lovud,nw,h,lower,,,,,,,1,nw,HiDemTar,None,h,1,0.8381144518498331,None,,,,,,,,,,,,,,,,,,,301,2023-11-09_16h34.04.648,leap3,2022.2.5,60.06600144450393,
,,,,,,,,,,,,,,,,,,,,2,0,2,0,24,0,24,0,,,,,,remover,w,g,lower,,,,,,,1,w,HiDemTar,None,g,1,0.8114806890953332,None,,,,,,,,,,,,,,,,,,,301,2023-11-09_16h34.04.648,leap3,2022.2.5,60.06600144450393,
,,,,,,,,,,,,,,,,,,,,2,0,2,0,25,0,25,0,,,,,,insertion,w,g,lower,,,,,,,1,w,HiDemTar,None,g,1,0.9782376820221543,None,,,,,,,,,,,,,,,,,,,301,2023-11-09_16h34.04.648,leap3,2022.2.5,60.06600144450393,
,,,,,,,,,,,,,,,,,,,,2,0,2,0,26,0,26,0,,,,,,submit,w,g,lower,,,,,,,1,w,HiDemTar,None,g,1,0.8812800981104374,None,,,,,,,,,,,,,,,,,,,301,2023-11-09_16h34.04.648,leap3,2022.2.5,60.06600144450393,
,,,,,,,,,,,,,,,,,,,,2,0,2,0,27,0,27,0,,,,,,couple,w,g,lower,,,,,,,1,w,HiDemTar,None,g,1,0.7732529228087515,None,,,,,,,,,,,,,,,,,,,301,2023-11-09_16h34.04.648,leap3,2022.2.5,60.06600144450393,
,,,,,,,,,,,,,,,,,,,,2,0,2,0,28,0,28,0,,,,,,defensa,nw,h,lower,,,,,,,1,nw,HiDemTar,None,h,1,0.8453539172187448,None,,,,,,,,,,,,,,,,,,,301,2023-11-09_16h34.04.648,leap3,2022.2.5,60.06600144450393,
,,,,,,,,,,,,,,,,,,,,2,0,2,0,29,0,29,0,,,,,,ladybug,target,q,lower,,,,,,,1,target,HiDemTar,None,g,0,0.8906569387763739,None,,,,,,,,,,,,,,,,,,,301,2023-11-09_16h34.04.648,leap3,2022.2.5,60.06600144450393,
,,,,,,,,,,,,,,,,,,,,2,0,2,0,,,,,,,,,,,,,,,,,,,,,,,,,,,,,,,,,,,,,,,,,,,,,,301,2023-11-09_16h34.04.648,leap3,2022.2.5,60.06600144450393,
,,,,,,,,,,,,,,,,,,,,3,0,3,0,0,0,0,0,,,,,,oalis,nw,h,upper,,,,,,,3,nw,LoDemNoTar,None,h,1,0.8621913762763143,None,,,,,,,,,,,,,,,,,,,301,2023-11-09_16h34.04.648,leap3,2022.2.5,60.06600144450393,
,,,,,,,,,,,,,,,,,,,,3,0,3,0,1,0,1,0,,,,,,naxis,nw,h,upper,,,,,,,3,nw,LoDemNoTar,None,h,1,0.8268180787563324,None,,,,,,,,,,,,,,,,,,,301,2023-11-09_16h34.04.648,leap3,2022.2.5,60.06600144450393,
,,,,,,,,,,,,,,,,,,,,3,0,3,0,2,0,2,0,,,,,,glating,nw,h,upper,,,,,,,3,nw,LoDemNoTar,None,h,1,1.0880618949886411,None,,,,,,,,,,,,,,,,,,,301,2023-11-09_16h34.04.648,leap3,2022.2.5,60.06600144450393,
,,,,,,,,,,,,,,,,,,,,3,0,3,0,3,0,3,0,,,,,,heaviest,w,g,upper,,,,,,,3,w,LoDemNoTar,None,g,1,0.7633265093900263,None,,,,,,,,,,,,,,,,,,,301,2023-11-09_16h34.04.648,leap3,2022.2.5,60.06600144450393,
,,,,,,,,,,,,,,,,,,,,3,0,3,0,4,0,4,0,,,,,,beggarlan,nw,h,upper,,,,,,,3,nw,LoDemNoTar,None,h,1,0.9480992327444255,None,,,,,,,,,,,,,,,,,,,301,2023-11-09_16h34.04.648,leap3,2022.2.5,60.06600144450393,
,,,,,,,,,,,,,,,,,,,,3,0,3,0,5,0,5,0,,,,,,miability,nw,h,upper,,,,,,,3,nw,LoDemNoTar,None,h,1,3.325635338202119,None,,,,,,,,,,,,,,,,,,,301,2023-11-09_16h34.04.648,leap3,2022.2.5,60.06600144450393,
,,,,,,,,,,,,,,,,,,,,3,0,3,0,6,0,6,0,,,,,,unversed,w,g,upper,,,,,,,3,w,LoDemNoTar,None,h,0,0.7195983785204589,None,,,,,,,,,,,,,,,,,,,301,2023-11-09_16h34.04.648,leap3,2022.2.5,60.06600144450393,
,,,,,,,,,,,,,,,,,,,,3,0,3,0,7,0,7,0,,,,,,ronic,nw,h,upper,,,,,,,3,nw,LoDemNoTar,None,h,1,0.6816549997311085,None,,,,,,,,,,,,,,,,,,,301,2023-11-09_16h34.04.648,leap3,2022.2.5,60.06600144450393,
,,,,,,,,,,,,,,,,,,,,3,0,3,0,8,0,8,0,,,,,,rawhide,w,g,upper,,,,,,,3,w,LoDemNoTar,None,q,0,1.2527070050127804,None,q,,,,,,,,,,,,,,,,,,301,2023-11-09_16h34.04.648,leap3,2022.2.5,60.06600144450393,
,,,,,,,,,,,,,,,,,,,,3,0,3,0,9,0,9,0,,,,,,visible,w,g,upper,,,,,,,3,w,LoDemNoTar,None,g,1,3.328798362519592,None,,,,,,,,,,,,,,,,,,,301,2023-11-09_16h34.04.648,leap3,2022.2.5,60.06600144450393,
,,,,,,,,,,,,,,,,,,,,3,0,3,0,10,0,10,0,,,,,,corg,nw,h,upper,,,,,,,3,nw,LoDemNoTar,None,h,1,1.779530635336414,None,,,,,,,,,,,,,,,,,,,301,2023-11-09_16h34.04.648,leap3,2022.2.5,60.06600144450393,
,,,,,,,,,,,,,,,,,,,,3,0,3,0,11,0,11,0,,,,,,disperse,w,g,upper,,,,,,,3,w,LoDemNoTar,None,g,1,0.7475686632096767,None,,,,,,,,,,,,,,,,,,,301,2023-11-09_16h34.04.648,leap3,2022.2.5,60.06600144450393,
,,,,,,,,,,,,,,,,,,,,3,0,3,0,12,0,12,0,,,,,,catacomb,w,g,upper,,,,,,,3,w,LoDemNoTar,None,g,1,1.0610394582618028,None,,,,,,,,,,,,,,,,,,,301,2023-11-09_16h34.04.648,leap3,2022.2.5,60.06600144450393,
,,,,,,,,,,,,,,,,,,,,3,0,3,0,13,0,13,0,,,,,,passet,nw,h,upper,,,,,,,3,nw,LoDemNoTar,None,h,1,0.89758519991301,None,,,,,,,,,,,,,,,,,,,301,2023-11-09_16h34.04.648,leap3,2022.2.5,60.06600144450393,
,,,,,,,,,,,,,,,,,,,,3,0,3,0,14,0,14,0,,,,,,infusion,w,g,upper,,,,,,,3,w,LoDemNoTar,None,g,1,0.7480149427428842,None,,,,,,,,,,,,,,,,,,,301,2023-11-09_16h34.04.648,leap3,2022.2.5,60.06600144450393,
,,,,,,,,,,,,,,,,,,,,3,0,3,0,15,0,15,0,,,,,,ready,w,g,upper,,,,,,,3,w,LoDemNoTar,None,g,1,1.525442855199799,None,,,,,,,,,,,,,,,,,,,301,2023-11-09_16h34.04.648,leap3,2022.2.5,60.06600144450393,
,,,,,,,,,,,,,,,,,,,,3,0,3,0,16,0,16,0,,,,,,antwers,nw,h,upper,,,,,,,3,nw,LoDemNoTar,None,h,1,0.991463188547641,None,,,,,,,,,,,,,,,,,,,301,2023-11-09_16h34.04.648,leap3,2022.2.5,60.06600144450393,
,,,,,,,,,,,,,,,,,,,,3,0,3,0,17,0,17,0,,,,,,release,w,g,upper,,,,,,,3,w,LoDemNoTar,None,g,1,1.3588487475644797,None,,,,,,,,,,,,,,,,,,,301,2023-11-09_16h34.04.648,leap3,2022.2.5,60.06600144450393,
,,,,,,,,,,,,,,,,,,,,3,0,3,0,18,0,18,0,,,,,,uncle,w,g,upper,,,,,,,3,w,LoDemNoTar,None,g,1,0.6715726531110704,None,,,,,,,,,,,,,,,,,,,301,2023-11-09_16h34.04.648,leap3,2022.2.5,60.06600144450393,
,,,,,,,,,,,,,,,,,,,,3,0,3,0,19,0,19,0,,,,,,iolize,nw,h,upper,,,,,,,3,nw,LoDemNoTar,None,h,1,0.8035863714758307,None,,,,,,,,,,,,,,,,,,,301,2023-11-09_16h34.04.648,leap3,2022.2.5,60.06600144450393,
,,,,,,,,,,,,,,,,,,,,3,0,3,0,20,0,20,0,,,,,,spigat,nw,h,upper,,,,,,,3,nw,LoDemNoTar,None,h,1,0.6822631717659533,None,,,,,,,,,,,,,,,,,,,301,2023-11-09_16h34.04.648,leap3,2022.2.5,60.06600144450393,
,,,,,,,,,,,,,,,,,,,,3,0,3,0,21,0,21,0,,,,,,atch,nw,h,upper,,,,,,,3,nw,LoDemNoTar,None,h,1,0.774372594896704,None,,,,,,,,,,,,,,,,,,,301,2023-11-09_16h34.04.648,leap3,2022.2.5,60.06600144450393,
,,,,,,,,,,,,,,,,,,,,3,0,3,0,22,0,22,0,,,,,,alticles,nw,h,upper,,,,,,,3,nw,LoDemNoTar,None,h,1,1.1174686837475747,None,,,,,,,,,,,,,,,,,,,301,2023-11-09_16h34.04.648,leap3,2022.2.5,60.06600144450393,
,,,,,,,,,,,,,,,,,,,,3,0,3,0,23,0,23,0,,,,,,rander,nw,h,upper,,,,,,,3,nw,LoDemNoTar,None,h,1,0.6314703796524554,None,,,,,,,,,,,,,,,,,,,301,2023-11-09_16h34.04.648,leap3,2022.2.5,60.06600144450393,
,,,,,,,,,,,,,,,,,,,,3,0,3,0,24,0,24,0,,,,,,addition,w,g,upper,,,,,,,3,w,LoDemNoTar,None,g,1,0.7816795979160815,None,,,,,,,,,,,,,,,,,,,301,2023-11-09_16h34.04.648,leap3,2022.2.5,60.06600144450393,
,,,,,,,,,,,,,,,,,,,,3,0,3,0,25,0,25,0,,,,,,tiger,w,g,upper,,,,,,,3,w,LoDemNoTar,None,g,1,0.8775625349953771,None,,,,,,,,,,,,,,,,,,,301,2023-11-09_16h34.04.648,leap3,2022.2.5,60.06600144450393,
,,,,,,,,,,,,,,,,,,,,3,0,3,0,26,0,26,0,,,,,,usage,w,g,upper,,,,,,,3,w,LoDemNoTar,None,g,1,0.8657695597503334,None,,,,,,,,,,,,,,,,,,,301,2023-11-09_16h34.04.648,leap3,2022.2.5,60.06600144450393,
,,,,,,,,,,,,,,,,,,,,3,0,3,0,27,0,27,0,,,,,,committed,w,g,upper,,,,,,,3,w,LoDemNoTar,None,g,1,0.9505838984623551,None,,,,,,,,,,,,,,,,,,,301,2023-11-09_16h34.04.648,leap3,2022.2.5,60.06600144450393,
,,,,,,,,,,,,,,,,,,,,3,0,3,0,28,0,28,0,,,,,,slimped,nw,h,upper,,,,,,,3,nw,LoDemNoTar,None,h,1,0.7590401712805033,None,,,,,,,,,,,,,,,,,,,301,2023-11-09_16h34.04.648,leap3,2022.2.5,60.06600144450393,
,,,,,,,,,,,,,,,,,,,,3,0,3,0,29,0,29,0,,,,,,patio,w,g,upper,,,,,,,3,w,LoDemNoTar,None,g,1,0.7679161056876183,None,,,,,,,,,,,,,,,,,,,301,2023-11-09_16h34.04.648,leap3,2022.2.5,60.06600144450393,
,,,,,,,,,,,,,,,,,,,,3,0,3,0,,,,,,,,,,,,,,,,,,,,,,,,,,,,,,,,,,,,,,,,,,,,,,301,2023-11-09_16h34.04.648,leap3,2022.2.5,60.06600144450393,
,,,,,,,,,,,,,,,,,,,,4,0,4,0,0,0,0,0,,,,,,galashes,nw,h,upper,,,,,,,3,nw,LoDemNoTar,None,h,1,1.054757772712037,None,,,,,,,,,,,,,,,,,,,301,2023-11-09_16h34.04.648,leap3,2022.2.5,60.06600144450393,
,,,,,,,,,,,,,,,,,,,,4,0,4,0,1,0,1,0,,,,,,digar,nw,h,upper,,,,,,,3,nw,LoDemNoTar,None,h,1,0.6114583087619394,None,,,,,,,,,,,,,,,,,,,301,2023-11-09_16h34.04.648,leap3,2022.2.5,60.06600144450393,
,,,,,,,,,,,,,,,,,,,,4,0,4,0,2,0,2,0,,,,,,quittint,nw,h,upper,,,,,,,3,nw,LoDemNoTar,None,h,1,0.6583862125407904,None,,,,,,,,,,,,,,,,,,,301,2023-11-09_16h34.04.648,leap3,2022.2.5,60.06600144450393,
,,,,,,,,,,,,,,,,,,,,4,0,4,0,3,0,3,0,,,,,,plogging,nw,h,upper,,,,,,,3,nw,LoDemNoTar,None,h,1,0.7428956374060363,None,,,,,,,,,,,,,,,,,,,301,2023-11-09_16h34.04.648,leap3,2022.2.5,60.06600144450393,
,,,,,,,,,,,,,,,,,,,,4,0,4,0,4,0,4,0,,,,,,halents,nw,h,upper,,,,,,,3,nw,LoDemNoTar,None,h,1,0.7841990259476006,None,,,,,,,,,,,,,,,,,,,301,2023-11-09_16h34.04.648,leap3,2022.2.5,60.06600144450393,
,,,,,,,,,,,,,,,,,,,,4,0,4,0,5,0,5,0,,,,,,hardest,w,g,upper,,,,,,,3,w,LoDemNoTar,None,g,1,0.9117625271901488,None,,,,,,,,,,,,,,,,,,,301,2023-11-09_16h34.04.648,leap3,2022.2.5,60.06600144450393,
,,,,,,,,,,,,,,,,,,,,4,0,4,0,6,0,6,0,,,,,,misest,nw,h,upper,,,,,,,3,nw,LoDemNoTar,None,h,1,1.305273990612477,None,,,,,,,,,,,,,,,,,,,301,2023-11-09_16h34.04.648,leap3,2022.2.5,60.06600144450393,
,,,,,,,,,,,,,,,,,,,,4,0,4,0,7,0,7,0,,,,,,humanize,w,g,upper,,,,,,,3,w,LoDemNoTar,None,g,1,0.868136034347117,None,,,,,,,,,,,,,,,,,,,301,2023-11-09_16h34.04.648,leap3,2022.2.5,60.06600144450393,
,,,,,,,,,,,,,,,,,,,,4,0,4,0,8,0,8,0,,,,,,cayward,nw,h,upper,,,,,,,3,nw,LoDemNoTar,None,h,1,1.8960036877542734,None,,,,,,,,,,,,,,,,,,,301,2023-11-09_16h34.04.648,leap3,2022.2.5,60.06600144450393,
,,,,,,,,,,,,,,,,,,,,4,0,4,0,9,0,9,0,,,,,,single,w,g,upper,,,,,,,3,w,LoDemNoTar,None,g,1,0.7714065562468022,None,,,,,,,,,,,,,,,,,,,301,2023-11-09_16h34.04.648,leap3,2022.2.5,60.06600144450393,
,,,,,,,,,,,,,,,,,,,,4,0,4,0,10,0,10,0,,,,,,numbled,nw,h,upper,,,,,,,3,nw,LoDemNoTar,None,h,1,1.7314747828058898,None,,,,,,,,,,,,,,,,,,,301,2023-11-09_16h34.04.648,leap3,2022.2.5,60.06600144450393,
,,,,,,,,,,,,,,,,,,,,4,0,4,0,11,0,11,0,,,,,,presently,w,g,upper,,,,,,,3,w,LoDemNoTar,None,g,1,0.7334853592328727,None,,,,,,,,,,,,,,,,,,,301,2023-11-09_16h34.04.648,leap3,2022.2.5,60.06600144450393,
,,,,,,,,,,,,,,,,,,,,4,0,4,0,12,0,12,0,,,,,,stooping,w,g,upper,,,,,,,3,w,LoDemNoTar,None,h,0,4.118752896785736,None,,,,,,,,,,,,,,,,,,,301,2023-11-09_16h34.04.648,leap3,2022.2.5,60.06600144450393,
,,,,,,,,,,,,,,,,,,,,4,0,4,0,13,0,13,0,,,,,,intended,w,g,upper,,,,,,,3,w,LoDemNoTar,None,g,1,0.9847878634463996,None,,,,,,,,,,,,,,,,,,,301,2023-11-09_16h34.04.648,leap3,2022.2.5,60.06600144450393,
,,,,,,,,,,,,,,,,,,,,4,0,4,0,14,0,14,0,,,,,,mosary,nw,h,upper,,,,,,,3,nw,LoDemNoTar,None,h,1,0.7281624467577785,None,,,,,,,,,,,,,,,,,,,301,2023-11-09_16h34.04.648,leap3,2022.2.5,60.06600144450393,
,,,,,,,,,,,,,,,,,,,,4,0,4,0,15,0,15,0,,,,,,coster,nw,h,upper,,,,,,,3,nw,LoDemNoTar,None,h,1,0.8182175930123776,None,,,,,,,,,,,,,,,,,,,301,2023-11-09_16h34.04.648,leap3,2022.2.5,60.06600144450393,
,,,,,,,,,,,,,,,,,,,,4,0,4,0,16,0,16,0,,,,,,serving,w,g,upper,,,,,,,3,w,LoDemNoTar,None,g,1,1.16023737937212,None,,,,,,,,,,,,,,,,,,,301,2023-11-09_16h34.04.648,leap3,2022.2.5,60.06600144450393,
,,,,,,,,,,,,,,,,,,,,4,0,4,0,17,0,17,0,,,,,,computer,w,g,upper,,,,,,,3,w,LoDemNoTar,None,g,1,0.9530036749783903,None,,,,,,,,,,,,,,,,,,,301,2023-11-09_16h34.04.648,leap3,2022.2.5,60.06600144450393,
,,,,,,,,,,,,,,,,,,,,4,0,4,0,18,0,18,0,,,,,,mandate,w,g,upper,,,,,,,3,w,LoDemNoTar,None,g,1,0.7616277991328388,None,,,,,,,,,,,,,,,,,,,301,2023-11-09_16h34.04.648,leap3,2022.2.5,60.06600144450393,
,,,,,,,,,,,,,,,,,,,,4,0,4,0,19,0,19,0,,,,,,facienda,nw,h,upper,,,,,,,3,nw,LoDemNoTar,None,h,1,1.105411516269669,None,,,,,,,,,,,,,,,,,,,301,2023-11-09_16h34.04.648,leap3,2022.2.5,60.06600144450393,
,,,,,,,,,,,,,,,,,,,,4,0,4,0,20,0,20,0,,,,,,paying,w,g,upper,,,,,,,3,w,LoDemNoTar,None,g,1,1.2761006045620888,None,,,,,,,,,,,,,,,,,,,301,2023-11-09_16h34.04.648,leap3,2022.2.5,60.06600144450393,
,,,,,,,,,,,,,,,,,,,,4,0,4,0,21,0,21,0,,,,,,etuip,nw,h,upper,,,,,,,3,nw,LoDemNoTar,None,h,1,1.4643922504037619,None,,,,,,,,,,,,,,,,,,,301,2023-11-09_16h34.04.648,leap3,2022.2.5,60.06600144450393,
,,,,,,,,,,,,,,,,,,,,4,0,4,0,22,0,22,0,,,,,,causality,w,g,upper,,,,,,,3,w,LoDemNoTar,None,g,1,0.948825596133247,None,,,,,,,,,,,,,,,,,,,301,2023-11-09_16h34.04.648,leap3,2022.2.5,60.06600144450393,
,,,,,,,,,,,,,,,,,,,,4,0,4,0,23,0,23,0,,,,,,bengths,nw,h,upper,,,,,,,3,nw,LoDemNoTar,None,h,1,0.9742261304054409,None,,,,,,,,,,,,,,,,,,,301,2023-11-09_16h34.04.648,leap3,2022.2.5,60.06600144450393,
,,,,,,,,,,,,,,,,,,,,4,0,4,0,24,0,24,0,,,,,,eggays,nw,h,upper,,,,,,,3,nw,LoDemNoTar,None,h,1,0.8625171470921487,None,,,,,,,,,,,,,,,,,,,301,2023-11-09_16h34.04.648,leap3,2022.2.5,60.06600144450393,
,,,,,,,,,,,,,,,,,,,,4,0,4,0,25,0,25,0,,,,,,mining,w,g,upper,,,,,,,3,w,LoDemNoTar,None,g,1,0.7944925939664245,None,,,,,,,,,,,,,,,,,,,301,2023-11-09_16h34.04.648,leap3,2022.2.5,60.06600144450393,
,,,,,,,,,,,,,,,,,,,,4,0,4,0,26,0,26,0,,,,,,infancy,w,g,upper,,,,,,,3,w,LoDemNoTar,None,g,1,0.8983373865485191,None,,,,,,,,,,,,,,,,,,,301,2023-11-09_16h34.04.648,leap3,2022.2.5,60.06600144450393,
,,,,,,,,,,,,,,,,,,,,4,0,4,0,27,0,27,0,,,,,,poyride,nw,h,upper,,,,,,,3,nw,LoDemNoTar,None,g,0,0.6925994474440813,None,,,,,,,,,,,,,,,,,,,301,2023-11-09_16h34.04.648,leap3,2022.2.5,60.06600144450393,
,,,,,,,,,,,,,,,,,,,,4,0,4,0,28,0,28,0,,,,,,overcoat,w,g,upper,,,,,,,3,w,LoDemNoTar,None,g,1,1.0400401423685253,None,,,,,,,,,,,,,,,,,,,301,2023-11-09_16h34.04.648,leap3,2022.2.5,60.06600144450393,
,,,,,,,,,,,,,,,,,,,,4,0,4,0,29,0,29,0,,,,,,deficit,w,g,upper,,,,,,,3,w,LoDemNoTar,None,g,1,0.7971136597916484,None,,,,,,,,,,,,,,,,,,,301,2023-11-09_16h34.04.648,leap3,2022.2.5,60.06600144450393,
,,,,,,,,,,,,,,,,,,,,4,0,4,0,,,,,,,,,,,,,,,,,,,,,,,,,,,,,,,,,,,,,,,,,,,,,,301,2023-11-09_16h34.04.648,leap3,2022.2.5,60.06600144450393,
,,,,,,,,,,,,,,,,,,,,5,0,5,0,0,0,0,0,,,,,,unwose,nw,h,lower,,,,,,,1,nw,HiDemTar,None,h,1,2.0530100644100457,None,,,,,,,,,,,,,,,,,,,301,2023-11-09_16h34.04.648,leap3,2022.2.5,60.06600144450393,
,,,,,,,,,,,,,,,,,,,,5,0,5,0,1,0,1,0,,,,,,gremieres,nw,h,lower,,,,,,,1,nw,HiDemTar,None,h,1,0.6256978767924011,None,,,,,,,,,,,,,,,,,,,301,2023-11-09_16h34.04.648,leap3,2022.2.5,60.06600144450393,
,,,,,,,,,,,,,,,,,,,,5,0,5,0,2,0,2,0,,,,,,pester,w,g,lower,,,,,,,1,w,HiDemTar,None,h,0,0.5746246702037752,None,,,,,,,,,,,,,,,,,,,301,2023-11-09_16h34.04.648,leap3,2022.2.5,60.06600144450393,
,,,,,,,,,,,,,,,,,,,,5,0,5,0,3,0,3,0,,,,,,caloric,w,g,lower,,,,,,,1,w,HiDemTar,None,g,1,0.6146534467115998,None,,,,,,,,,,,,,,,,,,,301,2023-11-09_16h34.04.648,leap3,2022.2.5,60.06600144450393,
,,,,,,,,,,,,,,,,,,,,5,0,5,0,4,0,4,0,,,,,,unstatle,nw,h,lower,,,,,,,1,nw,HiDemTar,None,h,1,1.005324014928192,None,,,,,,,,,,,,,,,,,,,301,2023-11-09_16h34.04.648,leap3,2022.2.5,60.06600144450393,
,,,,,,,,,,,,,,,,,,,,5,0,5,0,5,0,5,0,,,,,,ireology,nw,h,lower,,,,,,,1,nw,HiDemTar,None,h,1,0.8439919031225145,None,,,,,,,,,,,,,,,,,,,301,2023-11-09_16h34.04.648,leap3,2022.2.5,60.06600144450393,
,,,,,,,,,,,,,,,,,,,,5,0,5,0,6,0,6,0,,,,,,satisfies,w,g,lower,,,,,,,1,w,HiDemTar,None,g,1,0.8735870698001236,None,,,,,,,,,,,,,,,,,,,301,2023-11-09_16h34.04.648,leap3,2022.2.5,60.06600144450393,
,,,,,,,,,,,,,,,,,,,,5,0,5,0,7,0,7,0,,,,,,alarm,w,g,lower,,,,,,,1,w,HiDemTar,None,g,1,0.5494234387297183,None,,,,,,,,,,,,,,,,,,,301,2023-11-09_16h34.04.648,leap3,2022.2.5,60.06600144450393,
,,,,,,,,,,,,,,,,,,,,5,0,5,0,8,0,8,0,,,,,,landing,w,g,lower,,,,,,,1,w,HiDemTar,None,g,1,0.5986651771236211,None,,,,,,,,,,,,,,,,,,,301,2023-11-09_16h34.04.648,leap3,2022.2.5,60.06600144450393,
,,,,,,,,,,,,,,,,,,,,5,0,5,0,9,0,9,0,,,,,,inducing,w,g,lower,,,,,,,1,w,HiDemTar,None,g,1,0.5740062352269888,None,,,,,,,,,,,,,,,,,,,301,2023-11-09_16h34.04.648,leap3,2022.2.5,60.06600144450393,
,,,,,,,,,,,,,,,,,,,,5,0,5,0,10,0,10,0,,,,,,lignpost,nw,h,lower,,,,,,,1,nw,HiDemTar,None,h,1,0.7420044022146612,None,,,,,,,,,,,,,,,,,,,301,2023-11-09_16h34.04.648,leap3,2022.2.5,60.06600144450393,
,,,,,,,,,,,,,,,,,,,,5,0,5,0,11,0,11,0,,,,,,iflaid,nw,h,lower,,,,,,,1,nw,HiDemTar,None,h,1,0.5423591085709631,None,,,,,,,,,,,,,,,,,,,301,2023-11-09_16h34.04.648,leap3,2022.2.5,60.06600144450393,
,,,,,,,,,,,,,,,,,,,,5,0,5,0,12,0,12,0,,,,,,oginous,nw,h,lower,,,,,,,1,nw,HiDemTar,None,h,1,0.8397601912729442,None,,,,,,,,,,,,,,,,,,,301,2023-11-09_16h34.04.648,leap3,2022.2.5,60.06600144450393,
,,,,,,,,,,,,,,,,,,,,5,0,5,0,13,0,13,0,,,,,,elbalm,nw,h,lower,,,,,,,1,nw,HiDemTar,None,h,1,0.5891271063592285,None,,,,,,,,,,,,,,,,,,,301,2023-11-09_16h34.04.648,leap3,2022.2.5,60.06600144450393,
,,,,,,,,,,,,,,,,,,,,5,0,5,0,14,0,14,0,,,,,,sequence,w,g,lower,,,,,,,1,w,HiDemTar,None,g,1,0.860431749606505,None,,,,,,,,,,,,,,,,,,,301,2023-11-09_16h34.04.648,leap3,2022.2.5,60.06600144450393,
,,,,,,,,,,,,,,,,,,,,5,0,5,0,15,0,15,0,,,,,,airmen,w,g,lower,,,,,,,1,w,HiDemTar,None,g,1,1.001179374055937,None,,,,,,,,,,,,,,,,,,,301,2023-11-09_16h34.04.648,leap3,2022.2.5,60.06600144450393,
,,,,,,,,,,,,,,,,,,,,5,0,5,0,16,0,16,0,,,,,,previous,w,g,lower,,,,,,,1,w,HiDemTar,None,g,1,0.6160111567005515,None,,,,,,,,,,,,,,,,,,,301,2023-11-09_16h34.04.648,leap3,2022.2.5,60.06600144450393,
,,,,,,,,,,,,,,,,,,,,5,0,5,0,17,0,17,0,,,,,,ufionize,nw,h,lower,,,,,,,1,nw,HiDemTar,None,h,1,1.4705987833440304,None,,,,,,,,,,,,,,,,,,,301,2023-11-09_16h34.04.648,leap3,2022.2.5,60.06600144450393,
,,,,,,,,,,,,,,,,,,,,5,0,5,0,18,0,18,0,,,,,,regiment,w,g,lower,,,,,,,1,w,HiDemTar,None,g,1,2.5696503727231175,None,,,,,,,,,,,,,,,,,,,301,2023-11-09_16h34.04.648,leap3,2022.2.5,60.06600144450393,
,,,,,,,,,,,,,,,,,,,,5,0,5,0,19,0,19,0,,,,,,porcupine,target,q,lower,,,,,,,1,target,HiDemTar,None,g,0,0.7457001151051372,None,,,,,,,,,,,,,,,,,,,301,2023-11-09_16h34.04.648,leap3,2022.2.5,60.06600144450393,
,,,,,,,,,,,,,,,,,,,,5,0,5,0,20,0,20,0,,,,,,aefated,nw,h,lower,,,,,,,1,aftertar1,HiDemTar,None,h,1,1.0671854054089636,None,,,,,,,,,,,,,,,,,,,301,2023-11-09_16h34.04.648,leap3,2022.2.5,60.06600144450393,
,,,,,,,,,,,,,,,,,,,,5,0,5,0,21,0,21,0,,,,,,mystery,w,g,lower,,,,,,,1,aftertar2,HiDemTar,None,q,0,1.5198911749757826,None,q,1,,,,,,,,,,,,,,,,,301,2023-11-09_16h34.04.648,leap3,2022.2.5,60.06600144450393,
,,,,,,,,,,,,,,,,,,,,5,0,5,0,22,0,22,0,,,,,,duries,nw,h,lower,,,,,,,1,aftertar3,HiDemTar,None,h,1,1.442007414996624,None,,,,,,,,,,,,,,,,,,,301,2023-11-09_16h34.04.648,leap3,2022.2.5,60.06600144450393,
,,,,,,,,,,,,,,,,,,,,5,0,5,0,23,0,23,0,,,,,,collute,nw,h,lower,,,,,,,1,nw,HiDemTar,None,h,1,0.7113388925790787,None,,,,,,,,,,,,,,,,,,,301,2023-11-09_16h34.04.648,leap3,2022.2.5,60.06600144450393,
,,,,,,,,,,,,,,,,,,,,5,0,5,0,24,0,24,0,,,,,,hivinity,nw,h,lower,,,,,,,1,nw,HiDemTar,None,h,1,0.738023639889434,None,,,,,,,,,,,,,,,,,,,301,2023-11-09_16h34.04.648,leap3,2022.2.5,60.06600144450393,
,,,,,,,,,,,,,,,,,,,,5,0,5,0,25,0,25,0,,,,,,elpousal,nw,h,lower,,,,,,,1,nw,HiDemTar,None,h,1,0.7074210331775248,None,,,,,,,,,,,,,,,,,,,301,2023-11-09_16h34.04.648,leap3,2022.2.5,60.06600144450393,
,,,,,,,,,,,,,,,,,,,,5,0,5,0,26,0,26,0,,,,,,apology,w,g,lower,,,,,,,1,nw,HiDemTar,None,g,1,0.8931071734987199,None,,,,,,,,,,,,,,,,,,,301,2023-11-09_16h34.04.648,leap3,2022.2.5,60.06600144450393,
,,,,,,,,,,,,,,,,,,,,5,0,5,0,27,0,27,0,,,,,,equitable,w,g,lower,,,,,,,1,w,HiDemTar,None,g,1,0.7764914305880666,None,,,,,,,,,,,,,,,,,,,301,2023-11-09_16h34.04.648,leap3,2022.2.5,60.06600144450393,
,,,,,,,,,,,,,,,,,,,,5,0,5,0,28,0,28,0,,,,,,arcients,nw,h,lower,,,,,,,1,w,HiDemTar,None,h,1,5.040734061039984,None,,,,,,,,,,,,,,,,,,,301,2023-11-09_16h34.04.648,leap3,2022.2.5,60.06600144450393,
,,,,,,,,,,,,,,,,,,,,5,0,5,0,29,0,29,0,,,,,,vinegar,w,g,lower,,,,,,,1,nw,HiDemTar,None,g,1,0.846073989989236,None,,,,,,,,,,,,,,,,,,,301,2023-11-09_16h34.04.648,leap3,2022.2.5,60.06600144450393,
,,,,,,,,,,,,,,,,,,,,5,0,5,0,,,,,,,,,,,,,,,,,,,,,,,,,,,,,,,,,,,,,,,,,,,,,,301,2023-11-09_16h34.04.648,leap3,2022.2.5,60.06600144450393,
,,,,,,,,,,,,,,,,,,,,6,0,6,0,0,0,0,0,,,,,,legalize,w,g,upper,,,,,,,3,w,LoDemNoTar,None,g,1,1.1465308309998363,None,,,,,,,,,,,,,,,,,,,301,2023-11-09_16h34.04.648,leap3,2022.2.5,60.06600144450393,
,,,,,,,,,,,,,,,,,,,,6,0,6,0,1,0,1,0,,,,,,welayed,nw,h,upper,,,,,,,3,nw,LoDemNoTar,None,h,1,0.9798509767279029,None,,,,,,,,,,,,,,,,,,,301,2023-11-09_16h34.04.648,leap3,2022.2.5,60.06600144450393,
,,,,,,,,,,,,,,,,,,,,6,0,6,0,2,0,2,0,,,,,,shurk,nw,h,upper,,,,,,,3,nw,LoDemNoTar,None,h,1,0.739890863886103,None,,,,,,,,,,,,,,,,,,,301,2023-11-09_16h34.04.648,leap3,2022.2.5,60.06600144450393,
,,,,,,,,,,,,,,,,,,,,6,0,6,0,3,0,3,0,,,,,,admire,w,g,upper,,,,,,,3,w,LoDemNoTar,None,g,1,0.7494252927135676,None,,,,,,,,,,,,,,,,,,,301,2023-11-09_16h34.04.648,leap3,2022.2.5,60.06600144450393,
,,,,,,,,,,,,,,,,,,,,6,0,6,0,4,0,4,0,,,,,,clooped,nw,h,upper,,,,,,,3,nw,LoDemNoTar,None,h,1,1.8706766506657004,None,,,,,,,,,,,,,,,,,,,301,2023-11-09_16h34.04.648,leap3,2022.2.5,60.06600144450393,
,,,,,,,,,,,,,,,,,,,,6,0,6,0,5,0,5,0,,,,,,epthuse,nw,h,upper,,,,,,,3,nw,LoDemNoTar,None,h,1,0.7226938647218049,None,,,,,,,,,,,,,,,,,,,301,2023-11-09_16h34.04.648,leap3,2022.2.5,60.06600144450393,
,,,,,,,,,,,,,,,,,,,,6,0,6,0,6,0,6,0,,,,,,reborn,w,g,upper,,,,,,,3,w,LoDemNoTar,None,g,1,0.8518944976385683,None,,,,,,,,,,,,,,,,,,,301,2023-11-09_16h34.04.648,leap3,2022.2.5,60.06600144450393,
,,,,,,,,,,,,,,,,,,,,6,0,6,0,7,0,7,0,,,,,,forecast,w,g,upper,,,,,,,3,w,LoDemNoTar,None,g,1,0.7516878116875887,None,,,,,,,,,,,,,,,,,,,301,2023-11-09_16h34.04.648,leap3,2022.2.5,60.06600144450393,
,,,,,,,,,,,,,,,,,,,,6,0,6,0,8,0,8,0,,,,,,cassette,w,g,upper,,,,,,,3,w,LoDemNoTar,None,g,1,0.8898342347238213,None,,,,,,,,,,,,,,,,,,,301,2023-11-09_16h34.04.648,leap3,2022.2.5,60.06600144450393,
,,,,,,,,,,,,,,,,,,,,6,0,6,0,9,0,9,0,,,,,,listless,w,g,upper,,,,,,,3,w,LoDemNoTar,None,g,1,0.8532293641474098,None,,,,,,,,,,,,,,,,,,,301,2023-11-09_16h34.04.648,leap3,2022.2.5,60.06600144450393,
,,,,,,,,,,,,,,,,,,,,6,0,6,0,10,0,10,0,,,,,,baults,nw,h,upper,,,,,,,3,nw,LoDemNoTar,None,h,1,0.9060224692802876,None,,,,,,,,,,,,,,,,,,,301,2023-11-09_16h34.04.648,leap3,2022.2.5,60.06600144450393,
,,,,,,,,,,,,,,,,,,,,6,0,6,0,11,0,11,0,,,,,,entropy,w,g,upper,,,,,,,3,w,LoDemNoTar,None,g,1,0.7567316337954253,None,,,,,,,,,,,,,,,,,,,301,2023-11-09_16h34.04.648,leap3,2022.2.5,60.06600144450393,
,,,,,,,,,,,,,,,,,,,,6,0,6,0,12,0,12,0,,,,,,finish,w,g,upper,,,,,,,3,w,LoDemNoTar,None,g,1,0.6602845566812903,None,,,,,,,,,,,,,,,,,,,301,2023-11-09_16h34.04.648,leap3,2022.2.5,60.06600144450393,
,,,,,,,,,,,,,,,,,,,,6,0,6,0,13,0,13,0,,,,,,series,w,g,upper,,,,,,,3,w,LoDemNoTar,None,g,1,0.44932103948667645,None,,,,,,,,,,,,,,,,,,,301,2023-11-09_16h34.04.648,leap3,2022.2.5,60.06600144450393,
,,,,,,,,,,,,,,,,,,,,6,0,6,0,14,0,14,0,,,,,,unbridled,w,g,upper,,,,,,,3,w,LoDemNoTar,None,g,1,0.7421818545553833,None,,,,,,,,,,,,,,,,,,,301,2023-11-09_16h34.04.648,leap3,2022.2.5,60.06600144450393,
,,,,,,,,,,,,,,,,,,,,6,0,6,0,15,0,15,0,,,,,,buttress,w,g,upper,,,,,,,3,w,LoDemNoTar,None,g,1,1.2950459739658982,None,,,,,,,,,,,,,,,,,,,301,2023-11-09_16h34.04.648,leap3,2022.2.5,60.06600144450393,
,,,,,,,,,,,,,,,,,,,,6,0,6,0,16,0,16,0,,,,,,arrive,w,g,upper,,,,,,,3,w,LoDemNoTar,None,g,1,0.7143393624573946,None,,,,,,,,,,,,,,,,,,,301,2023-11-09_16h34.04.648,leap3,2022.2.5,60.06600144450393,
,,,,,,,,,,,,,,,,,,,,6,0,6,0,17,0,17,0,,,,,,ringlat,nw,h,upper,,,,,,,3,nw,LoDemNoTar,None,h,1,0.7970729381777346,None,,,,,,,,,,,,,,,,,,,301,2023-11-09_16h34.04.648,leap3,2022.2.5,60.06600144450393,
,,,,,,,,,,,,,,,,,,,,6,0,6,0,18,0,18,0,,,,,,sweeping,w,g,upper,,,,,,,3,w,LoDemNoTar,None,g,1,0.8284644801169634,None,,,,,,,,,,,,,,,,,,,301,2023-11-09_16h34.04.648,leap3,2022.2.5,60.06600144450393,
,,,,,,,,,,,,,,,,,,,,6,0,6,0,19,0,19,0,,,,,,ottans,nw,h,upper,,,,,,,3,nw,LoDemNoTar,None,h,1,0.7465228189248592,None,,,,,,,,,,,,,,,,,,,301,2023-11-09_16h34.04.648,leap3,2022.2.5,60.06600144450393,
,,,,,,,,,,,,,,,,,,,,6,0,6,0,20,0,20,0,,,,,,befriend,w,g,upper,,,,,,,3,w,LoDemNoTar,None,g,1,0.6998965183738619,None,,,,,,,,,,,,,,,,,,,301,2023-11-09_16h34.04.648,leap3,2022.2.5,60.06600144450393,
,,,,,,,,,,,,,,,,,,,,6,0,6,0,21,0,21,0,,,,,,pleamed,nw,h,upper,,,,,,,3,nw,LoDemNoTar,None,h,1,1.1192720115650445,None,,,,,,,,,,,,,,,,,,,301,2023-11-09_16h34.04.648,leap3,2022.2.5,60.06600144450393,
,,,,,,,,,,,,,,,,,,,,6,0,6,0,22,0,22,0,,,,,,trises,nw,h,upper,,,,,,,3,nw,LoDemNoTar,None,h,1,0.9133162298239768,None,,,,,,,,,,,,,,,,,,,301,2023-11-09_16h34.04.648,leap3,2022.2.5,60.06600144450393,
,,,,,,,,,,,,,,,,,,,,6,0,6,0,23,0,23,0,,,,,,agony,w,g,upper,,,,,,,3,w,LoDemNoTar,None,h,0,0.46709773875772953,None,,,,,,,,,,,,,,,,,,,301,2023-11-09_16h34.04.648,leap3,2022.2.5,60.06600144450393,
,,,,,,,,,,,,,,,,,,,,6,0,6,0,24,0,24,0,,,,,,fravity,nw,h,upper,,,,,,,3,nw,LoDemNoTar,None,h,1,1.0709999715909362,None,,,,,,,,,,,,,,,,,,,301,2023-11-09_16h34.04.648,leap3,2022.2.5,60.06600144450393,
,,,,,,,,,,,,,,,,,,,,6,0,6,0,25,0,25,0,,,,,,miurnal,nw,h,upper,,,,,,,3,nw,LoDemNoTar,None,h,1,0.6991492977831513,None,,,,,,,,,,,,,,,,,,,301,2023-11-09_16h34.04.648,leap3,2022.2.5,60.06600144450393,
,,,,,,,,,,,,,,,,,,,,6,0,6,0,26,0,26,0,,,,,,rarren,nw,h,upper,,,,,,,3,nw,LoDemNoTar,None,h,1,0.6942203566431999,None,,,,,,,,,,,,,,,,,,,301,2023-11-09_16h34.04.648,leap3,2022.2.5,60.06600144450393,
,,,,,,,,,,,,,,,,,,,,6,0,6,0,27,0,27,0,,,,,,podes,nw,h,upper,,,,,,,3,nw,LoDemNoTar,None,h,1,0.665882917586714,None,,,,,,,,,,,,,,,,,,,301,2023-11-09_16h34.04.648,leap3,2022.2.5,60.06600144450393,
,,,,,,,,,,,,,,,,,,,,6,0,6,0,28,0,28,0,,,,,,buaint,nw,h,upper,,,,,,,3,nw,LoDemNoTar,None,h,1,0.7257744527887553,None,,,,,,,,,,,,,,,,,,,301,2023-11-09_16h34.04.648,leap3,2022.2.5,60.06600144450393,
,,,,,,,,,,,,,,,,,,,,6,0,6,0,29,0,29,0,,,,,,harfing,nw,h,upper,,,,,,,3,nw,LoDemNoTar,None,h,1,1.0078050389420241,None,,,,,,,,,,,,,,,,,,,301,2023-11-09_16h34.04.648,leap3,2022.2.5,60.06600144450393,
,,,,,,,,,,,,,,,,,,,,6,0,6,0,,,,,,,,,,,,,,,,,,,,,,,,,,,,,,,,,,,,,,,,,,,,,,301,2023-11-09_16h34.04.648,leap3,2022.2.5,60.06600144450393,
,,,,,,,,,,,,,,,,,,,,7,0,7,0,0,0,0,0,,,,,,practice,w,g,upper,,,,,,,4,w,LoDemTar,None,g,1,1.1016618395224214,None,,,,,,,,,,,,,,,,,,,301,2023-11-09_16h34.04.648,leap3,2022.2.5,60.06600144450393,
,,,,,,,,,,,,,,,,,,,,7,0,7,0,1,0,1,0,,,,,,soluced,nw,h,upper,,,,,,,4,nw,LoDemTar,None,h,1,0.7043834838550538,None,,,,,,,,,,,,,,,,,,,301,2023-11-09_16h34.04.648,leap3,2022.2.5,60.06600144450393,
,,,,,,,,,,,,,,,,,,,,7,0,7,0,2,0,2,0,,,,,,summon,w,g,upper,,,,,,,4,w,LoDemTar,None,g,1,0.8351950938813388,None,,,,,,,,,,,,,,,,,,,301,2023-11-09_16h34.04.648,leap3,2022.2.5,60.06600144450393,
,,,,,,,,,,,,,,,,,,,,7,0,7,0,3,0,3,0,,,,,,audience,w,g,upper,,,,,,,4,w,LoDemTar,None,g,1,0.8325727037154138,None,,,,,,,,,,,,,,,,,,,301,2023-11-09_16h34.04.648,leap3,2022.2.5,60.06600144450393,
,,,,,,,,,,,,,,,,,,,,7,0,7,0,4,0,4,0,,,,,,cemoir,nw,h,upper,,,,,,,4,nw,LoDemTar,None,h,1,0.7585303264204413,None,,,,,,,,,,,,,,,,,,,301,2023-11-09_16h34.04.648,leap3,2022.2.5,60.06600144450393,
,,,,,,,,,,,,,,,,,,,,7,0,7,0,5,0,5,0,,,,,,binder,w,g,upper,,,,,,,4,w,LoDemTar,None,g,1,0.7274446913506836,None,,,,,,,,,,,,,,,,,,,301,2023-11-09_16h34.04.648,leap3,2022.2.5,60.06600144450393,
,,,,,,,,,,,,,,,,,,,,7,0,7,0,6,0,6,0,,,,,,fuintets,nw,h,upper,,,,,,,4,nw,LoDemTar,None,h,1,0.8493704348802567,None,,,,,,,,,,,,,,,,,,,301,2023-11-09_16h34.04.648,leap3,2022.2.5,60.06600144450393,
,,,,,,,,,,,,,,,,,,,,7,0,7,0,7,0,7,0,,,,,,fisco,nw,h,upper,,,,,,,4,nw,LoDemTar,None,h,1,1.4057157346978784,None,,,,,,,,,,,,,,,,,,,301,2023-11-09_16h34.04.648,leap3,2022.2.5,60.06600144450393,
,,,,,,,,,,,,,,,,,,,,7,0,7,0,8,0,8,0,,,,,,offonents,nw,h,upper,,,,,,,4,nw,LoDemTar,None,h,1,0.8044292705599219,None,,,,,,,,,,,,,,,,,,,301,2023-11-09_16h34.04.648,leap3,2022.2.5,60.06600144450393,
,,,,,,,,,,,,,,,,,,,,7,0,7,0,9,0,9,0,,,,,,cripet,nw,h,upper,,,,,,,4,nw,LoDemTar,None,h,1,0.8432152173481882,None,,,,,,,,,,,,,,,,,,,301,2023-11-09_16h34.04.648,leap3,2022.2.5,60.06600144450393,
,,,,,,,,,,,,,,,,,,,,7,0,7,0,10,0,10,0,,,,,,permute,w,g,upper,,,,,,,4,w,LoDemTar,None,h,0,0.6798695498146117,None,,,,,,,,,,,,,,,,,,,301,2023-11-09_16h34.04.648,leap3,2022.2.5,60.06600144450393,
,,,,,,,,,,,,,,,,,,,,7,0,7,0,11,0,11,0,,,,,,derisury,nw,h,upper,,,,,,,4,nw,LoDemTar,None,h,1,0.7953268853016198,None,,,,,,,,,,,,,,,,,,,301,2023-11-09_16h34.04.648,leap3,2022.2.5,60.06600144450393,
,,,,,,,,,,,,,,,,,,,,7,0,7,0,12,0,12,0,,,,,,tinker,w,g,upper,,,,,,,4,w,LoDemTar,None,g,1,0.9072520560584962,None,,,,,,,,,,,,,,,,,,,301,2023-11-09_16h34.04.648,leap3,2022.2.5,60.06600144450393,
,,,,,,,,,,,,,,,,,,,,7,0,7,0,13,0,13,0,,,,,,become,w,g,upper,,,,,,,4,w,LoDemTar,None,g,1,0.7100440852809697,None,,,,,,,,,,,,,,,,,,,301,2023-11-09_16h34.04.648,leap3,2022.2.5,60.06600144450393,
,,,,,,,,,,,,,,,,,,,,7,0,7,0,14,0,14,0,,,,,,ausht,nw,h,upper,,,,,,,4,nw,LoDemTar,None,h,1,0.7439977631438524,None,,,,,,,,,,,,,,,,,,,301,2023-11-09_16h34.04.648,leap3,2022.2.5,60.06600144450393,
,,,,,,,,,,,,,,,,,,,,7,0,7,0,15,0,15,0,,,,,,doxing,nw,h,upper,,,,,,,4,nw,LoDemTar,None,g,0,2.287748572183773,None,,,,,,,,,,,,,,,,,,,301,2023-11-09_16h34.04.648,leap3,2022.2.5,60.06600144450393,
,,,,,,,,,,,,,,,,,,,,7,0,7,0,16,0,16,0,,,,,,ifkling,nw,h,upper,,,,,,,4,nw,LoDemTar,None,h,1,0.8183986870571971,None,,,,,,,,,,,,,,,,,,,301,2023-11-09_16h34.04.648,leap3,2022.2.5,60.06600144450393,
,,,,,,,,,,,,,,,,,,,,7,0,7,0,17,0,17,0,,,,,,populace,w,g,upper,,,,,,,4,w,LoDemTar,None,h,0,2.8005094246473163,None,,,,,,,,,,,,,,,,,,,301,2023-11-09_16h34.04.648,leap3,2022.2.5,60.06600144450393,
,,,,,,,,,,,,,,,,,,,,7,0,7,0,18,0,18,0,,,,,,tenpince,nw,h,upper,,,,,,,4,nw,LoDemTar,None,h,1,0.9271797044202685,None,,,,,,,,,,,,,,,,,,,301,2023-11-09_16h34.04.648,leap3,2022.2.5,60.06600144450393,
,,,,,,,,,,,,,,,,,,,,7,0,7,0,19,0,19,0,,,,,,kangaroo,target,q,upper,,,,,,,4,target,LoDemTar,None,q,1,1.2566940574906766,None,q,1,,,,,,,,,,,,,,,,,301,2023-11-09_16h34.04.648,leap3,2022.2.5,60.06600144450393,
,,,,,,,,,,,,,,,,,,,,7,0,7,0,20,0,20,0,,,,,,brighten,w,g,upper,,,,,,,4,aftertar1,LoDemTar,None,g,1,1.077055206289515,None,,,,,,,,,,,,,,,,,,,301,2023-11-09_16h34.04.648,leap3,2022.2.5,60.06600144450393,
,,,,,,,,,,,,,,,,,,,,7,0,7,0,21,0,21,0,,,,,,mineluyer,nw,h,upper,,,,,,,4,aftertar2,LoDemTar,None,h,1,0.799869139213115,None,,,,,,,,,,,,,,,,,,,301,2023-11-09_16h34.04.648,leap3,2022.2.5,60.06600144450393,
,,,,,,,,,,,,,,,,,,,,7,0,7,0,22,0,22,0,,,,,,staircase,w,g,upper,,,,,,,4,aftertar3,LoDemTar,None,g,1,0.7264392375946045,None,,,,,,,,,,,,,,,,,,,301,2023-11-09_16h34.04.648,leap3,2022.2.5,60.06600144450393,
,,,,,,,,,,,,,,,,,,,,7,0,7,0,23,0,23,0,,,,,,metebing,nw,h,upper,,,,,,,4,w,LoDemTar,None,h,1,0.84787632455118,None,,,,,,,,,,,,,,,,,,,301,2023-11-09_16h34.04.648,leap3,2022.2.5,60.06600144450393,
,,,,,,,,,,,,,,,,,,,,7,0,7,0,24,0,24,0,,,,,,obtuse,w,g,upper,,,,,,,4,nw,LoDemTar,None,g,1,1.0526336403563619,None,,,,,,,,,,,,,,,,,,,301,2023-11-09_16h34.04.648,leap3,2022.2.5,60.06600144450393,
,,,,,,,,,,,,,,,,,,,,7,0,7,0,25,0,25,0,,,,,,stranded,w,g,upper,,,,,,,4,w,LoDemTar,None,g,1,0.7292784773744643,None,,,,,,,,,,,,,,,,,,,301,2023-11-09_16h34.04.648,leap3,2022.2.5,60.06600144450393,
,,,,,,,,,,,,,,,,,,,,7,0,7,0,26,0,26,0,,,,,,incidonts,nw,h,upper,,,,,,,4,w,LoDemTar,None,h,1,0.6986258791293949,None,,,,,,,,,,,,,,,,,,,301,2023-11-09_16h34.04.648,leap3,2022.2.5,60.06600144450393,
,,,,,,,,,,,,,,,,,,,,7,0,7,0,27,0,27,0,,,,,,amplifier,w,g,upper,,,,,,,4,nw,LoDemTar,None,g,1,0.8293411484919488,None,,,,,,,,,,,,,,,,,,,301,2023-11-09_16h34.04.648,leap3,2022.2.5,60.06600144450393,
,,,,,,,,,,,,,,,,,,,,7,0,7,0,28,0,28,0,,,,,,number,w,g,upper,,,,,,,4,w,LoDemTar,None,g,1,0.7787145525217056,None,,,,,,,,,,,,,,,,,,,301,2023-11-09_16h34.04.648,leap3,2022.2.5,60.06600144450393,
,,,,,,,,,,,,,,,,,,,,7,0,7,0,29,0,29,0,,,,,,compose,w,g,upper,,,,,,,4,w,LoDemTar,None,g,1,0.6020980216562748,None,,,,,,,,,,,,,,,,,,,301,2023-11-09_16h34.04.648,leap3,2022.2.5,60.06600144450393,
,,,,,,,,,,,,,,,,,,,,7,0,7,0,,,,,,,,,,,,,,,,,,,,,,,,,,,,,,,,,,,,,,,,,,,,,,301,2023-11-09_16h34.04.648,leap3,2022.2.5,60.06600144450393,
,,,,,,,,,,,,,,,,,,,,8,0,8,0,0,0,0,0,,,,,,drine,nw,h,upper,,,,,,,3,nw,LoDemNoTar,None,h,1,0.823953015729785,None,,,,,,,,,,,,,,,,,,,301,2023-11-09_16h34.04.648,leap3,2022.2.5,60.06600144450393,
,,,,,,,,,,,,,,,,,,,,8,0,8,0,1,0,1,0,,,,,,ilcurring,nw,h,upper,,,,,,,3,nw,LoDemNoTar,None,h,1,0.6133096413686872,None,,,,,,,,,,,,,,,,,,,301,2023-11-09_16h34.04.648,leap3,2022.2.5,60.06600144450393,
,,,,,,,,,,,,,,,,,,,,8,0,8,0,2,0,2,0,,,,,,unrealon,nw,h,upper,,,,,,,3,nw,LoDemNoTar,None,g,0,1.0273582495283335,None,,,,,,,,,,,,,,,,,,,301,2023-11-09_16h34.04.648,leap3,2022.2.5,60.06600144450393,
,,,,,,,,,,,,,,,,,,,,8,0,8,0,3,0,3,0,,,,,,describe,w,g,upper,,,,,,,3,w,LoDemNoTar,None,g,1,0.816950595472008,None,,,,,,,,,,,,,,,,,,,301,2023-11-09_16h34.04.648,leap3,2022.2.5,60.06600144450393,
,,,,,,,,,,,,,,,,,,,,8,0,8,0,4,0,4,0,,,,,,sonkers,nw,h,upper,,,,,,,3,nw,LoDemNoTar,None,h,1,0.7107870022300631,None,,,,,,,,,,,,,,,,,,,301,2023-11-09_16h34.04.648,leap3,2022.2.5,60.06600144450393,
,,,,,,,,,,,,,,,,,,,,8,0,8,0,5,0,5,0,,,,,,dileting,nw,h,upper,,,,,,,3,nw,LoDemNoTar,None,h,1,0.759780770400539,None,,,,,,,,,,,,,,,,,,,301,2023-11-09_16h34.04.648,leap3,2022.2.5,60.06600144450393,
,,,,,,,,,,,,,,,,,,,,8,0,8,0,6,0,6,0,,,,,,earmaff,nw,h,upper,,,,,,,3,nw,LoDemNoTar,None,h,1,1.447863346664235,None,,,,,,,,,,,,,,,,,,,301,2023-11-09_16h34.04.648,leap3,2022.2.5,60.06600144450393,
,,,,,,,,,,,,,,,,,,,,8,0,8,0,7,0,7,0,,,,,,rational,w,g,upper,,,,,,,3,w,LoDemNoTar,None,g,1,0.8452552587259561,None,,,,,,,,,,,,,,,,,,,301,2023-11-09_16h34.04.648,leap3,2022.2.5,60.06600144450393,
,,,,,,,,,,,,,,,,,,,,8,0,8,0,8,0,8,0,,,,,,surdens,nw,h,upper,,,,,,,3,nw,LoDemNoTar,None,h,1,0.8979116331320256,None,,,,,,,,,,,,,,,,,,,301,2023-11-09_16h34.04.648,leap3,2022.2.5,60.06600144450393,
,,,,,,,,,,,,,,,,,,,,8,0,8,0,9,0,9,0,,,,,,uncorked,w,g,upper,,,,,,,3,w,LoDemNoTar,None,g,1,1.1565674901939929,None,,,,,,,,,,,,,,,,,,,301,2023-11-09_16h34.04.648,leap3,2022.2.5,60.06600144450393,
,,,,,,,,,,,,,,,,,,,,8,0,8,0,10,0,10,0,,,,,,drauns,nw,h,upper,,,,,,,3,nw,LoDemNoTar,None,h,1,0.6925176735967398,None,,,,,,,,,,,,,,,,,,,301,2023-11-09_16h34.04.648,leap3,2022.2.5,60.06600144450393,
,,,,,,,,,,,,,,,,,,,,8,0,8,0,11,0,11,0,,,,,,maiden,w,g,upper,,,,,,,3,w,LoDemNoTar,None,g,1,0.7353502654004842,None,,,,,,,,,,,,,,,,,,,301,2023-11-09_16h34.04.648,leap3,2022.2.5,60.06600144450393,
,,,,,,,,,,,,,,,,,,,,8,0,8,0,12,0,12,0,,,,,,undertake,w,g,upper,,,,,,,3,w,LoDemNoTar,None,g,1,1.0881529385223985,None,,,,,,,,,,,,,,,,,,,301,2023-11-09_16h34.04.648,leap3,2022.2.5,60.06600144450393,
,,,,,,,,,,,,,,,,,,,,8,0,8,0,13,0,13,0,,,,,,rebool,nw,h,upper,,,,,,,3,nw,LoDemNoTar,None,h,1,0.7465671822428703,None,,,,,,,,,,,,,,,,,,,301,2023-11-09_16h34.04.648,leap3,2022.2.5,60.06600144450393,
,,,,,,,,,,,,,,,,,,,,8,0,8,0,14,0,14,0,,,,,,failure,w,g,upper,,,,,,,3,w,LoDemNoTar,None,g,1,0.7312231711111963,None,,,,,,,,,,,,,,,,,,,301,2023-11-09_16h34.04.648,leap3,2022.2.5,60.06600144450393,
,,,,,,,,,,,,,,,,,,,,8,0,8,0,15,0,15,0,,,,,,mortgage,w,g,upper,,,,,,,3,w,LoDemNoTar,None,g,1,0.8926582450512797,None,,,,,,,,,,,,,,,,,,,301,2023-11-09_16h34.04.648,leap3,2022.2.5,60.06600144450393,
,,,,,,,,,,,,,,,,,,,,8,0,8,0,16,0,16,0,,,,,,fidelity,w,g,upper,,,,,,,3,w,LoDemNoTar,None,g,1,0.7513262855354697,None,,,,,,,,,,,,,,,,,,,301,2023-11-09_16h34.04.648,leap3,2022.2.5,60.06600144450393,
,,,,,,,,,,,,,,,,,,,,8,0,8,0,17,0,17,0,,,,,,lenie,nw,h,upper,,,,,,,3,nw,LoDemNoTar,None,h,1,0.6319977708626539,None,,,,,,,,,,,,,,,,,,,301,2023-11-09_16h34.04.648,leap3,2022.2.5,60.06600144450393,
,,,,,,,,,,,,,,,,,,,,8,0,8,0,18,0,18,0,,,,,,graiking,nw,h,upper,,,,,,,3,nw,LoDemNoTar,None,h,1,0.7654026371892542,None,,,,,,,,,,,,,,,,,,,301,2023-11-09_16h34.04.648,leap3,2022.2.5,60.06600144450393,
,,,,,,,,,,,,,,,,,,,,8,0,8,0,19,0,19,0,,,,,,terming,w,g,upper,,,,,,,3,w,LoDemNoTar,None,h,0,1.3976985907647759,None,,,,,,,,,,,,,,,,,,,301,2023-11-09_16h34.04.648,leap3,2022.2.5,60.06600144450393,
,,,,,,,,,,,,,,,,,,,,8,0,8,0,20,0,20,0,,,,,,embrace,w,g,upper,,,,,,,3,w,LoDemNoTar,None,g,1,0.8521947762928903,None,,,,,,,,,,,,,,,,,,,301,2023-11-09_16h34.04.648,leap3,2022.2.5,60.06600144450393,
,,,,,,,,,,,,,,,,,,,,8,0,8,0,21,0,21,0,,,,,,prison,w,g,upper,,,,,,,3,w,LoDemNoTar,None,g,1,0.7999773982446641,None,,,,,,,,,,,,,,,,,,,301,2023-11-09_16h34.04.648,leap3,2022.2.5,60.06600144450393,
,,,,,,,,,,,,,,,,,,,,8,0,8,0,22,0,22,0,,,,,,exploit,w,g,upper,,,,,,,3,w,LoDemNoTar,None,g,1,0.8545801215805113,None,,,,,,,,,,,,,,,,,,,301,2023-11-09_16h34.04.648,leap3,2022.2.5,60.06600144450393,
,,,,,,,,,,,,,,,,,,,,8,0,8,0,23,0,23,0,,,,,,warmer,w,g,upper,,,,,,,3,w,LoDemNoTar,None,g,1,0.9866302572190762,None,,,,,,,,,,,,,,,,,,,301,2023-11-09_16h34.04.648,leap3,2022.2.5,60.06600144450393,
,,,,,,,,,,,,,,,,,,,,8,0,8,0,24,0,24,0,,,,,,except,w,g,upper,,,,,,,3,w,LoDemNoTar,None,g,1,0.8020959028508514,None,,,,,,,,,,,,,,,,,,,301,2023-11-09_16h34.04.648,leap3,2022.2.5,60.06600144450393,
,,,,,,,,,,,,,,,,,,,,8,0,8,0,25,0,25,0,,,,,,rudder,w,g,upper,,,,,,,3,w,LoDemNoTar,None,g,1,1.1126857437193394,None,,,,,,,,,,,,,,,,,,,301,2023-11-09_16h34.04.648,leap3,2022.2.5,60.06600144450393,
,,,,,,,,,,,,,,,,,,,,8,0,8,0,26,0,26,0,,,,,,schides,nw,h,upper,,,,,,,3,nw,LoDemNoTar,None,h,1,0.690741162514314,None,,,,,,,,,,,,,,,,,,,301,2023-11-09_16h34.04.648,leap3,2022.2.5,60.06600144450393,
,,,,,,,,,,,,,,,,,,,,8,0,8,0,27,0,27,0,,,,,,nimono,nw,h,upper,,,,,,,3,nw,LoDemNoTar,None,h,1,1.0054471725597978,None,,,,,,,,,,,,,,,,,,,301,2023-11-09_16h34.04.648,leap3,2022.2.5,60.06600144450393,
,,,,,,,,,,,,,,,,,,,,8,0,8,0,28,0,28,0,,,,,,withep,nw,h,upper,,,,,,,3,nw,LoDemNoTar,None,h,1,0.9074463928118348,None,,,,,,,,,,,,,,,,,,,301,2023-11-09_16h34.04.648,leap3,2022.2.5,60.06600144450393,
,,,,,,,,,,,,,,,,,,,,8,0,8,0,29,0,29,0,,,,,,fraft,nw,h,upper,,,,,,,3,nw,LoDemNoTar,None,h,1,0.8285386394709349,None,,,,,,,,,,,,,,,,,,,301,2023-11-09_16h34.04.648,leap3,2022.2.5,60.06600144450393,
,,,,,,,,,,,,,,,,,,,,8,0,8,0,,,,,,,,,,,,,,,,,,,,,,,,,,,,,,,,,,,,,,,,,,,,,,301,2023-11-09_16h34.04.648,leap3,2022.2.5,60.06600144450393,
,,,,,,,,,,,,,,,,,,,,9,0,9,0,0,0,0,0,,,,,,planofoad,nw,h,lower,,,,,,,1,nw,HiDemTar,None,h,1,1.0654810671694577,None,,,,,,,,,,,,,,,,,,,301,2023-11-09_16h34.04.648,leap3,2022.2.5,60.06600144450393,
,,,,,,,,,,,,,,,,,,,,9,0,9,0,1,0,1,0,,,,,,overflow,w,g,lower,,,,,,,1,w,HiDemTar,None,g,1,0.8064451438840479,None,,,,,,,,,,,,,,,,,,,301,2023-11-09_16h34.04.648,leap3,2022.2.5,60.06600144450393,
,,,,,,,,,,,,,,,,,,,,9,0,9,0,2,0,2,0,,,,,,snays,nw,h,lower,,,,,,,1,nw,HiDemTar,None,h,1,1.0365172470919788,None,,,,,,,,,,,,,,,,,,,301,2023-11-09_16h34.04.648,leap3,2022.2.5,60.06600144450393,
,,,,,,,,,,,,,,,,,,,,9,0,9,0,3,0,3,0,,,,,,innocent,w,g,lower,,,,,,,1,w,HiDemTar,None,g,1,0.7532282716128975,None,,,,,,,,,,,,,,,,,,,301,2023-11-09_16h34.04.648,leap3,2022.2.5,60.06600144450393,
,,,,,,,,,,,,,,,,,,,,9,0,9,0,4,0,4,0,,,,,,erlighten,nw,h,lower,,,,,,,1,nw,HiDemTar,None,h,1,0.8963969966862351,None,,,,,,,,,,,,,,,,,,,301,2023-11-09_16h34.04.648,leap3,2022.2.5,60.06600144450393,
,,,,,,,,,,,,,,,,,,,,9,0,9,0,5,0,5,0,,,,,,suspect,w,g,lower,,,,,,,1,w,HiDemTar,None,g,1,1.4350970315281302,None,,,,,,,,,,,,,,,,,,,301,2023-11-09_16h34.04.648,leap3,2022.2.5,60.06600144450393,
,,,,,,,,,,,,,,,,,,,,9,0,9,0,6,0,6,0,,,,,,labitable,nw,h,lower,,,,,,,1,nw,HiDemTar,None,h,1,1.2484418549574912,None,,,,,,,,,,,,,,,,,,,301,2023-11-09_16h34.04.648,leap3,2022.2.5,60.06600144450393,
,,,,,,,,,,,,,,,,,,,,9,0,9,0,7,0,7,0,,,,,,martial,w,g,lower,,,,,,,1,w,HiDemTar,None,g,1,0.7891852417960763,None,,,,,,,,,,,,,,,,,,,301,2023-11-09_16h34.04.648,leap3,2022.2.5,60.06600144450393,
,,,,,,,,,,,,,,,,,,,,9,0,9,0,8,0,8,0,,,,,,tritical,nw,h,lower,,,,,,,1,nw,HiDemTar,None,h,1,1.7078692994546145,None,,,,,,,,,,,,,,,,,,,301,2023-11-09_16h34.04.648,leap3,2022.2.5,60.06600144450393,
,,,,,,,,,,,,,,,,,,,,9,0,9,0,9,0,9,0,,,,,,intercede,w,g,lower,,,,,,,1,w,HiDemTar,None,g,1,0.8779078389052302,None,,,,,,,,,,,,,,,,,,,301,2023-11-09_16h34.04.648,leap3,2022.2.5,60.06600144450393,
,,,,,,,,,,,,,,,,,,,,9,0,9,0,10,0,10,0,,,,,,region,w,g,lower,,,,,,,1,w,HiDemTar,None,g,1,0.8332874795887619,None,,,,,,,,,,,,,,,,,,,301,2023-11-09_16h34.04.648,leap3,2022.2.5,60.06600144450393,
,,,,,,,,,,,,,,,,,,,,9,0,9,0,11,0,11,0,,,,,,rearrange,w,g,lower,,,,,,,1,w,HiDemTar,None,g,1,0.6466597819235176,None,,,,,,,,,,,,,,,,,,,301,2023-11-09_16h34.04.648,leap3,2022.2.5,60.06600144450393,
,,,,,,,,,,,,,,,,,,,,9,0,9,0,12,0,12,0,,,,,,teliever,nw,h,lower,,,,,,,1,nw,HiDemTar,None,h,1,0.9622682833578438,None,,,,,,,,,,,,,,,,,,,301,2023-11-09_16h34.04.648,leap3,2022.2.5,60.06600144450393,
,,,,,,,,,,,,,,,,,,,,9,0,9,0,13,0,13,0,,,,,,removable,w,g,lower,,,,,,,1,w,HiDemTar,None,g,1,0.9943825469817966,None,,,,,,,,,,,,,,,,,,,301,2023-11-09_16h34.04.648,leap3,2022.2.5,60.06600144450393,
,,,,,,,,,,,,,,,,,,,,9,0,9,0,14,0,14,0,,,,,,crimb,nw,h,lower,,,,,,,1,nw,HiDemTar,None,h,1,0.6890997271984816,None,,,,,,,,,,,,,,,,,,,301,2023-11-09_16h34.04.648,leap3,2022.2.5,60.06600144450393,
,,,,,,,,,,,,,,,,,,,,9,0,9,0,15,0,15,0,,,,,,treenery,nw,h,lower,,,,,,,1,nw,HiDemTar,None,h,1,1.3238502191379666,None,,,,,,,,,,,,,,,,,,,301,2023-11-09_16h34.04.648,leap3,2022.2.5,60.06600144450393,
,,,,,,,,,,,,,,,,,,,,9,0,9,0,16,0,16,0,,,,,,gackpedal,nw,h,lower,,,,,,,1,nw,HiDemTar,None,h,1,0.86930006952025,None,,,,,,,,,,,,,,,,,,,301,2023-11-09_16h34.04.648,leap3,2022.2.5,60.06600144450393,
,,,,,,,,,,,,,,,,,,,,9,0,9,0,17,0,17,0,,,,,,overwork,w,g,lower,,,,,,,1,w,HiDemTar,None,g,1,0.7443566408473998,None,,,,,,,,,,,,,,,,,,,301,2023-11-09_16h34.04.648,leap3,2022.2.5,60.06600144450393,
,,,,,,,,,,,,,,,,,,,,9,0,9,0,18,0,18,0,,,,,,tuckel,nw,h,lower,,,,,,,1,nw,HiDemTar,None,h,1,0.6730591484811157,None,,,,,,,,,,,,,,,,,,,301,2023-11-09_16h34.04.648,leap3,2022.2.5,60.06600144450393,
,,,,,,,,,,,,,,,,,,,,9,0,9,0,19,0,19,0,,,,,,extend,w,g,lower,,,,,,,1,w,HiDemTar,None,g,1,0.7314390274696052,None,,,,,,,,,,,,,,,,,,,301,2023-11-09_16h34.04.648,leap3,2022.2.5,60.06600144450393,
,,,,,,,,,,,,,,,,,,,,9,0,9,0,20,0,20,0,,,,,,trooper,w,g,lower,,,,,,,1,w,HiDemTar,None,g,1,0.8213882315903902,None,,,,,,,,,,,,,,,,,,,301,2023-11-09_16h34.04.648,leap3,2022.2.5,60.06600144450393,
,,,,,,,,,,,,,,,,,,,,9,0,9,0,21,0,21,0,,,,,,tibs,nw,h,lower,,,,,,,1,nw,HiDemTar,None,h,1,0.6347602028399706,None,,,,,,,,,,,,,,,,,,,301,2023-11-09_16h34.04.648,leap3,2022.2.5,60.06600144450393,
,,,,,,,,,,,,,,,,,,,,9,0,9,0,22,0,22,0,,,,,,urgent,w,g,lower,,,,,,,1,w,HiDemTar,None,g,1,0.743873281404376,None,,,,,,,,,,,,,,,,,,,301,2023-11-09_16h34.04.648,leap3,2022.2.5,60.06600144450393,
,,,,,,,,,,,,,,,,,,,,9,0,9,0,23,0,23,0,,,,,,sengry,nw,h,lower,,,,,,,1,nw,HiDemTar,None,h,1,0.8169068943243474,None,,,,,,,,,,,,,,,,,,,301,2023-11-09_16h34.04.648,leap3,2022.2.5,60.06600144450393,
,,,,,,,,,,,,,,,,,,,,9,0,9,0,24,0,24,0,,,,,,renown,w,g,lower,,,,,,,1,w,HiDemTar,None,g,1,1.343052497599274,None,,,,,,,,,,,,,,,,,,,301,2023-11-09_16h34.04.648,leap3,2022.2.5,60.06600144450393,
,,,,,,,,,,,,,,,,,,,,9,0,9,0,25,0,25,0,,,,,,nameplate,w,g,lower,,,,,,,1,w,HiDemTar,None,g,1,0.7513732970692217,None,,,,,,,,,,,,,,,,,,,301,2023-11-09_16h34.04.648,leap3,2022.2.5,60.06600144450393,
,,,,,,,,,,,,,,,,,,,,9,0,9,0,26,0,26,0,,,,,,monkey,target,q,lower,,,,,,,1,target,HiDemTar,None,g,0,0.7361689966637641,None,,,,,,,,,,,,,,,,,,,301,2023-11-09_16h34.04.648,leap3,2022.2.5,60.06600144450393,
,,,,,,,,,,,,,,,,,,,,9,0,9,0,27,0,27,0,,,,,,endgume,nw,h,lower,,,,,,,1,aftertar1,HiDemTar,None,h,1,0.7368301395326853,None,,,,,,,,,,,,,,,,,,,301,2023-11-09_16h34.04.648,leap3,2022.2.5,60.06600144450393,
,,,,,,,,,,,,,,,,,,,,9,0,9,0,28,0,28,0,,,,,,roodies,nw,h,lower,,,,,,,1,aftertar2,HiDemTar,None,h,1,1.4486003040801734,None,,,,,,,,,,,,,,,,,,,301,2023-11-09_16h34.04.648,leap3,2022.2.5,60.06600144450393,
,,,,,,,,,,,,,,,,,,,,9,0,9,0,29,0,29,0,,,,,,mebase,nw,h,lower,,,,,,,1,aftertar3,HiDemTar,None,h,1,1.0373426000587642,None,,,,,,,,,,,,,,,,,,,301,2023-11-09_16h34.04.648,leap3,2022.2.5,60.06600144450393,
,,,,,,,,,,,,,,,,,,,,9,0,9,0,,,,,,,,,,,,,,,,,,,,,,,,,,,,,,,,,,,,,,,,,,,,,,301,2023-11-09_16h34.04.648,leap3,2022.2.5,60.06600144450393,
,,,,,,,,,,,,,,,,,,,,10,0,10,0,0,0,0,0,,,,,,mustled,nw,h,lower,,,,,,,2,nw,HiDemNoTar,None,h,1,0.9147739224135876,None,,,,,,,,,,,,,,,,,,,301,2023-11-09_16h34.04.648,leap3,2022.2.5,60.06600144450393,
,,,,,,,,,,,,,,,,,,,,10,0,10,0,1,0,1,0,,,,,,nearsipe,nw,h,lower,,,,,,,2,nw,HiDemNoTar,None,h,1,1.5566870719194412,None,,,,,,,,,,,,,,,,,,,301,2023-11-09_16h34.04.648,leap3,2022.2.5,60.06600144450393,
,,,,,,,,,,,,,,,,,,,,10,0,10,0,2,0,2,0,,,,,,antonym,w,g,lower,,,,,,,2,w,HiDemNoTar,None,g,1,1.0756799497175962,None,,,,,,,,,,,,,,,,,,,301,2023-11-09_16h34.04.648,leap3,2022.2.5,60.06600144450393,
,,,,,,,,,,,,,,,,,,,,10,0,10,0,3,0,3,0,,,,,,unsmilung,nw,h,lower,,,,,,,2,nw,HiDemNoTar,None,h,1,1.0630295081064105,None,,,,,,,,,,,,,,,,,,,301,2023-11-09_16h34.04.648,leap3,2022.2.5,60.06600144450393,
,,,,,,,,,,,,,,,,,,,,10,0,10,0,4,0,4,0,,,,,,athcan,nw,h,lower,,,,,,,2,nw,HiDemNoTar,None,h,1,0.8351196101866663,None,,,,,,,,,,,,,,,,,,,301,2023-11-09_16h34.04.648,leap3,2022.2.5,60.06600144450393,
,,,,,,,,,,,,,,,,,,,,10,0,10,0,5,0,5,0,,,,,,forgive,w,g,lower,,,,,,,2,w,HiDemNoTar,None,g,1,0.9444485453423113,None,,,,,,,,,,,,,,,,,,,301,2023-11-09_16h34.04.648,leap3,2022.2.5,60.06600144450393,
,,,,,,,,,,,,,,,,,,,,10,0,10,0,6,0,6,0,,,,,,splatter,w,g,lower,,,,,,,2,w,HiDemNoTar,None,g,1,0.649143454618752,None,,,,,,,,,,,,,,,,,,,301,2023-11-09_16h34.04.648,leap3,2022.2.5,60.06600144450393,
,,,,,,,,,,,,,,,,,,,,10,0,10,0,7,0,7,0,,,,,,comment,w,g,lower,,,,,,,2,w,HiDemNoTar,None,g,1,0.6056397878564894,None,,,,,,,,,,,,,,,,,,,301,2023-11-09_16h34.04.648,leap3,2022.2.5,60.06600144450393,
,,,,,,,,,,,,,,,,,,,,10,0,10,0,8,0,8,0,,,,,,frowsed,nw,h,lower,,,,,,,2,nw,HiDemNoTar,None,h,1,0.6765714497305453,None,,,,,,,,,,,,,,,,,,,301,2023-11-09_16h34.04.648,leap3,2022.2.5,60.06600144450393,
,,,,,,,,,,,,,,,,,,,,10,0,10,0,9,0,9,0,,,,,,turntable,w,g,lower,,,,,,,2,w,HiDemNoTar,None,h,0,0.6958866221830249,None,,,,,,,,,,,,,,,,,,,301,2023-11-09_16h34.04.648,leap3,2022.2.5,60.06600144450393,
,,,,,,,,,,,,,,,,,,,,10,0,10,0,10,0,10,0,,,,,,amidst,w,g,lower,,,,,,,2,w,HiDemNoTar,None,g,1,0.7463788045570254,None,,,,,,,,,,,,,,,,,,,301,2023-11-09_16h34.04.648,leap3,2022.2.5,60.06600144450393,
,,,,,,,,,,,,,,,,,,,,10,0,10,0,11,0,11,0,,,,,,slowning,nw,h,lower,,,,,,,2,nw,HiDemNoTar,None,h,1,1.2486547317821532,None,,,,,,,,,,,,,,,,,,,301,2023-11-09_16h34.04.648,leap3,2022.2.5,60.06600144450393,
,,,,,,,,,,,,,,,,,,,,10,0,10,0,12,0,12,0,,,,,,puffin,w,g,lower,,,,,,,2,w,HiDemNoTar,None,g,1,0.9987314569298178,None,,,,,,,,,,,,,,,,,,,301,2023-11-09_16h34.04.648,leap3,2022.2.5,60.06600144450393,
,,,,,,,,,,,,,,,,,,,,10,0,10,0,13,0,13,0,,,,,,sponto,nw,h,lower,,,,,,,2,nw,HiDemNoTar,q,h,1,1.0760815353132784,None,q,,0.0885333358310163,,,,,,,,,,,,,,,,301,2023-11-09_16h34.04.648,leap3,2022.2.5,60.06600144450393,
,,,,,,,,,,,,,,,,,,,,10,0,10,0,14,0,14,0,,,,,,provide,w,g,lower,,,,,,,2,w,HiDemNoTar,None,g,1,1.7042086797300726,None,,,,,,,,,,,,,,,,,,,301,2023-11-09_16h34.04.648,leap3,2022.2.5,60.06600144450393,
,,,,,,,,,,,,,,,,,,,,10,0,10,0,15,0,15,0,,,,,,plymie,nw,h,lower,,,,,,,2,nw,HiDemNoTar,None,h,1,0.7142820875160396,None,,,,,,,,,,,,,,,,,,,301,2023-11-09_16h34.04.648,leap3,2022.2.5,60.06600144450393,
,,,,,,,,,,,,,,,,,,,,10,0,10,0,16,0,16,0,,,,,,gettle,nw,h,lower,,,,,,,2,nw,HiDemNoTar,None,h,1,0.33332207635976374,None,,,,,,,,,,,,,,,,,,,301,2023-11-09_16h34.04.648,leap3,2022.2.5,60.06600144450393,
,,,,,,,,,,,,,,,,,,,,10,0,10,0,17,0,17,0,,,,,,omission,w,g,lower,,,,,,,2,w,HiDemNoTar,None,g,1,0.8383551384322345,None,,,,,,,,,,,,,,,,,,,301,2023-11-09_16h34.04.648,leap3,2022.2.5,60.06600144450393,
,,,,,,,,,,,,,,,,,,,,10,0,10,0,18,0,18,0,,,,,,odacles,nw,h,lower,,,,,,,2,nw,HiDemNoTar,None,h,1,0.8181699190754443,None,,,,,,,,,,,,,,,,,,,301,2023-11-09_16h34.04.648,leap3,2022.2.5,60.06600144450393,
,,,,,,,,,,,,,,,,,,,,10,0,10,0,19,0,19,0,,,,,,flooted,nw,h,lower,,,,,,,2,nw,HiDemNoTar,None,h,1,0.7440921175293624,None,,,,,,,,,,,,,,,,,,,301,2023-11-09_16h34.04.648,leap3,2022.2.5,60.06600144450393,
,,,,,,,,,,,,,,,,,,,,10,0,10,0,20,0,20,0,,,,,,superstar,w,g,lower,,,,,,,2,w,HiDemNoTar,None,g,1,0.8808367981109768,None,,,,,,,,,,,,,,,,,,,301,2023-11-09_16h34.04.648,leap3,2022.2.5,60.06600144450393,
,,,,,,,,,,,,,,,,,,,,10,0,10,0,21,0,21,0,,,,,,joses,nw,h,lower,,,,,,,2,nw,HiDemNoTar,None,h,1,0.8921695887111127,None,,,,,,,,,,,,,,,,,,,301,2023-11-09_16h34.04.648,leap3,2022.2.5,60.06600144450393,
,,,,,,,,,,,,,,,,,,,,10,0,10,0,22,0,22,0,,,,,,turning,w,g,lower,,,,,,,2,w,HiDemNoTar,None,g,1,1.0549378737341613,None,,,,,,,,,,,,,,,,,,,301,2023-11-09_16h34.04.648,leap3,2022.2.5,60.06600144450393,
,,,,,,,,,,,,,,,,,,,,10,0,10,0,23,0,23,0,,,,,,acroad,nw,h,lower,,,,,,,2,nw,HiDemNoTar,None,h,1,0.890956555493176,None,,,,,,,,,,,,,,,,,,,301,2023-11-09_16h34.04.648,leap3,2022.2.5,60.06600144450393,
,,,,,,,,,,,,,,,,,,,,10,0,10,0,24,0,24,0,,,,,,minimum,w,g,lower,,,,,,,2,w,HiDemNoTar,None,g,1,1.1816763535607606,None,,,,,,,,,,,,,,,,,,,301,2023-11-09_16h34.04.648,leap3,2022.2.5,60.06600144450393,
,,,,,,,,,,,,,,,,,,,,10,0,10,0,25,0,25,0,,,,,,professor,w,g,lower,,,,,,,2,w,HiDemNoTar,None,g,1,3.8841547621414065,None,,,,,,,,,,,,,,,,,,,301,2023-11-09_16h34.04.648,leap3,2022.2.5,60.06600144450393,
,,,,,,,,,,,,,,,,,,,,10,0,10,0,26,0,26,0,,,,,,priant,nw,h,lower,,,,,,,2,nw,HiDemNoTar,None,h,1,0.7436630532611161,None,,,,,,,,,,,,,,,,,,,301,2023-11-09_16h34.04.648,leap3,2022.2.5,60.06600144450393,
,,,,,,,,,,,,,,,,,,,,10,0,10,0,27,0,27,0,,,,,,outset,w,g,lower,,,,,,,2,w,HiDemNoTar,None,g,1,0.8721399712376297,None,,,,,,,,,,,,,,,,,,,301,2023-11-09_16h34.04.648,leap3,2022.2.5,60.06600144450393,
,,,,,,,,,,,,,,,,,,,,10,0,10,0,28,0,28,0,,,,,,chesume,nw,h,lower,,,,,,,2,nw,HiDemNoTar,None,h,1,0.819481941871345,None,,,,,,,,,,,,,,,,,,,301,2023-11-09_16h34.04.648,leap3,2022.2.5,60.06600144450393,
,,,,,,,,,,,,,,,,,,,,10,0,10,0,29,0,29,0,,,,,,emotion,w,g,lower,,,,,,,2,w,HiDemNoTar,None,g,1,0.7849224095698446,None,,,,,,,,,,,,,,,,,,,301,2023-11-09_16h34.04.648,leap3,2022.2.5,60.06600144450393,
,,,,,,,,,,,,,,,,,,,,10,0,10,0,,,,,,,,,,,,,,,,,,,,,,,,,,,,,,,,,,,,,,,,,,,,,,301,2023-11-09_16h34.04.648,leap3,2022.2.5,60.06600144450393,
,,,,,,,,,,,,,,,,,,,,11,0,11,0,0,0,0,0,,,,,,sorping,nw,h,lower,,,,,,,1,nw,HiDemTar,None,h,1,0.7428489569574594,None,,,,,,,,,,,,,,,,,,,301,2023-11-09_16h34.04.648,leap3,2022.2.5,60.06600144450393,
,,,,,,,,,,,,,,,,,,,,11,0,11,0,1,0,1,0,,,,,,snife,nw,h,lower,,,,,,,1,nw,HiDemTar,None,h,1,0.6799688700120896,None,,,,,,,,,,,,,,,,,,,301,2023-11-09_16h34.04.648,leap3,2022.2.5,60.06600144450393,
,,,,,,,,,,,,,,,,,,,,11,0,11,0,2,0,2,0,,,,,,comply,w,g,lower,,,,,,,1,w,HiDemTar,None,g,1,0.715321641182527,None,,,,,,,,,,,,,,,,,,,301,2023-11-09_16h34.04.648,leap3,2022.2.5,60.06600144450393,
,,,,,,,,,,,,,,,,,,,,11,0,11,0,3,0,3,0,,,,,,resent,w,g,lower,,,,,,,1,w,HiDemTar,None,g,1,1.2214813278988004,None,,,,,,,,,,,,,,,,,,,301,2023-11-09_16h34.04.648,leap3,2022.2.5,60.06600144450393,
,,,,,,,,,,,,,,,,,,,,11,0,11,0,4,0,4,0,,,,,,glaims,nw,h,lower,,,,,,,1,nw,HiDemTar,None,h,1,0.8672593659721315,None,,,,,,,,,,,,,,,,,,,301,2023-11-09_16h34.04.648,leap3,2022.2.5,60.06600144450393,
,,,,,,,,,,,,,,,,,,,,11,0,11,0,5,0,5,0,,,,,,hutting,nw,h,lower,,,,,,,1,nw,HiDemTar,None,g,0,0.9838274351786822,None,,,,,,,,,,,,,,,,,,,301,2023-11-09_16h34.04.648,leap3,2022.2.5,60.06600144450393,
,,,,,,,,,,,,,,,,,,,,11,0,11,0,6,0,6,0,,,,,,reses,nw,h,lower,,,,,,,1,nw,HiDemTar,None,h,1,1.2789779170416296,None,,,,,,,,,,,,,,,,,,,301,2023-11-09_16h34.04.648,leap3,2022.2.5,60.06600144450393,
,,,,,,,,,,,,,,,,,,,,11,0,11,0,7,0,7,0,,,,,,tycoon,w,g,lower,,,,,,,1,w,HiDemTar,None,g,1,0.8175547944847494,None,,,,,,,,,,,,,,,,,,,301,2023-11-09_16h34.04.648,leap3,2022.2.5,60.06600144450393,
,,,,,,,,,,,,,,,,,,,,11,0,11,0,8,0,8,0,,,,,,prominent,w,g,lower,,,,,,,1,w,HiDemTar,None,g,1,0.8794297589920461,None,,,,,,,,,,,,,,,,,,,301,2023-11-09_16h34.04.648,leap3,2022.2.5,60.06600144450393,
,,,,,,,,,,,,,,,,,,,,11,0,11,0,9,0,9,0,,,,,,lecked,nw,h,lower,,,,,,,1,nw,HiDemTar,None,h,1,0.8110354023519903,None,,,,,,,,,,,,,,,,,,,301,2023-11-09_16h34.04.648,leap3,2022.2.5,60.06600144450393,
,,,,,,,,,,,,,,,,,,,,11,0,11,0,10,0,10,0,,,,,,atabaster,nw,h,lower,,,,,,,1,nw,HiDemTar,None,h,1,0.8087947338353842,None,,,,,,,,,,,,,,,,,,,301,2023-11-09_16h34.04.648,leap3,2022.2.5,60.06600144450393,
,,,,,,,,,,,,,,,,,,,,11,0,11,0,11,0,11,0,,,,,,disease,w,g,lower,,,,,,,1,w,HiDemTar,None,g,1,0.7507979008369148,None,,,,,,,,,,,,,,,,,,,301,2023-11-09_16h34.04.648,leap3,2022.2.5,60.06600144450393,
,,,,,,,,,,,,,,,,,,,,11,0,11,0,12,0,12,0,,,,,,maunches,nw,h,lower,,,,,,,1,nw,HiDemTar,None,h,1,0.6795547038782388,None,,,,,,,,,,,,,,,,,,,301,2023-11-09_16h34.04.648,leap3,2022.2.5,60.06600144450393,
,,,,,,,,,,,,,,,,,,,,11,0,11,0,13,0,13,0,,,,,,tiery,nw,h,lower,,,,,,,1,nw,HiDemTar,None,g,0,0.9549344638362527,None,,,,,,,,,,,,,,,,,,,301,2023-11-09_16h34.04.648,leap3,2022.2.5,60.06600144450393,
,,,,,,,,,,,,,,,,,,,,11,0,11,0,14,0,14,0,,,,,,decant,w,g,lower,,,,,,,1,w,HiDemTar,None,h,0,0.6909742343705148,None,,,,,,,,,,,,,,,,,,,301,2023-11-09_16h34.04.648,leap3,2022.2.5,60.06600144450393,
,,,,,,,,,,,,,,,,,,,,11,0,11,0,15,0,15,0,,,,,,tredits,nw,h,lower,,,,,,,1,nw,HiDemTar,None,h,1,1.1739684271160513,None,,,,,,,,,,,,,,,,,,,301,2023-11-09_16h34.04.648,leap3,2022.2.5,60.06600144450393,
,,,,,,,,,,,,,,,,,,,,11,0,11,0,16,0,16,0,,,,,,roughly,w,g,lower,,,,,,,1,w,HiDemTar,None,g,1,0.8521696149837226,None,,,,,,,,,,,,,,,,,,,301,2023-11-09_16h34.04.648,leap3,2022.2.5,60.06600144450393,
,,,,,,,,,,,,,,,,,,,,11,0,11,0,17,0,17,0,,,,,,consonant,w,g,lower,,,,,,,1,w,HiDemTar,None,g,1,1.3207305648829788,None,,,,,,,,,,,,,,,,,,,301,2023-11-09_16h34.04.648,leap3,2022.2.5,60.06600144450393,
,,,,,,,,,,,,,,,,,,,,11,0,11,0,18,0,18,0,,,,,,ebciting,nw,h,lower,,,,,,,1,nw,HiDemTar,None,h,1,1.0340190078131855,None,,,,,,,,,,,,,,,,,,,301,2023-11-09_16h34.04.648,leap3,2022.2.5,60.06600144450393,
,,,,,,,,,,,,,,,,,,,,11,0,11,0,19,0,19,0,,,,,,standard,w,g,lower,,,,,,,1,w,HiDemTar,None,g,1,0.799230839824304,None,,,,,,,,,,,,,,,,,,,301,2023-11-09_16h34.04.648,leap3,2022.2.5,60.06600144450393,
,,,,,,,,,,,,,,,,,,,,11,0,11,0,20,0,20,0,,,,,,thacked,nw,h,lower,,,,,,,1,nw,HiDemTar,None,h,1,0.6538466073106974,None,,,,,,,,,,,,,,,,,,,301,2023-11-09_16h34.04.648,leap3,2022.2.5,60.06600144450393,
,,,,,,,,,,,,,,,,,,,,11,0,11,0,21,0,21,0,,,,,,knowledge,w,g,lower,,,,,,,1,w,HiDemTar,None,g,1,0.7938970024697483,None,,,,,,,,,,,,,,,,,,,301,2023-11-09_16h34.04.648,leap3,2022.2.5,60.06600144450393,
,,,,,,,,,,,,,,,,,,,,11,0,11,0,22,0,22,0,,,,,,flamingo,target,q,lower,,,,,,,1,target,HiDemTar,None,g,0,0.8559318725019693,None,,,,,,,,,,,,,,,,,,,301,2023-11-09_16h34.04.648,leap3,2022.2.5,60.06600144450393,
,,,,,,,,,,,,,,,,,,,,11,0,11,0,23,0,23,0,,,,,,achieve,w,g,lower,,,,,,,1,aftertar1,HiDemTar,None,g,1,0.9730475281830877,None,,,,,,,,,,,,,,,,,,,301,2023-11-09_16h34.04.648,leap3,2022.2.5,60.06600144450393,
,,,,,,,,,,,,,,,,,,,,11,0,11,0,24,0,24,0,,,,,,prohibit,w,g,lower,,,,,,,1,aftertar2,HiDemTar,None,g,1,1.3318200206849724,None,,,,,,,,,,,,,,,,,,,301,2023-11-09_16h34.04.648,leap3,2022.2.5,60.06600144450393,
,,,,,,,,,,,,,,,,,,,,11,0,11,0,25,0,25,0,,,,,,undue,w,g,lower,,,,,,,1,aftertar3,HiDemTar,None,g,1,0.8370964175555855,None,,,,,,,,,,,,,,,,,,,301,2023-11-09_16h34.04.648,leap3,2022.2.5,60.06600144450393,
,,,,,,,,,,,,,,,,,,,,11,0,11,0,26,0,26,0,,,,,,fards,nw,h,lower,,,,,,,1,w,HiDemTar,None,h,1,1.073898141272366,None,,,,,,,,,,,,,,,,,,,301,2023-11-09_16h34.04.648,leap3,2022.2.5,60.06600144450393,
,,,,,,,,,,,,,,,,,,,,11,0,11,0,27,0,27,0,,,,,,handle,w,g,lower,,,,,,,1,nw,HiDemTar,None,g,1,0.7012856800574809,None,,,,,,,,,,,,,,,,,,,301,2023-11-09_16h34.04.648,leap3,2022.2.5,60.06600144450393,
,,,,,,,,,,,,,,,,,,,,11,0,11,0,28,0,28,0,,,,,,trocess,nw,h,lower,,,,,,,1,w,HiDemTar,None,h,1,1.4240251223091036,None,,,,,,,,,,,,,,,,,,,301,2023-11-09_16h34.04.648,leap3,2022.2.5,60.06600144450393,
,,,,,,,,,,,,,,,,,,,,11,0,11,0,29,0,29,0,,,,,,trake,nw,h,lower,,,,,,,1,nw,HiDemTar,None,h,1,0.7653927048668265,None,,,,,,,,,,,,,,,,,,,301,2023-11-09_16h34.04.648,leap3,2022.2.5,60.06600144450393,
,,,,,,,,,,,,,,,,,,,,11,0,11,0,,,,,,,,,,,,,,,,,,,,,,,,,,,,,,,,,,,,,,,,,,,,,,301,2023-11-09_16h34.04.648,leap3,2022.2.5,60.06600144450393,
,,,,,,,,,,,,,,,,,,,,12,0,12,0,0,0,0,0,,,,,,whirlpool,w,g,lower,,,,,,,1,w,HiDemTar,None,g,1,0.9012113884091377,None,,,,,,,,,,,,,,,,,,,301,2023-11-09_16h34.04.648,leap3,2022.2.5,60.06600144450393,
,,,,,,,,,,,,,,,,,,,,12,0,12,0,1,0,1,0,,,,,,arrested,w,g,lower,,,,,,,1,w,HiDemTar,None,g,1,0.6720368105452508,None,,,,,,,,,,,,,,,,,,,301,2023-11-09_16h34.04.648,leap3,2022.2.5,60.06600144450393,
,,,,,,,,,,,,,,,,,,,,12,0,12,0,2,0,2,0,,,,,,loneliest,w,g,lower,,,,,,,1,w,HiDemTar,None,g,1,0.6672098382841796,None,,,,,,,,,,,,,,,,,,,301,2023-11-09_16h34.04.648,leap3,2022.2.5,60.06600144450393,
,,,,,,,,,,,,,,,,,,,,12,0,12,0,3,0,3,0,,,,,,fuestion,nw,h,lower,,,,,,,1,nw,HiDemTar,None,h,1,0.8552290149964392,None,,,,,,,,,,,,,,,,,,,301,2023-11-09_16h34.04.648,leap3,2022.2.5,60.06600144450393,
,,,,,,,,,,,,,,,,,,,,12,0,12,0,4,0,4,0,,,,,,bureaug,nw,h,lower,,,,,,,1,nw,HiDemTar,None,h,1,0.827312363544479,None,,,,,,,,,,,,,,,,,,,301,2023-11-09_16h34.04.648,leap3,2022.2.5,60.06600144450393,
,,,,,,,,,,,,,,,,,,,,12,0,12,0,5,0,5,0,,,,,,gund,nw,h,lower,,,,,,,1,nw,HiDemTar,None,h,1,0.6486418864224106,None,,,,,,,,,,,,,,,,,,,301,2023-11-09_16h34.04.648,leap3,2022.2.5,60.06600144450393,
,,,,,,,,,,,,,,,,,,,,12,0,12,0,6,0,6,0,,,,,,foster,w,g,lower,,,,,,,1,w,HiDemTar,None,g,1,0.6213420145213604,None,,,,,,,,,,,,,,,,,,,301,2023-11-09_16h34.04.648,leap3,2022.2.5,60.06600144450393,
,,,,,,,,,,,,,,,,,,,,12,0,12,0,7,0,7,0,,,,,,gradielts,nw,h,lower,,,,,,,1,nw,HiDemTar,None,h,1,1.0977102112956345,None,,,,,,,,,,,,,,,,,,,301,2023-11-09_16h34.04.648,leap3,2022.2.5,60.06600144450393,
,,,,,,,,,,,,,,,,,,,,12,0,12,0,8,0,8,0,,,,,,strenuous,w,g,lower,,,,,,,1,w,HiDemTar,None,g,1,0.8843894894234836,None,,,,,,,,,,,,,,,,,,,301,2023-11-09_16h34.04.648,leap3,2022.2.5,60.06600144450393,
,,,,,,,,,,,,,,,,,,,,12,0,12,0,9,0,9,0,,,,,,fission,w,g,lower,,,,,,,1,w,HiDemTar,None,g,1,0.6070825823117048,None,,,,,,,,,,,,,,,,,,,301,2023-11-09_16h34.04.648,leap3,2022.2.5,60.06600144450393,
,,,,,,,,,,,,,,,,,,,,12,0,12,0,10,0,10,0,,,,,,carbled,nw,h,lower,,,,,,,1,nw,HiDemTar,None,h,1,0.7497408005874604,None,,,,,,,,,,,,,,,,,,,301,2023-11-09_16h34.04.648,leap3,2022.2.5,60.06600144450393,
,,,,,,,,,,,,,,,,,,,,12,0,12,0,11,0,11,0,,,,,,gerby,nw,h,lower,,,,,,,1,nw,HiDemTar,None,h,1,0.8464911358896643,None,,,,,,,,,,,,,,,,,,,301,2023-11-09_16h34.04.648,leap3,2022.2.5,60.06600144450393,
,,,,,,,,,,,,,,,,,,,,12,0,12,0,12,0,12,0,,,,,,razelle,nw,h,lower,,,,,,,1,nw,HiDemTar,None,h,1,0.9792871677782387,None,,,,,,,,,,,,,,,,,,,301,2023-11-09_16h34.04.648,leap3,2022.2.5,60.06600144450393,
,,,,,,,,,,,,,,,,,,,,12,0,12,0,13,0,13,0,,,,,,explosion,w,g,lower,,,,,,,1,w,HiDemTar,None,g,1,1.7536692540161312,None,,,,,,,,,,,,,,,,,,,301,2023-11-09_16h34.04.648,leap3,2022.2.5,60.06600144450393,
,,,,,,,,,,,,,,,,,,,,12,0,12,0,14,0,14,0,,,,,,upstairs,w,g,lower,,,,,,,1,w,HiDemTar,None,g,1,0.8987346680369228,None,,,,,,,,,,,,,,,,,,,301,2023-11-09_16h34.04.648,leap3,2022.2.5,60.06600144450393,
,,,,,,,,,,,,,,,,,,,,12,0,12,0,15,0,15,0,,,,,,lawsuit,w,g,lower,,,,,,,1,w,HiDemTar,None,g,1,0.7965736878104508,None,,,,,,,,,,,,,,,,,,,301,2023-11-09_16h34.04.648,leap3,2022.2.5,60.06600144450393,
,,,,,,,,,,,,,,,,,,,,12,0,12,0,16,0,16,0,,,,,,clume,nw,h,lower,,,,,,,1,nw,HiDemTar,None,h,1,0.8192048377823085,None,,,,,,,,,,,,,,,,,,,301,2023-11-09_16h34.04.648,leap3,2022.2.5,60.06600144450393,
,,,,,,,,,,,,,,,,,,,,12,0,12,0,17,0,17,0,,,,,,ezulated,nw,h,lower,,,,,,,1,nw,HiDemTar,None,h,1,0.8326382553204894,None,,,,,,,,,,,,,,,,,,,301,2023-11-09_16h34.04.648,leap3,2022.2.5,60.06600144450393,
,,,,,,,,,,,,,,,,,,,,12,0,12,0,18,0,18,0,,,,,,diatonic,w,g,lower,,,,,,,1,w,HiDemTar,None,h,0,0.629804776282981,None,,,,,,,,,,,,,,,,,,,301,2023-11-09_16h34.04.648,leap3,2022.2.5,60.06600144450393,
,,,,,,,,,,,,,,,,,,,,12,0,12,0,19,0,19,0,,,,,,observer,w,g,lower,,,,,,,1,w,HiDemTar,None,g,1,0.6193509711883962,None,,,,,,,,,,,,,,,,,,,301,2023-11-09_16h34.04.648,leap3,2022.2.5,60.06600144450393,
,,,,,,,,,,,,,,,,,,,,12,0,12,0,20,0,20,0,,,,,,dolphin,target,q,lower,,,,,,,1,target,HiDemTar,None,g,0,0.7607362328562886,None,,,,,,,,,,,,,,,,,,,301,2023-11-09_16h34.04.648,leap3,2022.2.5,60.06600144450393,
,,,,,,,,,,,,,,,,,,,,12,0,12,0,21,0,21,0,,,,,,sustain,w,g,lower,,,,,,,1,aftertar1,HiDemTar,None,g,1,0.7447519360575825,None,,,,,,,,,,,,,,,,,,,301,2023-11-09_16h34.04.648,leap3,2022.2.5,60.06600144450393,
,,,,,,,,,,,,,,,,,,,,12,0,12,0,22,0,22,0,,,,,,pypecast,nw,h,lower,,,,,,,1,aftertar2,HiDemTar,None,h,1,0.8094985845964402,None,,,,,,,,,,,,,,,,,,,301,2023-11-09_16h34.04.648,leap3,2022.2.5,60.06600144450393,
,,,,,,,,,,,,,,,,,,,,12,0,12,0,23,0,23,0,,,,,,chyme,nw,h,lower,,,,,,,1,aftertar3,HiDemTar,None,h,1,0.6954906648024917,None,,,,,,,,,,,,,,,,,,,301,2023-11-09_16h34.04.648,leap3,2022.2.5,60.06600144450393,
,,,,,,,,,,,,,,,,,,,,12,0,12,0,24,0,24,0,,,,,,rillains,nw,h,lower,,,,,,,1,nw,HiDemTar,None,h,1,0.6971612342167646,None,,,,,,,,,,,,,,,,,,,301,2023-11-09_16h34.04.648,leap3,2022.2.5,60.06600144450393,
,,,,,,,,,,,,,,,,,,,,12,0,12,0,25,0,25,0,,,,,,illness,w,g,lower,,,,,,,1,nw,HiDemTar,None,g,1,0.8201692390721291,None,,,,,,,,,,,,,,,,,,,301,2023-11-09_16h34.04.648,leap3,2022.2.5,60.06600144450393,
,,,,,,,,,,,,,,,,,,,,12,0,12,0,26,0,26,0,,,,,,alomalous,nw,h,lower,,,,,,,1,w,HiDemTar,None,h,1,1.4420001315884292,None,,,,,,,,,,,,,,,,,,,301,2023-11-09_16h34.04.648,leap3,2022.2.5,60.06600144450393,
,,,,,,,,,,,,,,,,,,,,12,0,12,0,27,0,27,0,,,,,,frose,nw,h,lower,,,,,,,1,nw,HiDemTar,None,h,1,1.4547134758904576,None,,,,,,,,,,,,,,,,,,,301,2023-11-09_16h34.04.648,leap3,2022.2.5,60.06600144450393,
,,,,,,,,,,,,,,,,,,,,12,0,12,0,28,0,28,0,,,,,,cheathe,nw,h,lower,,,,,,,1,nw,HiDemTar,None,h,1,0.8669216765556484,None,,,,,,,,,,,,,,,,,,,301,2023-11-09_16h34.04.648,leap3,2022.2.5,60.06600144450393,
,,,,,,,,,,,,,,,,,,,,12,0,12,0,29,0,29,0,,,,,,primal,w,g,lower,,,,,,,1,nw,HiDemTar,None,g,1,1.2066574248019606,None,,,,,,,,,,,,,,,,,,,301,2023-11-09_16h34.04.648,leap3,2022.2.5,60.06600144450393,
,,,,,,,,,,,,,,,,,,,,12,0,12,0,,,,,,,,,,,,,,,,,,,,,,,,,,,,,,,,,,,,,,,,,,,,,,301,2023-11-09_16h34.04.648,leap3,2022.2.5,60.06600144450393,
,,,,,,,,,,,,,,,,,,,,13,0,13,0,0,0,0,0,,,,,,attended,w,g,upper,,,,,,,3,w,LoDemNoTar,None,g,1,1.196401267312467,None,,,,,,,,,,,,,,,,,,,301,2023-11-09_16h34.04.648,leap3,2022.2.5,60.06600144450393,
,,,,,,,,,,,,,,,,,,,,13,0,13,0,1,0,1,0,,,,,,frunted,nw,h,upper,,,,,,,3,nw,LoDemNoTar,None,h,1,0.6830302563030273,None,,,,,,,,,,,,,,,,,,,301,2023-11-09_16h34.04.648,leap3,2022.2.5,60.06600144450393,
,,,,,,,,,,,,,,,,,,,,13,0,13,0,2,0,2,0,,,,,,curtail,w,g,upper,,,,,,,3,w,LoDemNoTar,None,g,1,1.1162718727719039,None,,,,,,,,,,,,,,,,,,,301,2023-11-09_16h34.04.648,leap3,2022.2.5,60.06600144450393,
,,,,,,,,,,,,,,,,,,,,13,0,13,0,3,0,3,0,,,,,,babies,w,g,upper,,,,,,,3,w,LoDemNoTar,None,g,1,0.9685006395447999,None,,,,,,,,,,,,,,,,,,,301,2023-11-09_16h34.04.648,leap3,2022.2.5,60.06600144450393,
,,,,,,,,,,,,,,,,,,,,13,0,13,0,4,0,4,0,,,,,,cabinet,w,g,upper,,,,,,,3,w,LoDemNoTar,None,g,1,0.6720861396752298,None,,,,,,,,,,,,,,,,,,,301,2023-11-09_16h34.04.648,leap3,2022.2.5,60.06600144450393,
,,,,,,,,,,,,,,,,,,,,13,0,13,0,5,0,5,0,,,,,,giving,w,g,upper,,,,,,,3,w,LoDemNoTar,None,g,1,0.659967724699527,None,,,,,,,,,,,,,,,,,,,301,2023-11-09_16h34.04.648,leap3,2022.2.5,60.06600144450393,
,,,,,,,,,,,,,,,,,,,,13,0,13,0,6,0,6,0,,,,,,carony,nw,h,upper,,,,,,,3,nw,LoDemNoTar,None,h,1,0.7430320375133306,None,,,,,,,,,,,,,,,,,,,301,2023-11-09_16h34.04.648,leap3,2022.2.5,60.06600144450393,
,,,,,,,,,,,,,,,,,,,,13,0,13,0,7,0,7,0,,,,,,fomrade,nw,h,upper,,,,,,,3,nw,LoDemNoTar,None,h,1,1.0557996439747512,None,,,,,,,,,,,,,,,,,,,301,2023-11-09_16h34.04.648,leap3,2022.2.5,60.06600144450393,
,,,,,,,,,,,,,,,,,,,,13,0,13,0,8,0,8,0,,,,,,result,w,g,upper,,,,,,,3,w,LoDemNoTar,None,g,1,0.835816839709878,None,,,,,,,,,,,,,,,,,,,301,2023-11-09_16h34.04.648,leap3,2022.2.5,60.06600144450393,
,,,,,,,,,,,,,,,,,,,,13,0,13,0,9,0,9,0,,,,,,bluads,nw,h,upper,,,,,,,3,nw,LoDemNoTar,None,h,1,1.0412740330211818,None,,,,,,,,,,,,,,,,,,,301,2023-11-09_16h34.04.648,leap3,2022.2.5,60.06600144450393,
,,,,,,,,,,,,,,,,,,,,13,0,13,0,10,0,10,0,,,,,,buzzer,w,g,upper,,,,,,,3,w,LoDemNoTar,None,g,1,0.7099477446172386,None,,,,,,,,,,,,,,,,,,,301,2023-11-09_16h34.04.648,leap3,2022.2.5,60.06600144450393,
,,,,,,,,,,,,,,,,,,,,13,0,13,0,11,0,11,0,,,,,,huntry,nw,h,upper,,,,,,,3,nw,LoDemNoTar,None,h,1,1.7920327582396567,None,,,,,,,,,,,,,,,,,,,301,2023-11-09_16h34.04.648,leap3,2022.2.5,60.06600144450393,
,,,,,,,,,,,,,,,,,,,,13,0,13,0,12,0,12,0,,,,,,praiged,nw,h,upper,,,,,,,3,nw,LoDemNoTar,None,h,1,0.8627078426070511,None,,,,,,,,,,,,,,,,,,,301,2023-11-09_16h34.04.648,leap3,2022.2.5,60.06600144450393,
,,,,,,,,,,,,,,,,,,,,13,0,13,0,13,0,13,0,,,,,,attrove,nw,h,upper,,,,,,,3,nw,LoDemNoTar,None,h,1,0.7947147404775023,None,,,,,,,,,,,,,,,,,,,301,2023-11-09_16h34.04.648,leap3,2022.2.5,60.06600144450393,
,,,,,,,,,,,,,,,,,,,,13,0,13,0,14,0,14,0,,,,,,egcused,nw,h,upper,,,,,,,3,nw,LoDemNoTar,None,h,1,0.9764191252179444,None,,,,,,,,,,,,,,,,,,,301,2023-11-09_16h34.04.648,leap3,2022.2.5,60.06600144450393,
,,,,,,,,,,,,,,,,,,,,13,0,13,0,15,0,15,0,,,,,,migmarole,nw,h,upper,,,,,,,3,nw,LoDemNoTar,None,h,1,0.9998643717262894,None,,,,,,,,,,,,,,,,,,,301,2023-11-09_16h34.04.648,leap3,2022.2.5,60.06600144450393,
,,,,,,,,,,,,,,,,,,,,13,0,13,0,16,0,16,0,,,,,,blueberry,w,g,upper,,,,,,,3,w,LoDemNoTar,None,g,1,1.3665977264754474,None,,,,,,,,,,,,,,,,,,,301,2023-11-09_16h34.04.648,leap3,2022.2.5,60.06600144450393,
,,,,,,,,,,,,,,,,,,,,13,0,13,0,17,0,17,0,,,,,,neliefs,nw,h,upper,,,,,,,3,nw,LoDemNoTar,None,h,1,1.0386337651871145,None,,,,,,,,,,,,,,,,,,,301,2023-11-09_16h34.04.648,leap3,2022.2.5,60.06600144450393,
,,,,,,,,,,,,,,,,,,,,13,0,13,0,18,0,18,0,,,,,,dealer,w,g,upper,,,,,,,3,w,LoDemNoTar,None,g,1,1.043331952067092,None,,,,,,,,,,,,,,,,,,,301,2023-11-09_16h34.04.648,leap3,2022.2.5,60.06600144450393,
,,,,,,,,,,,,,,,,,,,,13,0,13,0,19,0,19,0,,,,,,talent,w,g,upper,,,,,,,3,w,LoDemNoTar,None,g,1,0.6400668926071376,None,,,,,,,,,,,,,,,,,,,301,2023-11-09_16h34.04.648,leap3,2022.2.5,60.06600144450393,
,,,,,,,,,,,,,,,,,,,,13,0,13,0,20,0,20,0,,,,,,cartles,nw,h,upper,,,,,,,3,nw,LoDemNoTar,None,h,1,1.5807358555030078,None,,,,,,,,,,,,,,,,,,,301,2023-11-09_16h34.04.648,leap3,2022.2.5,60.06600144450393,
,,,,,,,,,,,,,,,,,,,,13,0,13,0,21,0,21,0,,,,,,chemical,w,g,upper,,,,,,,3,w,LoDemNoTar,None,g,1,0.795309669803828,None,,,,,,,,,,,,,,,,,,,301,2023-11-09_16h34.04.648,leap3,2022.2.5,60.06600144450393,
,,,,,,,,,,,,,,,,,,,,13,0,13,0,22,0,22,0,,,,,,ronvince,nw,h,upper,,,,,,,3,nw,LoDemNoTar,None,h,1,0.7704557287506759,None,,,,,,,,,,,,,,,,,,,301,2023-11-09_16h34.04.648,leap3,2022.2.5,60.06600144450393,
,,,,,,,,,,,,,,,,,,,,13,0,13,0,23,0,23,0,,,,,,acorn,w,g,upper,,,,,,,3,w,LoDemNoTar,None,g,1,0.7857901391107589,None,,,,,,,,,,,,,,,,,,,301,2023-11-09_16h34.04.648,leap3,2022.2.5,60.06600144450393,
,,,,,,,,,,,,,,,,,,,,13,0,13,0,24,0,24,0,,,,,,confined,w,g,upper,,,,,,,3,w,LoDemNoTar,None,g,1,1.080848584184423,None,,,,,,,,,,,,,,,,,,,301,2023-11-09_16h34.04.648,leap3,2022.2.5,60.06600144450393,
,,,,,,,,,,,,,,,,,,,,13,0,13,0,25,0,25,0,,,,,,define,w,g,upper,,,,,,,3,w,LoDemNoTar,None,g,1,0.9716447927057743,None,,,,,,,,,,,,,,,,,,,301,2023-11-09_16h34.04.648,leap3,2022.2.5,60.06600144450393,
,,,,,,,,,,,,,,,,,,,,13,0,13,0,26,0,26,0,,,,,,nogwhell,nw,h,upper,,,,,,,3,nw,LoDemNoTar,None,h,1,1.6433335412293673,None,,,,,,,,,,,,,,,,,,,301,2023-11-09_16h34.04.648,leap3,2022.2.5,60.06600144450393,
,,,,,,,,,,,,,,,,,,,,13,0,13,0,27,0,27,0,,,,,,affluent,w,g,upper,,,,,,,3,w,LoDemNoTar,None,h,0,0.5439866392407566,None,,,,,,,,,,,,,,,,,,,301,2023-11-09_16h34.04.648,leap3,2022.2.5,60.06600144450393,
,,,,,,,,,,,,,,,,,,,,13,0,13,0,28,0,28,0,,,,,,erithets,nw,h,upper,,,,,,,3,nw,LoDemNoTar,None,h,1,0.8487440540920943,None,,,,,,,,,,,,,,,,,,,301,2023-11-09_16h34.04.648,leap3,2022.2.5,60.06600144450393,
,,,,,,,,,,,,,,,,,,,,13,0,13,0,29,0,29,0,,,,,,apop,nw,h,upper,,,,,,,3,nw,LoDemNoTar,None,h,1,0.9005029026884586,None,,,,,,,,,,,,,,,,,,,301,2023-11-09_16h34.04.648,leap3,2022.2.5,60.06600144450393,
,,,,,,,,,,,,,,,,,,,,13,0,13,0,,,,,,,,,,,,,,,,,,,,,,,,,,,,,,,,,,,,,,,,,,,,,,301,2023-11-09_16h34.04.648,leap3,2022.2.5,60.06600144450393,
,,,,,,,,,,,,,,,,,,,,14,0,14,0,0,0,0,0,,,,,,fullity,nw,h,upper,,,,,,,3,nw,LoDemNoTar,None,h,1,1.3113186312839389,None,,,,,,,,,,,,,,,,,,,301,2023-11-09_16h34.04.648,leap3,2022.2.5,60.06600144450393,
,,,,,,,,,,,,,,,,,,,,14,0,14,0,1,0,1,0,,,,,,maximized,w,g,upper,,,,,,,3,w,LoDemNoTar,None,g,1,0.9133831055369228,None,,,,,,,,,,,,,,,,,,,301,2023-11-09_16h34.04.648,leap3,2022.2.5,60.06600144450393,
,,,,,,,,,,,,,,,,,,,,14,0,14,0,2,0,2,0,,,,,,redefloy,nw,h,upper,,,,,,,3,nw,LoDemNoTar,None,h,1,1.3154636032413691,None,,,,,,,,,,,,,,,,,,,301,2023-11-09_16h34.04.648,leap3,2022.2.5,60.06600144450393,
,,,,,,,,,,,,,,,,,,,,14,0,14,0,3,0,3,0,,,,,,desert,w,g,upper,,,,,,,3,w,LoDemNoTar,None,g,1,0.7734797045122832,None,,,,,,,,,,,,,,,,,,,301,2023-11-09_16h34.04.648,leap3,2022.2.5,60.06600144450393,
,,,,,,,,,,,,,,,,,,,,14,0,14,0,4,0,4,0,,,,,,neuran,nw,h,upper,,,,,,,3,nw,LoDemNoTar,None,h,1,0.9718755471985787,None,,,,,,,,,,,,,,,,,,,301,2023-11-09_16h34.04.648,leap3,2022.2.5,60.06600144450393,
,,,,,,,,,,,,,,,,,,,,14,0,14,0,5,0,5,0,,,,,,combat,w,g,upper,,,,,,,3,w,LoDemNoTar,None,g,1,0.9232502577360719,None,,,,,,,,,,,,,,,,,,,301,2023-11-09_16h34.04.648,leap3,2022.2.5,60.06600144450393,
,,,,,,,,,,,,,,,,,,,,14,0,14,0,6,0,6,0,,,,,,chight,nw,h,upper,,,,,,,3,nw,LoDemNoTar,None,h,1,1.2126140012405813,None,,,,,,,,,,,,,,,,,,,301,2023-11-09_16h34.04.648,leap3,2022.2.5,60.06600144450393,
,,,,,,,,,,,,,,,,,,,,14,0,14,0,7,0,7,0,,,,,,asthmatic,w,g,upper,,,,,,,3,w,LoDemNoTar,None,g,1,0.7946472028270364,None,,,,,,,,,,,,,,,,,,,301,2023-11-09_16h34.04.648,leap3,2022.2.5,60.06600144450393,
,,,,,,,,,,,,,,,,,,,,14,0,14,0,8,0,8,0,,,,,,seeming,w,g,upper,,,,,,,3,w,LoDemNoTar,None,g,1,0.665422401856631,None,,,,,,,,,,,,,,,,,,,301,2023-11-09_16h34.04.648,leap3,2022.2.5,60.06600144450393,
,,,,,,,,,,,,,,,,,,,,14,0,14,0,9,0,9,0,,,,,,penalize,w,g,upper,,,,,,,3,w,LoDemNoTar,None,g,1,1.7094842493534088,None,,,,,,,,,,,,,,,,,,,301,2023-11-09_16h34.04.648,leap3,2022.2.5,60.06600144450393,
,,,,,,,,,,,,,,,,,,,,14,0,14,0,10,0,10,0,,,,,,sprea,nw,h,upper,,,,,,,3,nw,LoDemNoTar,None,h,1,0.8874512065667659,None,,,,,,,,,,,,,,,,,,,301,2023-11-09_16h34.04.648,leap3,2022.2.5,60.06600144450393,
,,,,,,,,,,,,,,,,,,,,14,0,14,0,11,0,11,0,,,,,,throttle,w,g,upper,,,,,,,3,w,LoDemNoTar,None,g,1,0.9372627132106572,None,,,,,,,,,,,,,,,,,,,301,2023-11-09_16h34.04.648,leap3,2022.2.5,60.06600144450393,
,,,,,,,,,,,,,,,,,,,,14,0,14,0,12,0,12,0,,,,,,menarthe,nw,h,upper,,,,,,,3,nw,LoDemNoTar,None,h,1,0.8817872945219278,None,,,,,,,,,,,,,,,,,,,301,2023-11-09_16h34.04.648,leap3,2022.2.5,60.06600144450393,
,,,,,,,,,,,,,,,,,,,,14,0,14,0,13,0,13,0,,,,,,inversion,w,g,upper,,,,,,,3,w,LoDemNoTar,None,g,1,0.9732114069629461,None,,,,,,,,,,,,,,,,,,,301,2023-11-09_16h34.04.648,leap3,2022.2.5,60.06600144450393,
,,,,,,,,,,,,,,,,,,,,14,0,14,0,14,0,14,0,,,,,,implode,w,g,upper,,,,,,,3,w,LoDemNoTar,None,g,1,0.7558943624608219,None,,,,,,,,,,,,,,,,,,,301,2023-11-09_16h34.04.648,leap3,2022.2.5,60.06600144450393,
,,,,,,,,,,,,,,,,,,,,14,0,14,0,15,0,15,0,,,,,,measure,w,g,upper,,,,,,,3,w,LoDemNoTar,None,g,1,0.7081291878130287,None,,,,,,,,,,,,,,,,,,,301,2023-11-09_16h34.04.648,leap3,2022.2.5,60.06600144450393,
,,,,,,,,,,,,,,,,,,,,14,0,14,0,16,0,16,0,,,,,,chappef,nw,h,upper,,,,,,,3,nw,LoDemNoTar,None,h,1,0.7594169266521931,None,,,,,,,,,,,,,,,,,,,301,2023-11-09_16h34.04.648,leap3,2022.2.5,60.06600144450393,
,,,,,,,,,,,,,,,,,,,,14,0,14,0,17,0,17,0,,,,,,eaglot,nw,h,upper,,,,,,,3,nw,LoDemNoTar,None,h,1,1.2235316324513406,None,,,,,,,,,,,,,,,,,,,301,2023-11-09_16h34.04.648,leap3,2022.2.5,60.06600144450393,
,,,,,,,,,,,,,,,,,,,,14,0,14,0,18,0,18,0,,,,,,sefraud,nw,h,upper,,,,,,,3,nw,LoDemNoTar,None,h,1,0.7009350790176541,None,,,,,,,,,,,,,,,,,,,301,2023-11-09_16h34.04.648,leap3,2022.2.5,60.06600144450393,
,,,,,,,,,,,,,,,,,,,,14,0,14,0,19,0,19,0,,,,,,geborn,nw,h,upper,,,,,,,3,nw,LoDemNoTar,None,h,1,0.6388575010932982,None,,,,,,,,,,,,,,,,,,,301,2023-11-09_16h34.04.648,leap3,2022.2.5,60.06600144450393,
,,,,,,,,,,,,,,,,,,,,14,0,14,0,20,0,20,0,,,,,,machinery,w,g,upper,,,,,,,3,w,LoDemNoTar,None,g,1,0.7705348541494459,None,,,,,,,,,,,,,,,,,,,301,2023-11-09_16h34.04.648,leap3,2022.2.5,60.06600144450393,
,,,,,,,,,,,,,,,,,,,,14,0,14,0,21,0,21,0,,,,,,nature,w,g,upper,,,,,,,3,w,LoDemNoTar,None,g,1,0.6819526297040284,None,,,,,,,,,,,,,,,,,,,301,2023-11-09_16h34.04.648,leap3,2022.2.5,60.06600144450393,
,,,,,,,,,,,,,,,,,,,,14,0,14,0,22,0,22,0,,,,,,pexts,nw,h,upper,,,,,,,3,nw,LoDemNoTar,None,h,1,0.76531689055264,None,,,,,,,,,,,,,,,,,,,301,2023-11-09_16h34.04.648,leap3,2022.2.5,60.06600144450393,
,,,,,,,,,,,,,,,,,,,,14,0,14,0,23,0,23,0,,,,,,enacted,w,g,upper,,,,,,,3,w,LoDemNoTar,None,g,1,0.9733497933484614,None,,,,,,,,,,,,,,,,,,,301,2023-11-09_16h34.04.648,leap3,2022.2.5,60.06600144450393,
,,,,,,,,,,,,,,,,,,,,14,0,14,0,24,0,24,0,,,,,,guitar,w,g,upper,,,,,,,3,w,LoDemNoTar,None,g,1,0.8927065811585635,None,,,,,,,,,,,,,,,,,,,301,2023-11-09_16h34.04.648,leap3,2022.2.5,60.06600144450393,
,,,,,,,,,,,,,,,,,,,,14,0,14,0,25,0,25,0,,,,,,draze,nw,h,upper,,,,,,,3,nw,LoDemNoTar,None,h,1,0.9114589379169047,None,,,,,,,,,,,,,,,,,,,301,2023-11-09_16h34.04.648,leap3,2022.2.5,60.06600144450393,
,,,,,,,,,,,,,,,,,,,,14,0,14,0,26,0,26,0,,,,,,lindo,nw,h,upper,,,,,,,3,nw,LoDemNoTar,None,h,1,2.5535366281401366,None,,,,,,,,,,,,,,,,,,,301,2023-11-09_16h34.04.648,leap3,2022.2.5,60.06600144450393,
,,,,,,,,,,,,,,,,,,,,14,0,14,0,27,0,27,0,,,,,,terrify,w,g,upper,,,,,,,3,w,LoDemNoTar,None,g,1,0.5454933298751712,None,,,,,,,,,,,,,,,,,,,301,2023-11-09_16h34.04.648,leap3,2022.2.5,60.06600144450393,
,,,,,,,,,,,,,,,,,,,,14,0,14,0,28,0,28,0,,,,,,parlayid,nw,h,upper,,,,,,,3,nw,LoDemNoTar,None,h,1,1.169993293005973,None,,,,,,,,,,,,,,,,,,,301,2023-11-09_16h34.04.648,leap3,2022.2.5,60.06600144450393,
,,,,,,,,,,,,,,,,,,,,14,0,14,0,29,0,29,0,,,,,,squadroim,nw,h,upper,,,,,,,3,nw,LoDemNoTar,None,h,1,2.065417833160609,None,,,,,,,,,,,,,,,,,,,301,2023-11-09_16h34.04.648,leap3,2022.2.5,60.06600144450393,
,,,,,,,,,,,,,,,,,,,,14,0,14,0,,,,,,,,,,,,,,,,,,,,,,,,,,,,,,,,,,,,,,,,,,,,,,301,2023-11-09_16h34.04.648,leap3,2022.2.5,60.06600144450393,
,,,,,,,,,,,,,,,,,,,,15,0,15,0,0,0,0,0,,,,,,thamp,nw,h,lower,,,,,,,1,nw,HiDemTar,None,h,1,0.9501746983733028,None,,,,,,,,,,,,,,,,,,,301,2023-11-09_16h34.04.648,leap3,2022.2.5,60.06600144450393,
,,,,,,,,,,,,,,,,,,,,15,0,15,0,1,0,1,0,,,,,,prawls,nw,h,lower,,,,,,,1,nw,HiDemTar,None,h,1,0.6868554165121168,None,,,,,,,,,,,,,,,,,,,301,2023-11-09_16h34.04.648,leap3,2022.2.5,60.06600144450393,
,,,,,,,,,,,,,,,,,,,,15,0,15,0,2,0,2,0,,,,,,clattest,nw,h,lower,,,,,,,1,nw,HiDemTar,None,h,1,4.992779184365645,None,,,,,,,,,,,,,,,,,,,301,2023-11-09_16h34.04.648,leap3,2022.2.5,60.06600144450393,
,,,,,,,,,,,,,,,,,,,,15,0,15,0,3,0,3,0,,,,,,gumdrep,nw,h,lower,,,,,,,1,nw,HiDemTar,None,h,1,1.0873841985594481,None,,,,,,,,,,,,,,,,,,,301,2023-11-09_16h34.04.648,leap3,2022.2.5,60.06600144450393,
,,,,,,,,,,,,,,,,,,,,15,0,15,0,4,0,4,0,,,,,,pariah,w,g,lower,,,,,,,1,w,HiDemTar,None,h,0,0.9381652048323303,None,,,,,,,,,,,,,,,,,,,301,2023-11-09_16h34.04.648,leap3,2022.2.5,60.06600144450393,
,,,,,,,,,,,,,,,,,,,,15,0,15,0,5,0,5,0,,,,,,bypassed,w,g,lower,,,,,,,1,w,HiDemTar,None,g,1,0.7629087015520781,None,,,,,,,,,,,,,,,,,,,301,2023-11-09_16h34.04.648,leap3,2022.2.5,60.06600144450393,
,,,,,,,,,,,,,,,,,,,,15,0,15,0,6,0,6,0,,,,,,paterways,nw,h,lower,,,,,,,1,nw,HiDemTar,None,h,1,1.0509587668348104,None,,,,,,,,,,,,,,,,,,,301,2023-11-09_16h34.04.648,leap3,2022.2.5,60.06600144450393,
,,,,,,,,,,,,,,,,,,,,15,0,15,0,7,0,7,0,,,,,,pircus,nw,h,lower,,,,,,,1,nw,HiDemTar,None,h,1,0.7740130550228059,None,,,,,,,,,,,,,,,,,,,301,2023-11-09_16h34.04.648,leap3,2022.2.5,60.06600144450393,
,,,,,,,,,,,,,,,,,,,,15,0,15,0,8,0,8,0,,,,,,rocket,w,g,lower,,,,,,,1,w,HiDemTar,None,h,0,0.8773701845202595,None,,,,,,,,,,,,,,,,,,,301,2023-11-09_16h34.04.648,leap3,2022.2.5,60.06600144450393,
,,,,,,,,,,,,,,,,,,,,15,0,15,0,9,0,9,0,,,,,,thesis,w,g,lower,,,,,,,1,w,HiDemTar,None,g,1,0.6727731057908386,None,,,,,,,,,,,,,,,,,,,301,2023-11-09_16h34.04.648,leap3,2022.2.5,60.06600144450393,
,,,,,,,,,,,,,,,,,,,,15,0,15,0,10,0,10,0,,,,,,thrapping,nw,h,lower,,,,,,,1,nw,HiDemTar,None,h,1,0.7801096732728183,None,,,,,,,,,,,,,,,,,,,301,2023-11-09_16h34.04.648,leap3,2022.2.5,60.06600144450393,
,,,,,,,,,,,,,,,,,,,,15,0,15,0,11,0,11,0,,,,,,runabouk,nw,h,lower,,,,,,,1,nw,HiDemTar,None,h,1,0.7877341706771404,None,,,,,,,,,,,,,,,,,,,301,2023-11-09_16h34.04.648,leap3,2022.2.5,60.06600144450393,
,,,,,,,,,,,,,,,,,,,,15,0,15,0,12,0,12,0,,,,,,caterpillar,target,q,lower,,,,,,,1,target,HiDemTar,None,g,0,0.8184380840975791,None,,,,,,,,,,,,,,,,,,,301,2023-11-09_16h34.04.648,leap3,2022.2.5,60.06600144450393,
