demoRace_loop.thisRepN,demoRace_loop.thisTrialN,demoRace_loop.thisN,demoRace_loop.thisIndex,LDTunderstand.thisRepN,LDTunderstand.thisTrialN,LDTunderstand.thisN,LDTunderstand.thisIndex,pracBlocks.thisRepN,pracBlocks.thisTrialN,pracBlocks.thisN,pracBlocks.thisIndex,pracTrial.thisRepN,pracTrial.thisTrialN,pracTrial.thisN,pracTrial.thisIndex,PMunderstand.thisRepN,PMunderstand.thisTrialN,PMunderstand.thisN,PMunderstand.thisIndex,LDT_block.thisRepN,LDT_block.thisTrialN,LDT_block.thisN,LDT_block.thisIndex,LDT_trial.thisRepN,LDT_trial.thisTrialN,LDT_trial.thisN,LDT_trial.thisIndex,ageTextbox.text,genderTextbox.text,race,raceResp,LDTunderstand,stim,word_type,corr_key,stim_location,LDTpracKey.keys,LDTpracKey.corr,LDTpracKey.rt,PMunderstand,cueTextbox.text,intentionTextbox.text,block_type,role,block_desc,LDTResp.keys,LDTResp.corr,LDTResp.rt,PM_accuracy,pressedQ_late,pressedQ,pressedQ_blank,postQ1,Q2Textbox.text,Q3Textbox.text,Q4,Q5,Q6Key.keys,Q6Key.rt,postQ7_correct,postQ7,Q8Textbox.text,education,medTextbox.text,health,healthLimit,psych,participant,date,expName,psychopyVersion,frameRate,
0,0,0,0,,,,,,,,,,,,,,,,,,,,,,,,,"
20", female,American Indian or Alaska Native,n,,,,,,,,,,,,,,,,,,,,,,,,,,,,,,,,,,,,,302,2023-11-14_10h01.41.368,leap3,2022.2.5,59.93917831064431,
1,0,1,0,,,,,,,,,,,,,,,,,,,,,,,,,,,Asian,y,,,,,,,,,,,,,,,,,,,,,,,,,,,,,,,,,,,,,302,2023-11-14_10h01.41.368,leap3,2022.2.5,59.93917831064431,
2,0,2,0,,,,,,,,,,,,,,,,,,,,,,,,,,,Black or African American,n,,,,,,,,,,,,,,,,,,,,,,,,,,,,,,,,,,,,,302,2023-11-14_10h01.41.368,leap3,2022.2.5,59.93917831064431,
3,0,3,0,,,,,,,,,,,,,,,,,,,,,,,,,,,Native Hawaiian or other Pacific Islander,n,,,,,,,,,,,,,,,,,,,,,,,,,,,,,,,,,,,,,302,2023-11-14_10h01.41.368,leap3,2022.2.5,59.93917831064431,
4,0,4,0,,,,,,,,,,,,,,,,,,,,,,,,,,,White,n,,,,,,,,,,,,,,,,,,,,,,,,,,,,,,,,,,,,,302,2023-11-14_10h01.41.368,leap3,2022.2.5,59.93917831064431,
,,,,0,0,0,0,,,,,,,,,,,,,,,,,,,,,,,,,y,,,,,,,,,,,,,,,,,,,,,,,,,,,,,,,,,,,,302,2023-11-14_10h01.41.368,leap3,2022.2.5,59.93917831064431,
,,,,,,,,0,0,0,0,0,0,0,0,,,,,,,,,,,,,,,,,,revival,w,g,upper,g,1,0.3987444993108511,,,,,,,,,,,,,,,,,,,,,,,,,,,,,302,2023-11-14_10h01.41.368,leap3,2022.2.5,59.93917831064431,
,,,,,,,,0,0,0,0,1,0,1,0,,,,,,,,,,,,,,,,,,curlecs,nw,h,upper,h,1,0.6445823945105076,,,,,,,,,,,,,,,,,,,,,,,,,,,,,302,2023-11-14_10h01.41.368,leap3,2022.2.5,59.93917831064431,
,,,,,,,,0,0,0,0,2,0,2,0,,,,,,,,,,,,,,,,,,lumbigo,nw,h,upper,h,1,0.8255779626779258,,,,,,,,,,,,,,,,,,,,,,,,,,,,,302,2023-11-14_10h01.41.368,leap3,2022.2.5,59.93917831064431,
,,,,,,,,0,0,0,0,3,0,3,0,,,,,,,,,,,,,,,,,,turative,nw,h,upper,g,0,0.5578058152459562,,,,,,,,,,,,,,,,,,,,,,,,,,,,,302,2023-11-14_10h01.41.368,leap3,2022.2.5,59.93917831064431,
,,,,,,,,0,0,0,0,4,0,4,0,,,,,,,,,,,,,,,,,,raestro,nw,h,upper,h,1,0.6053511607460678,,,,,,,,,,,,,,,,,,,,,,,,,,,,,302,2023-11-14_10h01.41.368,leap3,2022.2.5,59.93917831064431,
,,,,,,,,0,0,0,0,5,0,5,0,,,,,,,,,,,,,,,,,,reputable,w,g,upper,g,1,0.44371049385517836,,,,,,,,,,,,,,,,,,,,,,,,,,,,,302,2023-11-14_10h01.41.368,leap3,2022.2.5,59.93917831064431,
,,,,,,,,0,0,0,0,6,0,6,0,,,,,,,,,,,,,,,,,,latador,nw,h,upper,h,1,0.5677408366464078,,,,,,,,,,,,,,,,,,,,,,,,,,,,,302,2023-11-14_10h01.41.368,leap3,2022.2.5,59.93917831064431,
,,,,,,,,0,0,0,0,7,0,7,0,,,,,,,,,,,,,,,,,,picture,w,g,upper,g,1,0.46479191398248076,,,,,,,,,,,,,,,,,,,,,,,,,,,,,302,2023-11-14_10h01.41.368,leap3,2022.2.5,59.93917831064431,
,,,,,,,,0,0,0,0,8,0,8,0,,,,,,,,,,,,,,,,,,overshoot,w,g,upper,g,1,0.5168487238697708,,,,,,,,,,,,,,,,,,,,,,,,,,,,,302,2023-11-14_10h01.41.368,leap3,2022.2.5,59.93917831064431,
,,,,,,,,0,0,0,0,9,0,9,0,,,,,,,,,,,,,,,,,,slumber,w,g,upper,g,1,0.486049794126302,,,,,,,,,,,,,,,,,,,,,,,,,,,,,302,2023-11-14_10h01.41.368,leap3,2022.2.5,59.93917831064431,
,,,,,,,,0,0,0,0,10,0,10,0,,,,,,,,,,,,,,,,,,busted,w,g,upper,g,1,0.5046458868309855,,,,,,,,,,,,,,,,,,,,,,,,,,,,,302,2023-11-14_10h01.41.368,leap3,2022.2.5,59.93917831064431,
,,,,,,,,0,0,0,0,11,0,11,0,,,,,,,,,,,,,,,,,,tricycle,w,g,upper,g,1,0.49070328660309315,,,,,,,,,,,,,,,,,,,,,,,,,,,,,302,2023-11-14_10h01.41.368,leap3,2022.2.5,59.93917831064431,
,,,,,,,,0,0,0,0,12,0,12,0,,,,,,,,,,,,,,,,,,grocus,nw,h,upper,g,0,0.3574229022487998,,,,,,,,,,,,,,,,,,,,,,,,,,,,,302,2023-11-14_10h01.41.368,leap3,2022.2.5,59.93917831064431,
,,,,,,,,0,0,0,0,13,0,13,0,,,,,,,,,,,,,,,,,,julled,nw,h,upper,g,0,0.5176479225046933,,,,,,,,,,,,,,,,,,,,,,,,,,,,,302,2023-11-14_10h01.41.368,leap3,2022.2.5,59.93917831064431,
,,,,,,,,0,0,0,0,,,,,,,,,,,,,,,,,,,,,,,,,,,,,,,,,,,,,,,,,,,,,,,,,,,,,,,,,302,2023-11-14_10h01.41.368,leap3,2022.2.5,59.93917831064431,
,,,,,,,,1,0,1,0,0,0,0,0,,,,,,,,,,,,,,,,,,umpire,w,g,lower,h,0,0.7027685982175171,,,,,,,,,,,,,,,,,,,,,,,,,,,,,302,2023-11-14_10h01.41.368,leap3,2022.2.5,59.93917831064431,
,,,,,,,,1,0,1,0,1,0,1,0,,,,,,,,,,,,,,,,,,hasking,nw,h,lower,g,0,0.4633805709891021,,,,,,,,,,,,,,,,,,,,,,,,,,,,,302,2023-11-14_10h01.41.368,leap3,2022.2.5,59.93917831064431,
,,,,,,,,1,0,1,0,2,0,2,0,,,,,,,,,,,,,,,,,,treeps,nw,h,lower,g,0,0.604944278486073,,,,,,,,,,,,,,,,,,,,,,,,,,,,,302,2023-11-14_10h01.41.368,leap3,2022.2.5,59.93917831064431,
,,,,,,,,1,0,1,0,3,0,3,0,,,,,,,,,,,,,,,,,,trotch,nw,h,lower,h,1,0.8269770559854805,,,,,,,,,,,,,,,,,,,,,,,,,,,,,302,2023-11-14_10h01.41.368,leap3,2022.2.5,59.93917831064431,
,,,,,,,,1,0,1,0,4,0,4,0,,,,,,,,,,,,,,,,,,alolition,nw,h,lower,g,0,0.7913822741247714,,,,,,,,,,,,,,,,,,,,,,,,,,,,,302,2023-11-14_10h01.41.368,leap3,2022.2.5,59.93917831064431,
,,,,,,,,1,0,1,0,5,0,5,0,,,,,,,,,,,,,,,,,,infinity,w,g,lower,g,1,0.5579375806264579,,,,,,,,,,,,,,,,,,,,,,,,,,,,,302,2023-11-14_10h01.41.368,leap3,2022.2.5,59.93917831064431,
,,,,,,,,1,0,1,0,6,0,6,0,,,,,,,,,,,,,,,,,,lurshing,nw,h,lower,h,1,0.8220431488007307,,,,,,,,,,,,,,,,,,,,,,,,,,,,,302,2023-11-14_10h01.41.368,leap3,2022.2.5,59.93917831064431,
,,,,,,,,1,0,1,0,7,0,7,0,,,,,,,,,,,,,,,,,,hiring,w,g,lower,g,1,0.5155555722303689,,,,,,,,,,,,,,,,,,,,,,,,,,,,,302,2023-11-14_10h01.41.368,leap3,2022.2.5,59.93917831064431,
,,,,,,,,1,0,1,0,8,0,8,0,,,,,,,,,,,,,,,,,,grimace,w,g,lower,g,1,0.5496168467216194,,,,,,,,,,,,,,,,,,,,,,,,,,,,,302,2023-11-14_10h01.41.368,leap3,2022.2.5,59.93917831064431,
,,,,,,,,1,0,1,0,9,0,9,0,,,,,,,,,,,,,,,,,,unscrew,w,g,lower,g,1,0.5262666172347963,,,,,,,,,,,,,,,,,,,,,,,,,,,,,302,2023-11-14_10h01.41.368,leap3,2022.2.5,59.93917831064431,
,,,,,,,,1,0,1,0,10,0,10,0,,,,,,,,,,,,,,,,,,summary,w,g,lower,g,1,0.3509359541349113,,,,,,,,,,,,,,,,,,,,,,,,,,,,,302,2023-11-14_10h01.41.368,leap3,2022.2.5,59.93917831064431,
,,,,,,,,1,0,1,0,11,0,11,0,,,,,,,,,,,,,,,,,,sponsor,w,g,lower,g,1,0.3347301729954779,,,,,,,,,,,,,,,,,,,,,,,,,,,,,302,2023-11-14_10h01.41.368,leap3,2022.2.5,59.93917831064431,
,,,,,,,,1,0,1,0,12,0,12,0,,,,,,,,,,,,,,,,,,grutch,nw,h,lower,g,0,0.3671814640983939,,,,,,,,,,,,,,,,,,,,,,,,,,,,,302,2023-11-14_10h01.41.368,leap3,2022.2.5,59.93917831064431,
,,,,,,,,1,0,1,0,13,0,13,0,,,,,,,,,,,,,,,,,,crinklo,nw,h,lower,h,1,0.5989032792858779,,,,,,,,,,,,,,,,,,,,,,,,,,,,,302,2023-11-14_10h01.41.368,leap3,2022.2.5,59.93917831064431,
,,,,,,,,1,0,1,0,,,,,,,,,,,,,,,,,,,,,,,,,,,,,,,,,,,,,,,,,,,,,,,,,,,,,,,,,302,2023-11-14_10h01.41.368,leap3,2022.2.5,59.93917831064431,
,,,,,,,,,,,,,,,,0,0,0,0,,,,,,,,,,,,,,,,,,,,,y,,,,,,,,,,,,,,,,,,,,,,,,,,,,302,2023-11-14_10h01.41.368,leap3,2022.2.5,59.93917831064431,
,,,,,,,,,,,,,,,,,,,,0,0,0,0,0,0,0,0,,,,,,nelvet,nw,h,lower,,,,,"animal
",q,3,nw,LoDemNoTar,h,1,0.80424824077636,,,,,,,,,,,,,,,,,,,,302,2023-11-14_10h01.41.368,leap3,2022.2.5,59.93917831064431,
,,,,,,,,,,,,,,,,,,,,0,0,0,0,1,0,1,0,,,,,,recipus,nw,h,lower,,,,,,,3,nw,LoDemNoTar,h,1,0.8741456461139023,,,,,,,,,,,,,,,,,,,,302,2023-11-14_10h01.41.368,leap3,2022.2.5,59.93917831064431,
,,,,,,,,,,,,,,,,,,,,0,0,0,0,2,0,2,0,,,,,,godomy,nw,h,lower,,,,,,,3,nw,LoDemNoTar,h,1,0.6537596010603011,,,,,,,,,,,,,,,,,,,,302,2023-11-14_10h01.41.368,leap3,2022.2.5,59.93917831064431,
,,,,,,,,,,,,,,,,,,,,0,0,0,0,3,0,3,0,,,,,,implode,w,g,lower,,,,,,,3,w,LoDemNoTar,g,1,0.6186862513422966,,,,,,,,,,,,,,,,,,,,302,2023-11-14_10h01.41.368,leap3,2022.2.5,59.93917831064431,
,,,,,,,,,,,,,,,,,,,,0,0,0,0,4,0,4,0,,,,,,cherry,w,g,lower,,,,,,,3,w,LoDemNoTar,g,1,1.0487621943466365,,,,,,,,,,,,,,,,,,,,302,2023-11-14_10h01.41.368,leap3,2022.2.5,59.93917831064431,
,,,,,,,,,,,,,,,,,,,,0,0,0,0,5,0,5,0,,,,,,miurnal,nw,h,lower,,,,,,,3,nw,LoDemNoTar,h,1,0.8461319915950298,,,,,,,,,,,,,,,,,,,,302,2023-11-14_10h01.41.368,leap3,2022.2.5,59.93917831064431,
,,,,,,,,,,,,,,,,,,,,0,0,0,0,6,0,6,0,,,,,,sooled,nw,h,lower,,,,,,,3,nw,LoDemNoTar,h,1,0.8435231749899685,,,,,,,,,,,,,,,,,,,,302,2023-11-14_10h01.41.368,leap3,2022.2.5,59.93917831064431,
,,,,,,,,,,,,,,,,,,,,0,0,0,0,7,0,7,0,,,,,,tibs,nw,h,lower,,,,,,,3,nw,LoDemNoTar,h,1,0.744926804676652,,,,,,,,,,,,,,,,,,,,302,2023-11-14_10h01.41.368,leap3,2022.2.5,59.93917831064431,
,,,,,,,,,,,,,,,,,,,,0,0,0,0,8,0,8,0,,,,,,haurded,nw,h,lower,,,,,,,3,nw,LoDemNoTar,h,1,0.6902721035294235,,,,,,,,,,,,,,,,,,,,302,2023-11-14_10h01.41.368,leap3,2022.2.5,59.93917831064431,
,,,,,,,,,,,,,,,,,,,,0,0,0,0,9,0,9,0,,,,,,culinary,w,g,lower,,,,,,,3,w,LoDemNoTar,g,1,0.6217764406464994,,,,,,,,,,,,,,,,,,,,302,2023-11-14_10h01.41.368,leap3,2022.2.5,59.93917831064431,
,,,,,,,,,,,,,,,,,,,,0,0,0,0,10,0,10,0,,,,,,arcients,nw,h,lower,,,,,,,3,nw,LoDemNoTar,h,1,0.8987837308086455,,,,,,,,,,,,,,,,,,,,302,2023-11-14_10h01.41.368,leap3,2022.2.5,59.93917831064431,
,,,,,,,,,,,,,,,,,,,,0,0,0,0,11,0,11,0,,,,,,irregular,w,g,lower,,,,,,,3,w,LoDemNoTar,g,1,0.7101322137750685,,,,,,,,,,,,,,,,,,,,302,2023-11-14_10h01.41.368,leap3,2022.2.5,59.93917831064431,
,,,,,,,,,,,,,,,,,,,,0,0,0,0,12,0,12,0,,,,,,tycoon,w,g,lower,,,,,,,3,w,LoDemNoTar,g,1,1.1288366322405636,,,,,,,,,,,,,,,,,,,,302,2023-11-14_10h01.41.368,leap3,2022.2.5,59.93917831064431,
,,,,,,,,,,,,,,,,,,,,0,0,0,0,13,0,13,0,,,,,,combat,w,g,lower,,,,,,,3,w,LoDemNoTar,g,1,1.15485527087003,,,,,,,,,,,,,,,,,,,,302,2023-11-14_10h01.41.368,leap3,2022.2.5,59.93917831064431,
,,,,,,,,,,,,,,,,,,,,0,0,0,0,14,0,14,0,,,,,,destroy,w,g,lower,,,,,,,3,w,LoDemNoTar,g,1,0.9555023103021085,,,,,,,,,,,,,,,,,,,,302,2023-11-14_10h01.41.368,leap3,2022.2.5,59.93917831064431,
,,,,,,,,,,,,,,,,,,,,0,0,0,0,15,0,15,0,,,,,,corduroy,w,g,lower,,,,,,,3,w,LoDemNoTar,g,1,1.2043214733712375,,,,,,,,,,,,,,,,,,,,302,2023-11-14_10h01.41.368,leap3,2022.2.5,59.93917831064431,
,,,,,,,,,,,,,,,,,,,,0,0,0,0,16,0,16,0,,,,,,mogus,nw,h,lower,,,,,,,3,nw,LoDemNoTar,h,1,0.7149151545017958,,,,,,,,,,,,,,,,,,,,302,2023-11-14_10h01.41.368,leap3,2022.2.5,59.93917831064431,
,,,,,,,,,,,,,,,,,,,,0,0,0,0,17,0,17,0,,,,,,huntry,nw,h,lower,,,,,,,3,nw,LoDemNoTar,h,1,0.6695697559043765,,,,,,,,,,,,,,,,,,,,302,2023-11-14_10h01.41.368,leap3,2022.2.5,59.93917831064431,
,,,,,,,,,,,,,,,,,,,,0,0,0,0,18,0,18,0,,,,,,brighten,w,g,lower,,,,,,,3,w,LoDemNoTar,g,1,0.7288388833403587,,,,,,,,,,,,,,,,,,,,302,2023-11-14_10h01.41.368,leap3,2022.2.5,59.93917831064431,
,,,,,,,,,,,,,,,,,,,,0,0,0,0,19,0,19,0,,,,,,bamps,nw,h,lower,,,,,,,3,nw,LoDemNoTar,h,1,0.7947783698327839,,,,,,,,,,,,,,,,,,,,302,2023-11-14_10h01.41.368,leap3,2022.2.5,59.93917831064431,
,,,,,,,,,,,,,,,,,,,,0,0,0,0,20,0,20,0,,,,,,acting,w,g,lower,,,,,,,3,w,LoDemNoTar,g,1,0.690055585000664,,,,,,,,,,,,,,,,,,,,302,2023-11-14_10h01.41.368,leap3,2022.2.5,59.93917831064431,
,,,,,,,,,,,,,,,,,,,,0,0,0,0,21,0,21,0,,,,,,clume,nw,h,lower,,,,,,,3,nw,LoDemNoTar,h,1,0.6294856909662485,,,,,,,,,,,,,,,,,,,,302,2023-11-14_10h01.41.368,leap3,2022.2.5,59.93917831064431,
,,,,,,,,,,,,,,,,,,,,0,0,0,0,22,0,22,0,,,,,,cassette,w,g,lower,,,,,,,3,w,LoDemNoTar,g,1,0.9635363388806581,,,,,,,,,,,,,,,,,,,,302,2023-11-14_10h01.41.368,leap3,2022.2.5,59.93917831064431,
,,,,,,,,,,,,,,,,,,,,0,0,0,0,23,0,23,0,,,,,,euphoric,w,g,lower,,,,,,,3,w,LoDemNoTar,g,1,0.5477734603919089,,,,,,,,,,,,,,,,,,,,302,2023-11-14_10h01.41.368,leap3,2022.2.5,59.93917831064431,
,,,,,,,,,,,,,,,,,,,,0,0,0,0,24,0,24,0,,,,,,epic,w,g,lower,,,,,,,3,w,LoDemNoTar,g,1,0.5417741760611534,,,,,,,,,,,,,,,,,,,,302,2023-11-14_10h01.41.368,leap3,2022.2.5,59.93917831064431,
,,,,,,,,,,,,,,,,,,,,0,0,0,0,25,0,25,0,,,,,,eyesight,w,g,lower,,,,,,,3,w,LoDemNoTar,g,1,0.5105004939250648,,,,,,,,,,,,,,,,,,,,302,2023-11-14_10h01.41.368,leap3,2022.2.5,59.93917831064431,
,,,,,,,,,,,,,,,,,,,,0,0,0,0,26,0,26,0,,,,,,whirling,w,g,lower,,,,,,,3,w,LoDemNoTar,g,1,0.5296289445832372,,,,,,,,,,,,,,,,,,,,302,2023-11-14_10h01.41.368,leap3,2022.2.5,59.93917831064431,
,,,,,,,,,,,,,,,,,,,,0,0,0,0,27,0,27,0,,,,,,grolific,nw,h,lower,,,,,,,3,nw,LoDemNoTar,h,1,0.9316806388087571,,,,,,,,,,,,,,,,,,,,302,2023-11-14_10h01.41.368,leap3,2022.2.5,59.93917831064431,
,,,,,,,,,,,,,,,,,,,,0,0,0,0,28,0,28,0,,,,,,hasks,nw,h,lower,,,,,,,3,nw,LoDemNoTar,h,1,0.7087433836422861,,,,,,,,,,,,,,,,,,,,302,2023-11-14_10h01.41.368,leap3,2022.2.5,59.93917831064431,
,,,,,,,,,,,,,,,,,,,,0,0,0,0,29,0,29,0,,,,,,congraks,nw,h,lower,,,,,,,3,nw,LoDemNoTar,h,1,0.791374328546226,,,,,,,,,,,,,,,,,,,,302,2023-11-14_10h01.41.368,leap3,2022.2.5,59.93917831064431,
,,,,,,,,,,,,,,,,,,,,0,0,0,0,,,,,,,,,,,,,,,,,,,,,,,,,,NA,,,,,,,,,,,,,,,,,,,302,2023-11-14_10h01.41.368,leap3,2022.2.5,59.93917831064431,
,,,,,,,,,,,,,,,,,,,,1,0,1,0,0,0,0,0,,,,,,remain,w,g,upper,,,,,,,1,w,HiDemTar,g,1,0.5829868516884744,,,,,,,,,,,,,,,,,,,,302,2023-11-14_10h01.41.368,leap3,2022.2.5,59.93917831064431,
,,,,,,,,,,,,,,,,,,,,1,0,1,0,1,0,1,0,,,,,,apticle,nw,h,upper,,,,,,,1,nw,HiDemTar,h,1,0.6550017683766782,,,,,,,,,,,,,,,,,,,,302,2023-11-14_10h01.41.368,leap3,2022.2.5,59.93917831064431,
,,,,,,,,,,,,,,,,,,,,1,0,1,0,2,0,2,0,,,,,,lasprey,nw,h,upper,,,,,,,1,nw,HiDemTar,h,1,0.5796553138643503,,,,,,,,,,,,,,,,,,,,302,2023-11-14_10h01.41.368,leap3,2022.2.5,59.93917831064431,
,,,,,,,,,,,,,,,,,,,,1,0,1,0,3,0,3,0,,,,,,aqueduct,w,g,upper,,,,,,,1,w,HiDemTar,h,0,0.4973736461251974,,,,,,,,,,,,,,,,,,,,302,2023-11-14_10h01.41.368,leap3,2022.2.5,59.93917831064431,
,,,,,,,,,,,,,,,,,,,,1,0,1,0,4,0,4,0,,,,,,olgies,nw,h,upper,,,,,,,1,nw,HiDemTar,h,1,0.5421092165634036,,,,,,,,,,,,,,,,,,,,302,2023-11-14_10h01.41.368,leap3,2022.2.5,59.93917831064431,
,,,,,,,,,,,,,,,,,,,,1,0,1,0,5,0,5,0,,,,,,sarlock,nw,h,upper,,,,,,,1,nw,HiDemTar,h,1,0.5034252386540174,,,,,,,,,,,,,,,,,,,,302,2023-11-14_10h01.41.368,leap3,2022.2.5,59.93917831064431,
,,,,,,,,,,,,,,,,,,,,1,0,1,0,6,0,6,0,,,,,,triplet,w,g,upper,,,,,,,1,w,HiDemTar,g,1,0.5621272465214133,,,,,,,,,,,,,,,,,,,,302,2023-11-14_10h01.41.368,leap3,2022.2.5,59.93917831064431,
,,,,,,,,,,,,,,,,,,,,1,0,1,0,7,0,7,0,,,,,,fidelity,w,g,upper,,,,,,,1,w,HiDemTar,g,1,0.5787978474982083,,,,,,,,,,,,,,,,,,,,302,2023-11-14_10h01.41.368,leap3,2022.2.5,59.93917831064431,
,,,,,,,,,,,,,,,,,,,,1,0,1,0,8,0,8,0,,,,,,vorm,nw,h,upper,,,,,,,1,nw,HiDemTar,g,0,0.5389379160478711,,,,,,,,,,,,,,,,,,,,302,2023-11-14_10h01.41.368,leap3,2022.2.5,59.93917831064431,
,,,,,,,,,,,,,,,,,,,,1,0,1,0,9,0,9,0,,,,,,acidic,w,g,upper,,,,,,,1,w,HiDemTar,g,1,0.6842834134586155,,,,,,,,,,,,,,,,,,,,302,2023-11-14_10h01.41.368,leap3,2022.2.5,59.93917831064431,
,,,,,,,,,,,,,,,,,,,,1,0,1,0,10,0,10,0,,,,,,halter,w,g,upper,,,,,,,1,w,HiDemTar,g,1,0.6796944788657129,,,,,,,,,,,,,,,,,,,,302,2023-11-14_10h01.41.368,leap3,2022.2.5,59.93917831064431,
,,,,,,,,,,,,,,,,,,,,1,0,1,0,11,0,11,0,,,,,,butterfly,target,q,upper,,,,,,,1,target,HiDemTar,g,0,0.4672345342114568,,,,,,,,,,,,,,,,,,,,302,2023-11-14_10h01.41.368,leap3,2022.2.5,59.93917831064431,
,,,,,,,,,,,,,,,,,,,,1,0,1,0,12,0,12,0,,,,,,setwixt,nw,h,upper,,,,,,,1,aftertar1,HiDemTar,h,1,0.5253134719096124,,,,,,,,,,,,,,,,,,,,302,2023-11-14_10h01.41.368,leap3,2022.2.5,59.93917831064431,
,,,,,,,,,,,,,,,,,,,,1,0,1,0,13,0,13,0,,,,,,strenuous,w,g,upper,,,,,,,1,aftertar2,HiDemTar,g,1,0.7213269495405257,,,,,,,,,,,,,,,,,,,,302,2023-11-14_10h01.41.368,leap3,2022.2.5,59.93917831064431,
,,,,,,,,,,,,,,,,,,,,1,0,1,0,14,0,14,0,,,,,,baults,nw,h,upper,,,,,,,1,aftertar3,HiDemTar,h,1,0.5552681786939502,,,,,,,,,,,,,,,,,,,,302,2023-11-14_10h01.41.368,leap3,2022.2.5,59.93917831064431,
,,,,,,,,,,,,,,,,,,,,1,0,1,0,15,0,15,0,,,,,,postal,w,g,upper,,,,,,,1,nw,HiDemTar,g,1,0.6279462245292962,,,,,,,,,,,,,,,,,,,,302,2023-11-14_10h01.41.368,leap3,2022.2.5,59.93917831064431,
,,,,,,,,,,,,,,,,,,,,1,0,1,0,16,0,16,0,,,,,,pigned,nw,h,upper,,,,,,,1,w,HiDemTar,h,1,0.593987911939621,,,,,,,,,,,,,,,,,,,,302,2023-11-14_10h01.41.368,leap3,2022.2.5,59.93917831064431,
,,,,,,,,,,,,,,,,,,,,1,0,1,0,17,0,17,0,,,,,,topefuls,nw,h,upper,,,,,,,1,nw,HiDemTar,g,0,0.6734816557727754,,,,,,,,,,,,,,,,,,,,302,2023-11-14_10h01.41.368,leap3,2022.2.5,59.93917831064431,
,,,,,,,,,,,,,,,,,,,,1,0,1,0,18,0,18,0,,,,,,forfeit,w,g,upper,,,,,,,1,nw,HiDemTar,g,1,0.6214986741542816,,,,,,,,,,,,,,,,,,,,302,2023-11-14_10h01.41.368,leap3,2022.2.5,59.93917831064431,
,,,,,,,,,,,,,,,,,,,,1,0,1,0,19,0,19,0,,,,,,removable,w,g,upper,,,,,,,1,w,HiDemTar,g,1,0.5557839828543365,,,,,,,,,,,,,,,,,,,,302,2023-11-14_10h01.41.368,leap3,2022.2.5,59.93917831064431,
,,,,,,,,,,,,,,,,,,,,1,0,1,0,20,0,20,0,,,,,,gaining,w,g,upper,,,,,,,1,w,HiDemTar,g,1,0.604243075940758,,,,,,,,,,,,,,,,,,,,302,2023-11-14_10h01.41.368,leap3,2022.2.5,59.93917831064431,
,,,,,,,,,,,,,,,,,,,,1,0,1,0,21,0,21,0,,,,,,obviously,w,g,upper,,,,,,,1,w,HiDemTar,g,1,0.514989114832133,,,,,,,,,,,,,,,,,,,,302,2023-11-14_10h01.41.368,leap3,2022.2.5,59.93917831064431,
,,,,,,,,,,,,,,,,,,,,1,0,1,0,22,0,22,0,,,,,,buaint,nw,h,upper,,,,,,,1,w,HiDemTar,h,1,0.5967556410469115,,,,,,,,,,,,,,,,,,,,302,2023-11-14_10h01.41.368,leap3,2022.2.5,59.93917831064431,
,,,,,,,,,,,,,,,,,,,,1,0,1,0,23,0,23,0,,,,,,ebince,nw,h,upper,,,,,,,1,nw,HiDemTar,h,1,0.5560683701187372,,,,,,,,,,,,,,,,,,,,302,2023-11-14_10h01.41.368,leap3,2022.2.5,59.93917831064431,
,,,,,,,,,,,,,,,,,,,,1,0,1,0,24,0,24,0,,,,,,actively,w,g,upper,,,,,,,1,nw,HiDemTar,g,1,0.5327330380678177,,,,,,,,,,,,,,,,,,,,302,2023-11-14_10h01.41.368,leap3,2022.2.5,59.93917831064431,
,,,,,,,,,,,,,,,,,,,,1,0,1,0,25,0,25,0,,,,,,pripend,nw,h,upper,,,,,,,1,w,HiDemTar,h,1,0.6387933385558426,,,,,,,,,,,,,,,,,,,,302,2023-11-14_10h01.41.368,leap3,2022.2.5,59.93917831064431,
,,,,,,,,,,,,,,,,,,,,1,0,1,0,26,0,26,0,,,,,,lofty,w,g,upper,,,,,,,1,nw,HiDemTar,g,1,0.7321588336490095,,,,,,,,,,,,,,,,,,,,302,2023-11-14_10h01.41.368,leap3,2022.2.5,59.93917831064431,
,,,,,,,,,,,,,,,,,,,,1,0,1,0,27,0,27,0,,,,,,unwose,nw,h,upper,,,,,,,1,w,HiDemTar,h,1,0.7101593618281186,,,,,,,,,,,,,,,,,,,,302,2023-11-14_10h01.41.368,leap3,2022.2.5,59.93917831064431,
,,,,,,,,,,,,,,,,,,,,1,0,1,0,28,0,28,0,,,,,,thorifies,nw,h,upper,,,,,,,1,nw,HiDemTar,h,1,0.7280423338524997,,,,,,,,,,,,,,,,,,,,302,2023-11-14_10h01.41.368,leap3,2022.2.5,59.93917831064431,
,,,,,,,,,,,,,,,,,,,,1,0,1,0,29,0,29,0,,,,,,enunciate,w,g,upper,,,,,,,1,nw,HiDemTar,g,1,0.6429674443788826,,,,,,,,,,,,,,,,,,,,302,2023-11-14_10h01.41.368,leap3,2022.2.5,59.93917831064431,
,,,,,,,,,,,,,,,,,,,,1,0,1,0,,,,,,,,,,,,,,,,,,,,,,,,,,0,,,,,,,,,,,,,,,,,,,302,2023-11-14_10h01.41.368,leap3,2022.2.5,59.93917831064431,
,,,,,,,,,,,,,,,,,,,,2,0,2,0,0,0,0,0,,,,,,martial,w,g,lower,,,,,,,3,w,LoDemNoTar,g,1,0.775427442509681,,,,,,,,,,,,,,,,,,,,302,2023-11-14_10h01.41.368,leap3,2022.2.5,59.93917831064431,
,,,,,,,,,,,,,,,,,,,,2,0,2,0,1,0,1,0,,,,,,ludictous,nw,h,lower,,,,,,,3,nw,LoDemNoTar,h,1,0.9354640846140683,,,,,,,,,,,,,,,,,,,,302,2023-11-14_10h01.41.368,leap3,2022.2.5,59.93917831064431,
,,,,,,,,,,,,,,,,,,,,2,0,2,0,2,0,2,0,,,,,,levels,w,g,lower,,,,,,,3,w,LoDemNoTar,g,1,0.5447713346220553,,,,,,,,,,,,,,,,,,,,302,2023-11-14_10h01.41.368,leap3,2022.2.5,59.93917831064431,
,,,,,,,,,,,,,,,,,,,,2,0,2,0,3,0,3,0,,,,,,slowning,nw,h,lower,,,,,,,3,nw,LoDemNoTar,h,1,0.7697284370660782,,,,,,,,,,,,,,,,,,,,302,2023-11-14_10h01.41.368,leap3,2022.2.5,59.93917831064431,
,,,,,,,,,,,,,,,,,,,,2,0,2,0,4,0,4,0,,,,,,ilterfere,nw,h,lower,,,,,,,3,nw,LoDemNoTar,h,1,0.6575771467760205,,,,,,,,,,,,,,,,,,,,302,2023-11-14_10h01.41.368,leap3,2022.2.5,59.93917831064431,
,,,,,,,,,,,,,,,,,,,,2,0,2,0,5,0,5,0,,,,,,balign,nw,h,lower,,,,,,,3,nw,LoDemNoTar,h,1,0.6065751197747886,,,,,,,,,,,,,,,,,,,,302,2023-11-14_10h01.41.368,leap3,2022.2.5,59.93917831064431,
,,,,,,,,,,,,,,,,,,,,2,0,2,0,6,0,6,0,,,,,,intercede,w,g,lower,,,,,,,3,w,LoDemNoTar,h,0,0.8367028422653675,,,,,,,,,,,,,,,,,,,,302,2023-11-14_10h01.41.368,leap3,2022.2.5,59.93917831064431,
,,,,,,,,,,,,,,,,,,,,2,0,2,0,7,0,7,0,,,,,,mabit,nw,h,lower,,,,,,,3,nw,LoDemNoTar,h,1,0.6100318008102477,,,,,,,,,,,,,,,,,,,,302,2023-11-14_10h01.41.368,leap3,2022.2.5,59.93917831064431,
,,,,,,,,,,,,,,,,,,,,2,0,2,0,8,0,8,0,,,,,,goblet,w,g,lower,,,,,,,3,w,LoDemNoTar,h,0,0.6087224269285798,,,,,,,,,,,,,,,,,,,,302,2023-11-14_10h01.41.368,leap3,2022.2.5,59.93917831064431,
,,,,,,,,,,,,,,,,,,,,2,0,2,0,9,0,9,0,,,,,,mineluyer,nw,h,lower,,,,,,,3,nw,LoDemNoTar,h,1,0.5595094915479422,,,,,,,,,,,,,,,,,,,,302,2023-11-14_10h01.41.368,leap3,2022.2.5,59.93917831064431,
,,,,,,,,,,,,,,,,,,,,2,0,2,0,10,0,10,0,,,,,,overflow,w,g,lower,,,,,,,3,w,LoDemNoTar,g,1,0.5120813441462815,,,,,,,,,,,,,,,,,,,,302,2023-11-14_10h01.41.368,leap3,2022.2.5,59.93917831064431,
,,,,,,,,,,,,,,,,,,,,2,0,2,0,11,0,11,0,,,,,,dreaded,w,g,lower,,,,,,,3,w,LoDemNoTar,g,1,0.5708495653234422,,,,,,,,,,,,,,,,,,,,302,2023-11-14_10h01.41.368,leap3,2022.2.5,59.93917831064431,
,,,,,,,,,,,,,,,,,,,,2,0,2,0,12,0,12,0,,,,,,amidst,w,g,lower,,,,,,,3,w,LoDemNoTar,g,1,0.6429856531322002,,,,,,,,,,,,,,,,,,,,302,2023-11-14_10h01.41.368,leap3,2022.2.5,59.93917831064431,
,,,,,,,,,,,,,,,,,,,,2,0,2,0,13,0,13,0,,,,,,mopping,w,g,lower,,,,,,,3,w,LoDemNoTar,g,1,0.6002656244672835,,,,,,,,,,,,,,,,,,,,302,2023-11-14_10h01.41.368,leap3,2022.2.5,59.93917831064431,
,,,,,,,,,,,,,,,,,,,,2,0,2,0,14,0,14,0,,,,,,publish,w,g,lower,,,,,,,3,w,LoDemNoTar,g,1,0.47165859630331397,,,,,,,,,,,,,,,,,,,,302,2023-11-14_10h01.41.368,leap3,2022.2.5,59.93917831064431,
,,,,,,,,,,,,,,,,,,,,2,0,2,0,15,0,15,0,,,,,,fullity,nw,h,lower,,,,,,,3,nw,LoDemNoTar,h,1,0.9476857930421829,,,,,,,,,,,,,,,,,,,,302,2023-11-14_10h01.41.368,leap3,2022.2.5,59.93917831064431,
,,,,,,,,,,,,,,,,,,,,2,0,2,0,16,0,16,0,,,,,,crimb,nw,h,lower,,,,,,,3,nw,LoDemNoTar,h,1,0.8121501733548939,,,,,,,,,,,,,,,,,,,,302,2023-11-14_10h01.41.368,leap3,2022.2.5,59.93917831064431,
,,,,,,,,,,,,,,,,,,,,2,0,2,0,17,0,17,0,,,,,,cayward,nw,h,lower,,,,,,,3,nw,LoDemNoTar,h,1,0.5707562044262886,,,,,,,,,,,,,,,,,,,,302,2023-11-14_10h01.41.368,leap3,2022.2.5,59.93917831064431,
,,,,,,,,,,,,,,,,,,,,2,0,2,0,18,0,18,0,,,,,,pexts,nw,h,lower,,,,,,,3,nw,LoDemNoTar,h,1,0.7146691707894206,,,,,,,,,,,,,,,,,,,,302,2023-11-14_10h01.41.368,leap3,2022.2.5,59.93917831064431,
,,,,,,,,,,,,,,,,,,,,2,0,2,0,19,0,19,0,,,,,,atabaster,nw,h,lower,,,,,,,3,nw,LoDemNoTar,h,1,0.6294906572438776,,,,,,,,,,,,,,,,,,,,302,2023-11-14_10h01.41.368,leap3,2022.2.5,59.93917831064431,
,,,,,,,,,,,,,,,,,,,,2,0,2,0,20,0,20,0,,,,,,arrow,w,g,lower,,,,,,,3,w,LoDemNoTar,g,1,0.5155264385975897,,,,,,,,,,,,,,,,,,,,302,2023-11-14_10h01.41.368,leap3,2022.2.5,59.93917831064431,
,,,,,,,,,,,,,,,,,,,,2,0,2,0,21,0,21,0,,,,,,permeable,w,g,lower,,,,,,,3,w,LoDemNoTar,g,1,0.7262496002949774,,,,,,,,,,,,,,,,,,,,302,2023-11-14_10h01.41.368,leap3,2022.2.5,59.93917831064431,
,,,,,,,,,,,,,,,,,,,,2,0,2,0,22,0,22,0,,,,,,ciping,nw,h,lower,,,,,,,3,nw,LoDemNoTar,h,1,0.6003070082515478,,,,,,,,,,,,,,,,,,,,302,2023-11-14_10h01.41.368,leap3,2022.2.5,59.93917831064431,
,,,,,,,,,,,,,,,,,,,,2,0,2,0,23,0,23,0,,,,,,intrude,w,g,lower,,,,,,,3,w,LoDemNoTar,g,1,0.5756480661220849,,,,,,,,,,,,,,,,,,,,302,2023-11-14_10h01.41.368,leap3,2022.2.5,59.93917831064431,
,,,,,,,,,,,,,,,,,,,,2,0,2,0,24,0,24,0,,,,,,classify,w,g,lower,,,,,,,3,w,LoDemNoTar,g,1,0.47968302434310317,,,,,,,,,,,,,,,,,,,,302,2023-11-14_10h01.41.368,leap3,2022.2.5,59.93917831064431,
,,,,,,,,,,,,,,,,,,,,2,0,2,0,25,0,25,0,,,,,,phambled,nw,h,lower,,,,,,,3,nw,LoDemNoTar,h,1,0.6428303821012378,,,,,,,,,,,,,,,,,,,,302,2023-11-14_10h01.41.368,leap3,2022.2.5,59.93917831064431,
,,,,,,,,,,,,,,,,,,,,2,0,2,0,26,0,26,0,,,,,,boulder,w,g,lower,,,,,,,3,w,LoDemNoTar,g,1,0.5920975133776665,,,,,,,,,,,,,,,,,,,,302,2023-11-14_10h01.41.368,leap3,2022.2.5,59.93917831064431,
,,,,,,,,,,,,,,,,,,,,2,0,2,0,27,0,27,0,,,,,,erithets,nw,h,lower,,,,,,,3,nw,LoDemNoTar,h,1,0.5831215963698924,,,,,,,,,,,,,,,,,,,,302,2023-11-14_10h01.41.368,leap3,2022.2.5,59.93917831064431,
,,,,,,,,,,,,,,,,,,,,2,0,2,0,28,0,28,0,,,,,,lutton,nw,h,lower,,,,,,,3,nw,LoDemNoTar,h,1,0.5995289981365204,,,,,,,,,,,,,,,,,,,,302,2023-11-14_10h01.41.368,leap3,2022.2.5,59.93917831064431,
,,,,,,,,,,,,,,,,,,,,2,0,2,0,29,0,29,0,,,,,,lifetime,w,g,lower,,,,,,,3,w,LoDemNoTar,g,1,0.5428849090822041,,,,,,,,,,,,,,,,,,,,302,2023-11-14_10h01.41.368,leap3,2022.2.5,59.93917831064431,
,,,,,,,,,,,,,,,,,,,,2,0,2,0,,,,,,,,,,,,,,,,,,,,,,,,,,NA,,,,,,,,,,,,,,,,,,,302,2023-11-14_10h01.41.368,leap3,2022.2.5,59.93917831064431,
,,,,,,,,,,,,,,,,,,,,3,0,3,0,0,0,0,0,,,,,,deadly,w,g,lower,,,,,,,3,w,LoDemNoTar,g,1,0.6081612664274871,,,,,,,,,,,,,,,,,,,,302,2023-11-14_10h01.41.368,leap3,2022.2.5,59.93917831064431,
,,,,,,,,,,,,,,,,,,,,3,0,3,0,1,0,1,0,,,,,,column,w,g,lower,,,,,,,3,w,LoDemNoTar,g,1,0.7829923476092517,,,,,,,,,,,,,,,,,,,,302,2023-11-14_10h01.41.368,leap3,2022.2.5,59.93917831064431,
,,,,,,,,,,,,,,,,,,,,3,0,3,0,2,0,2,0,,,,,,curtail,w,g,lower,,,,,,,3,w,LoDemNoTar,g,1,0.6068287175148726,,,,,,,,,,,,,,,,,,,,302,2023-11-14_10h01.41.368,leap3,2022.2.5,59.93917831064431,
,,,,,,,,,,,,,,,,,,,,3,0,3,0,3,0,3,0,,,,,,explosion,w,g,lower,,,,,,,3,w,LoDemNoTar,g,1,0.5186854894272983,,,,,,,,,,,,,,,,,,,,302,2023-11-14_10h01.41.368,leap3,2022.2.5,59.93917831064431,
,,,,,,,,,,,,,,,,,,,,3,0,3,0,4,0,4,0,,,,,,admire,w,g,lower,,,,,,,3,w,LoDemNoTar,g,1,0.43160830112174153,,,,,,,,,,,,,,,,,,,,302,2023-11-14_10h01.41.368,leap3,2022.2.5,59.93917831064431,
,,,,,,,,,,,,,,,,,,,,3,0,3,0,5,0,5,0,,,,,,cheathe,nw,h,lower,,,,,,,3,nw,LoDemNoTar,g,0,0.4216633476316929,,,,,,,,,,,,,,,,,,,,302,2023-11-14_10h01.41.368,leap3,2022.2.5,59.93917831064431,
,,,,,,,,,,,,,,,,,,,,3,0,3,0,6,0,6,0,,,,,,unmarked,w,g,lower,,,,,,,3,w,LoDemNoTar,g,1,0.5236313152126968,,,,,,,,,,,,,,,,,,,,302,2023-11-14_10h01.41.368,leap3,2022.2.5,59.93917831064431,
,,,,,,,,,,,,,,,,,,,,3,0,3,0,7,0,7,0,,,,,,outfit,w,g,lower,,,,,,,3,w,LoDemNoTar,g,1,0.4857121044769883,,,,,,,,,,,,,,,,,,,,302,2023-11-14_10h01.41.368,leap3,2022.2.5,59.93917831064431,
,,,,,,,,,,,,,,,,,,,,3,0,3,0,8,0,8,0,,,,,,forgive,w,g,lower,,,,,,,3,w,LoDemNoTar,g,1,0.41715751122683287,,,,,,,,,,,,,,,,,,,,302,2023-11-14_10h01.41.368,leap3,2022.2.5,59.93917831064431,
,,,,,,,,,,,,,,,,,,,,3,0,3,0,9,0,9,0,,,,,,overwork,w,g,lower,,,,,,,3,w,LoDemNoTar,g,1,0.4230710491538048,,,,,,,,,,,,,,,,,,,,302,2023-11-14_10h01.41.368,leap3,2022.2.5,59.93917831064431,
,,,,,,,,,,,,,,,,,,,,3,0,3,0,10,0,10,0,,,,,,sength,nw,h,lower,,,,,,,3,nw,LoDemNoTar,g,0,0.42824332509189844,,,,,,,,,,,,,,,,,,,,302,2023-11-14_10h01.41.368,leap3,2022.2.5,59.93917831064431,
,,,,,,,,,,,,,,,,,,,,3,0,3,0,11,0,11,0,,,,,,volder,nw,h,lower,,,,,,,3,nw,LoDemNoTar,h,1,0.7462080377154052,,,,,,,,,,,,,,,,,,,,302,2023-11-14_10h01.41.368,leap3,2022.2.5,59.93917831064431,
,,,,,,,,,,,,,,,,,,,,3,0,3,0,12,0,12,0,,,,,,fabstand,nw,h,lower,,,,,,,3,nw,LoDemNoTar,h,1,0.5796966971829534,,,,,,,,,,,,,,,,,,,,302,2023-11-14_10h01.41.368,leap3,2022.2.5,59.93917831064431,
,,,,,,,,,,,,,,,,,,,,3,0,3,0,13,0,13,0,,,,,,vaporize,w,g,lower,,,,,,,3,w,LoDemNoTar,h,0,0.5603712615557015,,,,,,,,,,,,,,,,,,,,302,2023-11-14_10h01.41.368,leap3,2022.2.5,59.93917831064431,
,,,,,,,,,,,,,,,,,,,,3,0,3,0,14,0,14,0,,,,,,olerates,nw,h,lower,,,,,,,3,nw,LoDemNoTar,h,1,0.6042755204252899,,,,,,,,,,,,,,,,,,,,302,2023-11-14_10h01.41.368,leap3,2022.2.5,59.93917831064431,
,,,,,,,,,,,,,,,,,,,,3,0,3,0,15,0,15,0,,,,,,eugenifs,nw,h,lower,,,,,,,3,nw,LoDemNoTar,h,1,0.6189934820868075,,,,,,,,,,,,,,,,,,,,302,2023-11-14_10h01.41.368,leap3,2022.2.5,59.93917831064431,
,,,,,,,,,,,,,,,,,,,,3,0,3,0,16,0,16,0,,,,,,ronvince,nw,h,lower,,,,,,,3,nw,LoDemNoTar,h,1,0.5450249332934618,,,,,,,,,,,,,,,,,,,,302,2023-11-14_10h01.41.368,leap3,2022.2.5,59.93917831064431,
,,,,,,,,,,,,,,,,,,,,3,0,3,0,17,0,17,0,,,,,,fracture,w,g,lower,,,,,,,3,w,LoDemNoTar,g,1,0.690397578291595,,,,,,,,,,,,,,,,,,,,302,2023-11-14_10h01.41.368,leap3,2022.2.5,59.93917831064431,
,,,,,,,,,,,,,,,,,,,,3,0,3,0,18,0,18,0,,,,,,allained,nw,h,lower,,,,,,,3,nw,LoDemNoTar,h,1,0.8937935419380665,,,,,,,,,,,,,,,,,,,,302,2023-11-14_10h01.41.368,leap3,2022.2.5,59.93917831064431,
,,,,,,,,,,,,,,,,,,,,3,0,3,0,19,0,19,0,,,,,,regional,w,g,lower,,,,,,,3,w,LoDemNoTar,g,1,0.5611446369439363,,,,,,,,,,,,,,,,,,,,302,2023-11-14_10h01.41.368,leap3,2022.2.5,59.93917831064431,
,,,,,,,,,,,,,,,,,,,,3,0,3,0,20,0,20,0,,,,,,eightiech,nw,h,lower,,,,,,,3,nw,LoDemNoTar,h,1,0.5537919462658465,,,,,,,,,,,,,,,,,,,,302,2023-11-14_10h01.41.368,leap3,2022.2.5,59.93917831064431,
,,,,,,,,,,,,,,,,,,,,3,0,3,0,21,0,21,0,,,,,,slending,nw,h,lower,,,,,,,3,nw,LoDemNoTar,h,1,1.0256953588686883,,,,,,,,,,,,,,,,,,,,302,2023-11-14_10h01.41.368,leap3,2022.2.5,59.93917831064431,
,,,,,,,,,,,,,,,,,,,,3,0,3,0,22,0,22,0,,,,,,soluced,nw,h,lower,,,,,,,3,nw,LoDemNoTar,h,1,0.5676514483056962,,,,,,,,,,,,,,,,,,,,302,2023-11-14_10h01.41.368,leap3,2022.2.5,59.93917831064431,
,,,,,,,,,,,,,,,,,,,,3,0,3,0,23,0,23,0,,,,,,subpoena,w,g,lower,,,,,,,3,w,LoDemNoTar,h,0,0.5035238973796368,,,,,,,,,,,,,,,,,,,,302,2023-11-14_10h01.41.368,leap3,2022.2.5,59.93917831064431,
,,,,,,,,,,,,,,,,,,,,3,0,3,0,24,0,24,0,,,,,,ephically,nw,h,lower,,,,,,,3,nw,LoDemNoTar,h,1,0.7303002178668976,,,,,,,,,,,,,,,,,,,,302,2023-11-14_10h01.41.368,leap3,2022.2.5,59.93917831064431,
,,,,,,,,,,,,,,,,,,,,3,0,3,0,25,0,25,0,,,,,,crundle,nw,h,lower,,,,,,,3,nw,LoDemNoTar,h,1,0.7077531586401165,,,,,,,,,,,,,,,,,,,,302,2023-11-14_10h01.41.368,leap3,2022.2.5,59.93917831064431,
,,,,,,,,,,,,,,,,,,,,3,0,3,0,26,0,26,0,,,,,,distrust,w,g,lower,,,,,,,3,w,LoDemNoTar,g,1,0.5750845880247653,,,,,,,,,,,,,,,,,,,,302,2023-11-14_10h01.41.368,leap3,2022.2.5,59.93917831064431,
,,,,,,,,,,,,,,,,,,,,3,0,3,0,27,0,27,0,,,,,,walsams,nw,h,lower,,,,,,,3,nw,LoDemNoTar,h,1,0.5346946166828275,,,,,,,,,,,,,,,,,,,,302,2023-11-14_10h01.41.368,leap3,2022.2.5,59.93917831064431,
,,,,,,,,,,,,,,,,,,,,3,0,3,0,28,0,28,0,,,,,,parlayid,nw,h,lower,,,,,,,3,nw,LoDemNoTar,h,1,0.5843978635966778,,,,,,,,,,,,,,,,,,,,302,2023-11-14_10h01.41.368,leap3,2022.2.5,59.93917831064431,
,,,,,,,,,,,,,,,,,,,,3,0,3,0,29,0,29,0,,,,,,rainfall,w,g,lower,,,,,,,3,w,LoDemNoTar,g,1,0.5512367631308734,,,,,,,,,,,,,,,,,,,,302,2023-11-14_10h01.41.368,leap3,2022.2.5,59.93917831064431,
,,,,,,,,,,,,,,,,,,,,3,0,3,0,,,,,,,,,,,,,,,,,,,,,,,,,,NA,,,,,,,,,,,,,,,,,,,302,2023-11-14_10h01.41.368,leap3,2022.2.5,59.93917831064431,
,,,,,,,,,,,,,,,,,,,,4,0,4,0,0,0,0,0,,,,,,deeper,w,g,upper,,,,,,,1,w,HiDemTar,g,1,0.6797659895382822,,,,,,,,,,,,,,,,,,,,302,2023-11-14_10h01.41.368,leap3,2022.2.5,59.93917831064431,
,,,,,,,,,,,,,,,,,,,,4,0,4,0,1,0,1,0,,,,,,record,w,g,upper,,,,,,,1,w,HiDemTar,g,1,0.49993611266836524,,,,,,,,,,,,,,,,,,,,302,2023-11-14_10h01.41.368,leap3,2022.2.5,59.93917831064431,
,,,,,,,,,,,,,,,,,,,,4,0,4,0,2,0,2,0,,,,,,iflaid,nw,h,upper,,,,,,,1,nw,HiDemTar,h,1,0.607167731039226,,,,,,,,,,,,,,,,,,,,302,2023-11-14_10h01.41.368,leap3,2022.2.5,59.93917831064431,
,,,,,,,,,,,,,,,,,,,,4,0,4,0,3,0,3,0,,,,,,airmen,w,g,upper,,,,,,,1,w,HiDemTar,h,0,0.9339232943020761,,,,,,,,,,,,,,,,,,,,302,2023-11-14_10h01.41.368,leap3,2022.2.5,59.93917831064431,
,,,,,,,,,,,,,,,,,,,,4,0,4,0,4,0,4,0,,,,,,chappef,nw,h,upper,,,,,,,1,nw,HiDemTar,h,1,0.590343183837831,,,,,,,,,,,,,,,,,,,,302,2023-11-14_10h01.41.368,leap3,2022.2.5,59.93917831064431,
,,,,,,,,,,,,,,,,,,,,4,0,4,0,5,0,5,0,,,,,,plunging,w,g,upper,,,,,,,1,w,HiDemTar,g,1,0.6777007873170078,,,,,,,,,,,,,,,,,,,,302,2023-11-14_10h01.41.368,leap3,2022.2.5,59.93917831064431,
,,,,,,,,,,,,,,,,,,,,4,0,4,0,6,0,6,0,,,,,,gaioty,nw,h,upper,,,,,,,1,nw,HiDemTar,h,1,0.4897133926860988,,,,,,,,,,,,,,,,,,,,302,2023-11-14_10h01.41.368,leap3,2022.2.5,59.93917831064431,
,,,,,,,,,,,,,,,,,,,,4,0,4,0,7,0,7,0,,,,,,illness,w,g,upper,,,,,,,1,w,HiDemTar,g,1,0.5970092392526567,,,,,,,,,,,,,,,,,,,,302,2023-11-14_10h01.41.368,leap3,2022.2.5,59.93917831064431,
,,,,,,,,,,,,,,,,,,,,4,0,4,0,8,0,8,0,,,,,,smabled,nw,h,upper,,,,,,,1,nw,HiDemTar,h,1,0.8364459336735308,,,,,,,,,,,,,,,,,,,,302,2023-11-14_10h01.41.368,leap3,2022.2.5,59.93917831064431,
,,,,,,,,,,,,,,,,,,,,4,0,4,0,9,0,9,0,,,,,,selongs,nw,h,upper,,,,,,,1,nw,HiDemTar,h,1,0.7456945511512458,,,,,,,,,,,,,,,,,,,,302,2023-11-14_10h01.41.368,leap3,2022.2.5,59.93917831064431,
,,,,,,,,,,,,,,,,,,,,4,0,4,0,10,0,10,0,,,,,,acorn,w,g,upper,,,,,,,1,w,HiDemTar,h,0,0.9231265028938651,,,,,,,,,,,,,,,,,,,,302,2023-11-14_10h01.41.368,leap3,2022.2.5,59.93917831064431,
,,,,,,,,,,,,,,,,,,,,4,0,4,0,11,0,11,0,,,,,,frader,nw,h,upper,,,,,,,1,nw,HiDemTar,h,1,0.6931970897130668,,,,,,,,,,,,,,,,,,,,302,2023-11-14_10h01.41.368,leap3,2022.2.5,59.93917831064431,
,,,,,,,,,,,,,,,,,,,,4,0,4,0,12,0,12,0,,,,,,slutches,nw,h,upper,,,,,,,1,nw,HiDemTar,h,1,0.6565554705448449,,,,,,,,,,,,,,,,,,,,302,2023-11-14_10h01.41.368,leap3,2022.2.5,59.93917831064431,
,,,,,,,,,,,,,,,,,,,,4,0,4,0,13,0,13,0,,,,,,spider,target,q,upper,,,,,,,1,target,HiDemTar,g,0,0.4362396118231118,,,,,,,,,,,,,,,,,,,,302,2023-11-14_10h01.41.368,leap3,2022.2.5,59.93917831064431,
,,,,,,,,,,,,,,,,,,,,4,0,4,0,14,0,14,0,,,,,,primal,w,g,upper,,,,,,,1,aftertar1,HiDemTar,q,0,0.15361906262114644,,1,,,,,,,,,,,,,,,,,,302,2023-11-14_10h01.41.368,leap3,2022.2.5,59.93917831064431,
,,,,,,,,,,,,,,,,,,,,4,0,4,0,15,0,15,0,,,,,,atsless,nw,h,upper,,,,,,,1,aftertar2,HiDemTar,h,1,1.1862368802540004,,,,,,,,,,,,,,,,,,,,302,2023-11-14_10h01.41.368,leap3,2022.2.5,59.93917831064431,
,,,,,,,,,,,,,,,,,,,,4,0,4,0,16,0,16,0,,,,,,formation,w,g,upper,,,,,,,1,aftertar3,HiDemTar,g,1,0.6816984340548515,,,,,,,,,,,,,,,,,,,,302,2023-11-14_10h01.41.368,leap3,2022.2.5,59.93917831064431,
,,,,,,,,,,,,,,,,,,,,4,0,4,0,17,0,17,0,,,,,,serfume,nw,h,upper,,,,,,,1,w,HiDemTar,h,1,0.5576065126806498,,,,,,,,,,,,,,,,,,,,302,2023-11-14_10h01.41.368,leap3,2022.2.5,59.93917831064431,
,,,,,,,,,,,,,,,,,,,,4,0,4,0,18,0,18,0,,,,,,gazes,w,g,upper,,,,,,,1,nw,HiDemTar,g,1,0.8624129253439605,,,,,,,,,,,,,,,,,,,,302,2023-11-14_10h01.41.368,leap3,2022.2.5,59.93917831064431,
,,,,,,,,,,,,,,,,,,,,4,0,4,0,19,0,19,0,,,,,,disuse,w,g,upper,,,,,,,1,w,HiDemTar,g,1,0.5869861533865333,,,,,,,,,,,,,,,,,,,,302,2023-11-14_10h01.41.368,leap3,2022.2.5,59.93917831064431,
,,,,,,,,,,,,,,,,,,,,4,0,4,0,20,0,20,0,,,,,,larger,w,g,upper,,,,,,,1,w,HiDemTar,g,1,0.47443261556327343,,,,,,,,,,,,,,,,,,,,302,2023-11-14_10h01.41.368,leap3,2022.2.5,59.93917831064431,
,,,,,,,,,,,,,,,,,,,,4,0,4,0,21,0,21,0,,,,,,expected,w,g,upper,,,,,,,1,w,HiDemTar,g,1,0.4944562744349241,,,,,,,,,,,,,,,,,,,,302,2023-11-14_10h01.41.368,leap3,2022.2.5,59.93917831064431,
,,,,,,,,,,,,,,,,,,,,4,0,4,0,22,0,22,0,,,,,,oleandur,nw,h,upper,,,,,,,1,w,HiDemTar,h,1,0.6729837297461927,,,,,,,,,,,,,,,,,,,,302,2023-11-14_10h01.41.368,leap3,2022.2.5,59.93917831064431,
,,,,,,,,,,,,,,,,,,,,4,0,4,0,23,0,23,0,,,,,,minimum,w,g,upper,,,,,,,1,nw,HiDemTar,g,1,0.7489304104819894,,,,,,,,,,,,,,,,,,,,302,2023-11-14_10h01.41.368,leap3,2022.2.5,59.93917831064431,
,,,,,,,,,,,,,,,,,,,,4,0,4,0,24,0,24,0,,,,,,podes,nw,h,upper,,,,,,,1,w,HiDemTar,h,1,0.5742171900346875,,,,,,,,,,,,,,,,,,,,302,2023-11-14_10h01.41.368,leap3,2022.2.5,59.93917831064431,
,,,,,,,,,,,,,,,,,,,,4,0,4,0,25,0,25,0,,,,,,seartfelt,nw,h,upper,,,,,,,1,nw,HiDemTar,h,1,0.6143168150447309,,,,,,,,,,,,,,,,,,,,302,2023-11-14_10h01.41.368,leap3,2022.2.5,59.93917831064431,
,,,,,,,,,,,,,,,,,,,,4,0,4,0,26,0,26,0,,,,,,gallon,w,g,upper,,,,,,,1,nw,HiDemTar,g,1,0.5730289868079126,,,,,,,,,,,,,,,,,,,,302,2023-11-14_10h01.41.368,leap3,2022.2.5,59.93917831064431,
,,,,,,,,,,,,,,,,,,,,4,0,4,0,27,0,27,0,,,,,,chining,nw,h,upper,,,,,,,1,w,HiDemTar,h,1,0.5571168628521264,,,,,,,,,,,,,,,,,,,,302,2023-11-14_10h01.41.368,leap3,2022.2.5,59.93917831064431,
,,,,,,,,,,,,,,,,,,,,4,0,4,0,28,0,28,0,,,,,,menarthe,nw,h,upper,,,,,,,1,nw,HiDemTar,h,1,0.7177471104077995,,,,,,,,,,,,,,,,,,,,302,2023-11-14_10h01.41.368,leap3,2022.2.5,59.93917831064431,
,,,,,,,,,,,,,,,,,,,,4,0,4,0,29,0,29,0,,,,,,encounter,w,g,upper,,,,,,,1,nw,HiDemTar,g,1,0.6079669292084873,,,,,,,,,,,,,,,,,,,,302,2023-11-14_10h01.41.368,leap3,2022.2.5,59.93917831064431,
,,,,,,,,,,,,,,,,,,,,4,0,4,0,,,,,,,,,,,,,,,,,,,,,,,,,,1,,,,,,,,,,,,,,,,,,,302,2023-11-14_10h01.41.368,leap3,2022.2.5,59.93917831064431,
,,,,,,,,,,,,,,,,,,,,5,0,5,0,0,0,0,0,,,,,,dariner,nw,h,upper,,,,,,,1,nw,HiDemTar,h,1,0.6936880638822913,,,,,,,,,,,,,,,,,,,,302,2023-11-14_10h01.41.368,leap3,2022.2.5,59.93917831064431,
,,,,,,,,,,,,,,,,,,,,5,0,5,0,1,0,1,0,,,,,,drauns,nw,h,upper,,,,,,,1,nw,HiDemTar,h,1,0.5370855899527669,,,,,,,,,,,,,,,,,,,,302,2023-11-14_10h01.41.368,leap3,2022.2.5,59.93917831064431,
,,,,,,,,,,,,,,,,,,,,5,0,5,0,2,0,2,0,,,,,,thamp,nw,h,upper,,,,,,,1,nw,HiDemTar,h,1,0.4744299673475325,,,,,,,,,,,,,,,,,,,,302,2023-11-14_10h01.41.368,leap3,2022.2.5,59.93917831064431,
,,,,,,,,,,,,,,,,,,,,5,0,5,0,3,0,3,0,,,,,,golemic,nw,h,upper,,,,,,,1,nw,HiDemTar,h,1,0.4304730682633817,,,,,,,,,,,,,,,,,,,,302,2023-11-14_10h01.41.368,leap3,2022.2.5,59.93917831064431,
,,,,,,,,,,,,,,,,,,,,5,0,5,0,4,0,4,0,,,,,,oalis,nw,h,upper,,,,,,,1,nw,HiDemTar,h,1,0.5005575274117291,,,,,,,,,,,,,,,,,,,,302,2023-11-14_10h01.41.368,leap3,2022.2.5,59.93917831064431,
,,,,,,,,,,,,,,,,,,,,5,0,5,0,5,0,5,0,,,,,,elderly,w,g,upper,,,,,,,1,w,HiDemTar,g,1,0.5912380609661341,,,,,,,,,,,,,,,,,,,,302,2023-11-14_10h01.41.368,leap3,2022.2.5,59.93917831064431,
,,,,,,,,,,,,,,,,,,,,5,0,5,0,6,0,6,0,,,,,,courier,w,g,upper,,,,,,,1,w,HiDemTar,h,0,0.5178439146839082,,,,,,,,,,,,,,,,,,,,302,2023-11-14_10h01.41.368,leap3,2022.2.5,59.93917831064431,
,,,,,,,,,,,,,,,,,,,,5,0,5,0,7,0,7,0,,,,,,personify,w,g,upper,,,,,,,1,w,HiDemTar,h,0,0.5286638806574047,,,,,,,,,,,,,,,,,,,,302,2023-11-14_10h01.41.368,leap3,2022.2.5,59.93917831064431,
,,,,,,,,,,,,,,,,,,,,5,0,5,0,8,0,8,0,,,,,,finish,w,g,upper,,,,,,,1,w,HiDemTar,g,1,0.5137429749593139,,,,,,,,,,,,,,,,,,,,302,2023-11-14_10h01.41.368,leap3,2022.2.5,59.93917831064431,
,,,,,,,,,,,,,,,,,,,,5,0,5,0,9,0,9,0,,,,,,pallir,nw,h,upper,,,,,,,1,nw,HiDemTar,h,1,0.6445598816499114,,,,,,,,,,,,,,,,,,,,302,2023-11-14_10h01.41.368,leap3,2022.2.5,59.93917831064431,
,,,,,,,,,,,,,,,,,,,,5,0,5,0,10,0,10,0,,,,,,troven,nw,h,upper,,,,,,,1,nw,HiDemTar,h,1,0.4416760802268982,,,,,,,,,,,,,,,,,,,,302,2023-11-14_10h01.41.368,leap3,2022.2.5,59.93917831064431,
,,,,,,,,,,,,,,,,,,,,5,0,5,0,11,0,11,0,,,,,,obtuse,w,g,upper,,,,,,,1,w,HiDemTar,h,0,0.4687561229802668,,,,,,,,,,,,,,,,,,,,302,2023-11-14_10h01.41.368,leap3,2022.2.5,59.93917831064431,
,,,,,,,,,,,,,,,,,,,,5,0,5,0,12,0,12,0,,,,,,ounside,nw,h,upper,,,,,,,1,nw,HiDemTar,h,1,0.5709171034395695,,,,,,,,,,,,,,,,,,,,302,2023-11-14_10h01.41.368,leap3,2022.2.5,59.93917831064431,
,,,,,,,,,,,,,,,,,,,,5,0,5,0,13,0,13,0,,,,,,regards,w,g,upper,,,,,,,1,w,HiDemTar,g,1,0.6106783770956099,,,,,,,,,,,,,,,,,,,,302,2023-11-14_10h01.41.368,leap3,2022.2.5,59.93917831064431,
,,,,,,,,,,,,,,,,,,,,5,0,5,0,14,0,14,0,,,,,,uncounted,w,g,upper,,,,,,,1,w,HiDemTar,h,0,0.8098634858615696,,,,,,,,,,,,,,,,,,,,302,2023-11-14_10h01.41.368,leap3,2022.2.5,59.93917831064431,
,,,,,,,,,,,,,,,,,,,,5,0,5,0,15,0,15,0,,,,,,summon,w,g,upper,,,,,,,1,w,HiDemTar,g,1,0.5926427827216685,,,,,,,,,,,,,,,,,,,,302,2023-11-14_10h01.41.368,leap3,2022.2.5,59.93917831064431,
,,,,,,,,,,,,,,,,,,,,5,0,5,0,16,0,16,0,,,,,,huzzles,nw,h,upper,,,,,,,1,nw,HiDemTar,h,1,0.5919237029738724,,,,,,,,,,,,,,,,,,,,302,2023-11-14_10h01.41.368,leap3,2022.2.5,59.93917831064431,
,,,,,,,,,,,,,,,,,,,,5,0,5,0,17,0,17,0,,,,,,chicken,target,q,upper,,,,,,,1,target,HiDemTar,g,0,0.5113566359505057,,,,,,,,,,,,,,,,,,,,302,2023-11-14_10h01.41.368,leap3,2022.2.5,59.93917831064431,
,,,,,,,,,,,,,,,,,,,,5,0,5,0,18,0,18,0,,,,,,nomma,nw,h,upper,,,,,,,1,aftertar1,HiDemTar,h,1,0.6011373265646398,,,,,,,,,,,,,,,,,,,,302,2023-11-14_10h01.41.368,leap3,2022.2.5,59.93917831064431,
,,,,,,,,,,,,,,,,,,,,5,0,5,0,19,0,19,0,,,,,,bropic,nw,h,upper,,,,,,,1,aftertar2,HiDemTar,h,1,0.4477309840731323,,,,,,,,,,,,,,,,,,,,302,2023-11-14_10h01.41.368,leap3,2022.2.5,59.93917831064431,
,,,,,,,,,,,,,,,,,,,,5,0,5,0,20,0,20,0,,,,,,couple,w,g,upper,,,,,,,1,aftertar3,HiDemTar,g,1,0.5010971678420901,,,,,,,,,,,,,,,,,,,,302,2023-11-14_10h01.41.368,leap3,2022.2.5,59.93917831064431,
,,,,,,,,,,,,,,,,,,,,5,0,5,0,21,0,21,0,,,,,,daining,nw,h,upper,,,,,,,1,w,HiDemTar,g,0,0.6078229150734842,,,,,,,,,,,,,,,,,,,,302,2023-11-14_10h01.41.368,leap3,2022.2.5,59.93917831064431,
,,,,,,,,,,,,,,,,,,,,5,0,5,0,22,0,22,0,,,,,,artifact,w,g,upper,,,,,,,1,nw,HiDemTar,g,1,0.5265430589206517,,,,,,,,,,,,,,,,,,,,302,2023-11-14_10h01.41.368,leap3,2022.2.5,59.93917831064431,
,,,,,,,,,,,,,,,,,,,,5,0,5,0,23,0,23,0,,,,,,penalize,w,g,upper,,,,,,,1,w,HiDemTar,g,1,0.5926169594749808,,,,,,,,,,,,,,,,,,,,302,2023-11-14_10h01.41.368,leap3,2022.2.5,59.93917831064431,
,,,,,,,,,,,,,,,,,,,,5,0,5,0,24,0,24,0,,,,,,uncorked,w,g,upper,,,,,,,1,w,HiDemTar,g,1,0.5999828926287591,,,,,,,,,,,,,,,,,,,,302,2023-11-14_10h01.41.368,leap3,2022.2.5,59.93917831064431,
,,,,,,,,,,,,,,,,,,,,5,0,5,0,25,0,25,0,,,,,,misobeyed,nw,h,upper,,,,,,,1,w,HiDemTar,h,1,0.6233092853799462,,,,,,,,,,,,,,,,,,,,302,2023-11-14_10h01.41.368,leap3,2022.2.5,59.93917831064431,
,,,,,,,,,,,,,,,,,,,,5,0,5,0,26,0,26,0,,,,,,parent,w,g,upper,,,,,,,1,nw,HiDemTar,g,1,0.46866243053227663,,,,,,,,,,,,,,,,,,,,302,2023-11-14_10h01.41.368,leap3,2022.2.5,59.93917831064431,
,,,,,,,,,,,,,,,,,,,,5,0,5,0,27,0,27,0,,,,,,companion,w,g,upper,,,,,,,1,w,HiDemTar,g,1,0.623891634400934,,,,,,,,,,,,,,,,,,,,302,2023-11-14_10h01.41.368,leap3,2022.2.5,59.93917831064431,
,,,,,,,,,,,,,,,,,,,,5,0,5,0,28,0,28,0,,,,,,handcuff,w,g,upper,,,,,,,1,w,HiDemTar,g,1,0.6447807042859495,,,,,,,,,,,,,,,,,,,,302,2023-11-14_10h01.41.368,leap3,2022.2.5,59.93917831064431,
,,,,,,,,,,,,,,,,,,,,5,0,5,0,29,0,29,0,,,,,,blassed,nw,h,upper,,,,,,,1,w,HiDemTar,h,1,0.7144917179830372,,,,,,,,,,,,,,,,,,,,302,2023-11-14_10h01.41.368,leap3,2022.2.5,59.93917831064431,
,,,,,,,,,,,,,,,,,,,,5,0,5,0,,,,,,,,,,,,,,,,,,,,,,,,,,0,,,,,,,,,,,,,,,,,,,302,2023-11-14_10h01.41.368,leap3,2022.2.5,59.93917831064431,
,,,,,,,,,,,,,,,,,,,,6,0,6,0,0,0,0,0,,,,,,clarms,nw,h,upper,,,,,,,1,nw,HiDemTar,h,1,0.7333520031534135,,,,,,,,,,,,,,,,,,,,302,2023-11-14_10h01.41.368,leap3,2022.2.5,59.93917831064431,
,,,,,,,,,,,,,,,,,,,,6,0,6,0,1,0,1,0,,,,,,bentler,nw,h,upper,,,,,,,1,nw,HiDemTar,h,1,0.7033297587186098,,,,,,,,,,,,,,,,,,,,302,2023-11-14_10h01.41.368,leap3,2022.2.5,59.93917831064431,
,,,,,,,,,,,,,,,,,,,,6,0,6,0,2,0,2,0,,,,,,dusmy,nw,h,upper,,,,,,,1,nw,HiDemTar,h,1,0.5300202667713165,,,,,,,,,,,,,,,,,,,,302,2023-11-14_10h01.41.368,leap3,2022.2.5,59.93917831064431,
,,,,,,,,,,,,,,,,,,,,6,0,6,0,3,0,3,0,,,,,,snife,nw,h,upper,,,,,,,1,nw,HiDemTar,h,1,0.5711058122105896,,,,,,,,,,,,,,,,,,,,302,2023-11-14_10h01.41.368,leap3,2022.2.5,59.93917831064431,
,,,,,,,,,,,,,,,,,,,,6,0,6,0,4,0,4,0,,,,,,volition,w,g,upper,,,,,,,1,w,HiDemTar,g,1,0.5791100449860096,,,,,,,,,,,,,,,,,,,,302,2023-11-14_10h01.41.368,leap3,2022.2.5,59.93917831064431,
,,,,,,,,,,,,,,,,,,,,6,0,6,0,5,0,5,0,,,,,,recollect,w,g,upper,,,,,,,1,w,HiDemTar,g,1,0.5310902786441147,,,,,,,,,,,,,,,,,,,,302,2023-11-14_10h01.41.368,leap3,2022.2.5,59.93917831064431,
,,,,,,,,,,,,,,,,,,,,6,0,6,0,6,0,6,0,,,,,,harfing,nw,h,upper,,,,,,,1,nw,HiDemTar,h,1,0.7652265732176602,,,,,,,,,,,,,,,,,,,,302,2023-11-14_10h01.41.368,leap3,2022.2.5,59.93917831064431,
,,,,,,,,,,,,,,,,,,,,6,0,6,0,7,0,7,0,,,,,,fillings,w,g,upper,,,,,,,1,w,HiDemTar,h,0,0.7019876088015735,,,,,,,,,,,,,,,,,,,,302,2023-11-14_10h01.41.368,leap3,2022.2.5,59.93917831064431,
,,,,,,,,,,,,,,,,,,,,6,0,6,0,8,0,8,0,,,,,,pender,nw,h,upper,,,,,,,1,nw,HiDemTar,h,1,0.5845720055513084,,,,,,,,,,,,,,,,,,,,302,2023-11-14_10h01.41.368,leap3,2022.2.5,59.93917831064431,
,,,,,,,,,,,,,,,,,,,,6,0,6,0,9,0,9,0,,,,,,pillage,w,g,upper,,,,,,,1,w,HiDemTar,h,0,0.592030968517065,,,,,,,,,,,,,,,,,,,,302,2023-11-14_10h01.41.368,leap3,2022.2.5,59.93917831064431,
,,,,,,,,,,,,,,,,,,,,6,0,6,0,10,0,10,0,,,,,,dests,nw,h,upper,,,,,,,1,nw,HiDemTar,h,1,0.6154345008544624,,,,,,,,,,,,,,,,,,,,302,2023-11-14_10h01.41.368,leap3,2022.2.5,59.93917831064431,
,,,,,,,,,,,,,,,,,,,,6,0,6,0,11,0,11,0,,,,,,lizard,target,q,upper,,,,,,,1,target,HiDemTar,g,0,0.558060075622052,,,,,,,,,,,,,,,,,,,,302,2023-11-14_10h01.41.368,leap3,2022.2.5,59.93917831064431,
,,,,,,,,,,,,,,,,,,,,6,0,6,0,12,0,12,0,,,,,,hostade,nw,h,upper,,,,,,,1,aftertar1,HiDemTar,q,0,0.05393049819394946,,1,,,,,,,,,,,,,,,,,,302,2023-11-14_10h01.41.368,leap3,2022.2.5,59.93917831064431,
,,,,,,,,,,,,,,,,,,,,6,0,6,0,13,0,13,0,,,,,,tharcely,nw,h,upper,,,,,,,1,aftertar2,HiDemTar,h,1,1.162566838786006,,,,,,,,,,,,,,,,,,,,302,2023-11-14_10h01.41.368,leap3,2022.2.5,59.93917831064431,
,,,,,,,,,,,,,,,,,,,,6,0,6,0,14,0,14,0,,,,,,alticles,nw,h,upper,,,,,,,1,aftertar3,HiDemTar,h,1,0.8832738543860614,,,,,,,,,,,,,,,,,,,,302,2023-11-14_10h01.41.368,leap3,2022.2.5,59.93917831064431,
,,,,,,,,,,,,,,,,,,,,6,0,6,0,15,0,15,0,,,,,,showdown,w,g,upper,,,,,,,1,nw,HiDemTar,g,1,0.8632780062034726,,,,,,,,,,,,,,,,,,,,302,2023-11-14_10h01.41.368,leap3,2022.2.5,59.93917831064431,
,,,,,,,,,,,,,,,,,,,,6,0,6,0,16,0,16,0,,,,,,category,w,g,upper,,,,,,,1,w,HiDemTar,g,1,0.6359709831885993,,,,,,,,,,,,,,,,,,,,302,2023-11-14_10h01.41.368,leap3,2022.2.5,59.93917831064431,
,,,,,,,,,,,,,,,,,,,,6,0,6,0,17,0,17,0,,,,,,talate,nw,h,upper,,,,,,,1,w,HiDemTar,h,1,0.8329409160651267,,,,,,,,,,,,,,,,,,,,302,2023-11-14_10h01.41.368,leap3,2022.2.5,59.93917831064431,
,,,,,,,,,,,,,,,,,,,,6,0,6,0,18,0,18,0,,,,,,tablet,w,g,upper,,,,,,,1,nw,HiDemTar,g,1,0.6633605747483671,,,,,,,,,,,,,,,,,,,,302,2023-11-14_10h01.41.368,leap3,2022.2.5,59.93917831064431,
,,,,,,,,,,,,,,,,,,,,6,0,6,0,19,0,19,0,,,,,,matter,w,g,upper,,,,,,,1,w,HiDemTar,g,1,0.5800787499174476,,,,,,,,,,,,,,,,,,,,302,2023-11-14_10h01.41.368,leap3,2022.2.5,59.93917831064431,
,,,,,,,,,,,,,,,,,,,,6,0,6,0,20,0,20,0,,,,,,potatoes,w,g,upper,,,,,,,1,w,HiDemTar,g,1,0.5321112927049398,,,,,,,,,,,,,,,,,,,,302,2023-11-14_10h01.41.368,leap3,2022.2.5,59.93917831064431,
,,,,,,,,,,,,,,,,,,,,6,0,6,0,21,0,21,0,,,,,,havel,nw,h,upper,,,,,,,1,w,HiDemTar,h,1,0.597233041189611,,,,,,,,,,,,,,,,,,,,302,2023-11-14_10h01.41.368,leap3,2022.2.5,59.93917831064431,
,,,,,,,,,,,,,,,,,,,,6,0,6,0,22,0,22,0,,,,,,sodent,nw,h,upper,,,,,,,1,nw,HiDemTar,h,1,0.5565580194815993,,,,,,,,,,,,,,,,,,,,302,2023-11-14_10h01.41.368,leap3,2022.2.5,59.93917831064431,
,,,,,,,,,,,,,,,,,,,,6,0,6,0,23,0,23,0,,,,,,talent,w,g,upper,,,,,,,1,nw,HiDemTar,g,1,0.8452291688881814,,,,,,,,,,,,,,,,,,,,302,2023-11-14_10h01.41.368,leap3,2022.2.5,59.93917831064431,
,,,,,,,,,,,,,,,,,,,,6,0,6,0,24,0,24,0,,,,,,turntable,w,g,upper,,,,,,,1,w,HiDemTar,g,1,0.7948462390340865,,,,,,,,,,,,,,,,,,,,302,2023-11-14_10h01.41.368,leap3,2022.2.5,59.93917831064431,
,,,,,,,,,,,,,,,,,,,,6,0,6,0,25,0,25,0,,,,,,emotion,w,g,upper,,,,,,,1,w,HiDemTar,g,1,0.47334240889176726,,,,,,,,,,,,,,,,,,,,302,2023-11-14_10h01.41.368,leap3,2022.2.5,59.93917831064431,
,,,,,,,,,,,,,,,,,,,,6,0,6,0,26,0,26,0,,,,,,amms,nw,h,upper,,,,,,,1,w,HiDemTar,h,1,0.6933510364033282,,,,,,,,,,,,,,,,,,,,302,2023-11-14_10h01.41.368,leap3,2022.2.5,59.93917831064431,
,,,,,,,,,,,,,,,,,,,,6,0,6,0,27,0,27,0,,,,,,monopoly,w,g,upper,,,,,,,1,nw,HiDemTar,g,1,0.8570052599534392,,,,,,,,,,,,,,,,,,,,302,2023-11-14_10h01.41.368,leap3,2022.2.5,59.93917831064431,
,,,,,,,,,,,,,,,,,,,,6,0,6,0,28,0,28,0,,,,,,rivet,w,g,upper,,,,,,,1,w,HiDemTar,g,1,0.5495595722459257,,,,,,,,,,,,,,,,,,,,302,2023-11-14_10h01.41.368,leap3,2022.2.5,59.93917831064431,
,,,,,,,,,,,,,,,,,,,,6,0,6,0,29,0,29,0,,,,,,irfirm,nw,h,upper,,,,,,,1,w,HiDemTar,g,0,0.5588185526430607,,,,,,,,,,,,,,,,,,,,302,2023-11-14_10h01.41.368,leap3,2022.2.5,59.93917831064431,
,,,,,,,,,,,,,,,,,,,,6,0,6,0,,,,,,,,,,,,,,,,,,,,,,,,,,1,,,,,,,,,,,,,,,,,,,302,2023-11-14_10h01.41.368,leap3,2022.2.5,59.93917831064431,
,,,,,,,,,,,,,,,,,,,,7,0,7,0,0,0,0,0,,,,,,pakened,nw,h,lower,,,,,,,3,nw,LoDemNoTar,h,1,0.6873054024763405,,,,,,,,,,,,,,,,,,,,302,2023-11-14_10h01.41.368,leap3,2022.2.5,59.93917831064431,
,,,,,,,,,,,,,,,,,,,,7,0,7,0,1,0,1,0,,,,,,calming,w,g,lower,,,,,,,3,w,LoDemNoTar,g,1,0.6028595427051187,,,,,,,,,,,,,,,,,,,,302,2023-11-14_10h01.41.368,leap3,2022.2.5,59.93917831064431,
,,,,,,,,,,,,,,,,,,,,7,0,7,0,2,0,2,0,,,,,,fuhrek,nw,h,lower,,,,,,,3,nw,LoDemNoTar,h,1,0.6414140732958913,,,,,,,,,,,,,,,,,,,,302,2023-11-14_10h01.41.368,leap3,2022.2.5,59.93917831064431,
,,,,,,,,,,,,,,,,,,,,7,0,7,0,3,0,3,0,,,,,,gumdrep,nw,h,lower,,,,,,,3,nw,LoDemNoTar,h,1,0.6708350977860391,,,,,,,,,,,,,,,,,,,,302,2023-11-14_10h01.41.368,leap3,2022.2.5,59.93917831064431,
,,,,,,,,,,,,,,,,,,,,7,0,7,0,4,0,4,0,,,,,,kilotin,nw,h,lower,,,,,,,3,nw,LoDemNoTar,h,1,0.562892013695091,,,,,,,,,,,,,,,,,,,,302,2023-11-14_10h01.41.368,leap3,2022.2.5,59.93917831064431,
,,,,,,,,,,,,,,,,,,,,7,0,7,0,5,0,5,0,,,,,,scabry,nw,h,lower,,,,,,,3,nw,LoDemNoTar,h,1,0.5467474800534546,,,,,,,,,,,,,,,,,,,,302,2023-11-14_10h01.41.368,leap3,2022.2.5,59.93917831064431,
,,,,,,,,,,,,,,,,,,,,7,0,7,0,6,0,6,0,,,,,,calcify,w,g,lower,,,,,,,3,w,LoDemNoTar,h,0,0.6120499921962619,,,,,,,,,,,,,,,,,,,,302,2023-11-14_10h01.41.368,leap3,2022.2.5,59.93917831064431,
,,,,,,,,,,,,,,,,,,,,7,0,7,0,7,0,7,0,,,,,,undertake,w,g,lower,,,,,,,3,w,LoDemNoTar,g,1,0.44265306182205677,,,,,,,,,,,,,,,,,,,,302,2023-11-14_10h01.41.368,leap3,2022.2.5,59.93917831064431,
,,,,,,,,,,,,,,,,,,,,7,0,7,0,8,0,8,0,,,,,,cills,nw,h,lower,,,,,,,3,nw,LoDemNoTar,h,1,0.49595998553559184,,,,,,,,,,,,,,,,,,,,302,2023-11-14_10h01.41.368,leap3,2022.2.5,59.93917831064431,
,,,,,,,,,,,,,,,,,,,,7,0,7,0,9,0,9,0,,,,,,arranged,w,g,lower,,,,,,,3,w,LoDemNoTar,g,1,0.6753425896167755,,,,,,,,,,,,,,,,,,,,302,2023-11-14_10h01.41.368,leap3,2022.2.5,59.93917831064431,
,,,,,,,,,,,,,,,,,,,,7,0,7,0,10,0,10,0,,,,,,fetching,w,g,lower,,,,,,,3,w,LoDemNoTar,g,1,0.519408542662859,,,,,,,,,,,,,,,,,,,,302,2023-11-14_10h01.41.368,leap3,2022.2.5,59.93917831064431,
,,,,,,,,,,,,,,,,,,,,7,0,7,0,11,0,11,0,,,,,,hinsome,nw,h,lower,,,,,,,3,nw,LoDemNoTar,h,1,0.625484733376652,,,,,,,,,,,,,,,,,,,,302,2023-11-14_10h01.41.368,leap3,2022.2.5,59.93917831064431,
,,,,,,,,,,,,,,,,,,,,7,0,7,0,12,0,12,0,,,,,,embrace,w,g,lower,,,,,,,3,w,LoDemNoTar,g,1,0.5351210320368409,,,,,,,,,,,,,,,,,,,,302,2023-11-14_10h01.41.368,leap3,2022.2.5,59.93917831064431,
,,,,,,,,,,,,,,,,,,,,7,0,7,0,13,0,13,0,,,,,,surface,w,g,lower,,,,,,,3,w,LoDemNoTar,g,1,0.46481012273579836,,,,,,,,,,,,,,,,,,,,302,2023-11-14_10h01.41.368,leap3,2022.2.5,59.93917831064431,
,,,,,,,,,,,,,,,,,,,,7,0,7,0,14,0,14,0,,,,,,protest,w,g,lower,,,,,,,3,w,LoDemNoTar,g,1,0.7415515654720366,,,,,,,,,,,,,,,,,,,,302,2023-11-14_10h01.41.368,leap3,2022.2.5,59.93917831064431,
,,,,,,,,,,,,,,,,,,,,7,0,7,0,15,0,15,0,,,,,,carbled,nw,h,lower,,,,,,,3,nw,LoDemNoTar,h,1,0.6460136016830802,,,,,,,,,,,,,,,,,,,,302,2023-11-14_10h01.41.368,leap3,2022.2.5,59.93917831064431,
,,,,,,,,,,,,,,,,,,,,7,0,7,0,16,0,16,0,,,,,,digest,w,g,lower,,,,,,,3,w,LoDemNoTar,g,1,0.5793954255059361,,,,,,,,,,,,,,,,,,,,302,2023-11-14_10h01.41.368,leap3,2022.2.5,59.93917831064431,
,,,,,,,,,,,,,,,,,,,,7,0,7,0,17,0,17,0,,,,,,gensions,nw,h,lower,,,,,,,3,nw,LoDemNoTar,h,1,0.5312955407425761,,,,,,,,,,,,,,,,,,,,302,2023-11-14_10h01.41.368,leap3,2022.2.5,59.93917831064431,
,,,,,,,,,,,,,,,,,,,,7,0,7,0,18,0,18,0,,,,,,moral,w,g,lower,,,,,,,3,w,LoDemNoTar,g,1,0.49270095117390156,,,,,,,,,,,,,,,,,,,,302,2023-11-14_10h01.41.368,leap3,2022.2.5,59.93917831064431,
,,,,,,,,,,,,,,,,,,,,7,0,7,0,19,0,19,0,,,,,,upstairs,w,g,lower,,,,,,,3,w,LoDemNoTar,g,1,0.535413034260273,,,,,,,,,,,,,,,,,,,,302,2023-11-14_10h01.41.368,leap3,2022.2.5,59.93917831064431,
,,,,,,,,,,,,,,,,,,,,7,0,7,0,20,0,20,0,,,,,,seasoning,w,g,lower,,,,,,,3,w,LoDemNoTar,g,1,0.4726835833862424,,,,,,,,,,,,,,,,,,,,302,2023-11-14_10h01.41.368,leap3,2022.2.5,59.93917831064431,
,,,,,,,,,,,,,,,,,,,,7,0,7,0,21,0,21,0,,,,,,omners,nw,h,lower,,,,,,,3,nw,LoDemNoTar,h,1,0.6127601326443255,,,,,,,,,,,,,,,,,,,,302,2023-11-14_10h01.41.368,leap3,2022.2.5,59.93917831064431,
,,,,,,,,,,,,,,,,,,,,7,0,7,0,22,0,22,0,,,,,,undimmec,nw,h,lower,,,,,,,3,nw,LoDemNoTar,h,1,0.6028760964982212,,,,,,,,,,,,,,,,,,,,302,2023-11-14_10h01.41.368,leap3,2022.2.5,59.93917831064431,
,,,,,,,,,,,,,,,,,,,,7,0,7,0,23,0,23,0,,,,,,etcess,nw,h,lower,,,,,,,3,nw,LoDemNoTar,h,1,0.5608516414649785,,,,,,,,,,,,,,,,,,,,302,2023-11-14_10h01.41.368,leap3,2022.2.5,59.93917831064431,
,,,,,,,,,,,,,,,,,,,,7,0,7,0,24,0,24,0,,,,,,provide,w,g,lower,,,,,,,3,w,LoDemNoTar,g,1,0.7128674983978271,,,,,,,,,,,,,,,,,,,,302,2023-11-14_10h01.41.368,leap3,2022.2.5,59.93917831064431,
,,,,,,,,,,,,,,,,,,,,7,0,7,0,25,0,25,0,,,,,,mosary,nw,h,lower,,,,,,,3,nw,LoDemNoTar,h,1,0.5539151038974524,,,,,,,,,,,,,,,,,,,,302,2023-11-14_10h01.41.368,leap3,2022.2.5,59.93917831064431,
,,,,,,,,,,,,,,,,,,,,7,0,7,0,26,0,26,0,,,,,,planofoad,nw,h,lower,,,,,,,3,nw,LoDemNoTar,h,1,0.642609559930861,,,,,,,,,,,,,,,,,,,,302,2023-11-14_10h01.41.368,leap3,2022.2.5,59.93917831064431,
,,,,,,,,,,,,,,,,,,,,7,0,7,0,27,0,27,0,,,,,,describe,w,g,lower,,,,,,,3,w,LoDemNoTar,g,1,0.5034755608066916,,,,,,,,,,,,,,,,,,,,302,2023-11-14_10h01.41.368,leap3,2022.2.5,59.93917831064431,
,,,,,,,,,,,,,,,,,,,,7,0,7,0,28,0,28,0,,,,,,release,w,g,lower,,,,,,,3,w,LoDemNoTar,g,1,0.4893048550002277,,,,,,,,,,,,,,,,,,,,302,2023-11-14_10h01.41.368,leap3,2022.2.5,59.93917831064431,
,,,,,,,,,,,,,,,,,,,,7,0,7,0,29,0,29,0,,,,,,mustled,nw,h,lower,,,,,,,3,nw,LoDemNoTar,h,1,0.7006749240681529,,,,,,,,,,,,,,,,,,,,302,2023-11-14_10h01.41.368,leap3,2022.2.5,59.93917831064431,
,,,,,,,,,,,,,,,,,,,,7,0,7,0,,,,,,,,,,,,,,,,,,,,,,,,,,NA,,,,,,,,,,,,,,,,,,,302,2023-11-14_10h01.41.368,leap3,2022.2.5,59.93917831064431,
,,,,,,,,,,,,,,,,,,,,8,0,8,0,0,0,0,0,,,,,,pollute,w,g,upper,,,,,,,2,w,HiDemNoTar,g,1,0.7988637499511242,,,,,,,,,,,,,,,,,,,,302,2023-11-14_10h01.41.368,leap3,2022.2.5,59.93917831064431,
,,,,,,,,,,,,,,,,,,,,8,0,8,0,1,0,1,0,,,,,,shivering,w,g,upper,,,,,,,2,w,HiDemNoTar,g,1,0.4460716708563268,,,,,,,,,,,,,,,,,,,,302,2023-11-14_10h01.41.368,leap3,2022.2.5,59.93917831064431,
,,,,,,,,,,,,,,,,,,,,8,0,8,0,2,0,2,0,,,,,,foster,w,g,upper,,,,,,,2,w,HiDemNoTar,g,1,0.44270735746249557,,,,,,,,,,,,,,,,,,,,302,2023-11-14_10h01.41.368,leap3,2022.2.5,59.93917831064431,
,,,,,,,,,,,,,,,,,,,,8,0,8,0,3,0,3,0,,,,,,shests,nw,h,upper,,,,,,,2,nw,HiDemNoTar,h,1,0.6394038279540837,,,,,,,,,,,,,,,,,,,,302,2023-11-14_10h01.41.368,leap3,2022.2.5,59.93917831064431,
,,,,,,,,,,,,,,,,,,,,8,0,8,0,4,0,4,0,,,,,,scack,nw,h,upper,,,,,,,2,nw,HiDemNoTar,h,1,0.8041151515208185,,,,,,,,,,,,,,,,,,,,302,2023-11-14_10h01.41.368,leap3,2022.2.5,59.93917831064431,
,,,,,,,,,,,,,,,,,,,,8,0,8,0,5,0,5,0,,,,,,audience,w,g,upper,,,,,,,2,w,HiDemNoTar,g,1,0.506210514344275,,,,,,,,,,,,,,,,,,,,302,2023-11-14_10h01.41.368,leap3,2022.2.5,59.93917831064431,
,,,,,,,,,,,,,,,,,,,,8,0,8,0,6,0,6,0,,,,,,tyena,nw,h,upper,,,,,,,2,nw,HiDemNoTar,h,1,0.9722735555842519,,,,,,,,,,,,,,,,,,,,302,2023-11-14_10h01.41.368,leap3,2022.2.5,59.93917831064431,
,,,,,,,,,,,,,,,,,,,,8,0,8,0,7,0,7,0,,,,,,befin,nw,h,upper,,,,,,,2,nw,HiDemNoTar,h,1,0.5875853868201375,,,,,,,,,,,,,,,,,,,,302,2023-11-14_10h01.41.368,leap3,2022.2.5,59.93917831064431,
,,,,,,,,,,,,,,,,,,,,8,0,8,0,8,0,8,0,,,,,,chraps,nw,h,upper,,,,,,,2,nw,HiDemNoTar,h,1,0.514293871819973,,,,,,,,,,,,,,,,,,,,302,2023-11-14_10h01.41.368,leap3,2022.2.5,59.93917831064431,
,,,,,,,,,,,,,,,,,,,,8,0,8,0,9,0,9,0,,,,,,sazer,nw,h,upper,,,,,,,2,nw,HiDemNoTar,h,1,0.6123588783666492,,,,,,,,,,,,,,,,,,,,302,2023-11-14_10h01.41.368,leap3,2022.2.5,59.93917831064431,
,,,,,,,,,,,,,,,,,,,,8,0,8,0,10,0,10,0,,,,,,cripet,nw,h,upper,,,,,,,2,nw,HiDemNoTar,h,1,0.881373193114996,,,,,,,,,,,,,,,,,,,,302,2023-11-14_10h01.41.368,leap3,2022.2.5,59.93917831064431,
,,,,,,,,,,,,,,,,,,,,8,0,8,0,11,0,11,0,,,,,,wrestle,w,g,upper,,,,,,,2,w,HiDemNoTar,g,1,0.5815106192603707,,,,,,,,,,,,,,,,,,,,302,2023-11-14_10h01.41.368,leap3,2022.2.5,59.93917831064431,
,,,,,,,,,,,,,,,,,,,,8,0,8,0,12,0,12,0,,,,,,labitable,nw,h,upper,,,,,,,2,nw,HiDemNoTar,h,1,0.8367385976016521,,,,,,,,,,,,,,,,,,,,302,2023-11-14_10h01.41.368,leap3,2022.2.5,59.93917831064431,
,,,,,,,,,,,,,,,,,,,,8,0,8,0,13,0,13,0,,,,,,gelfry,nw,h,upper,,,,,,,2,nw,HiDemNoTar,h,1,0.5533877117559314,,,,,,,,,,,,,,,,,,,,302,2023-11-14_10h01.41.368,leap3,2022.2.5,59.93917831064431,
,,,,,,,,,,,,,,,,,,,,8,0,8,0,14,0,14,0,,,,,,hustle,w,g,upper,,,,,,,2,w,HiDemNoTar,g,1,0.6174093214794993,,,,,,,,,,,,,,,,,,,,302,2023-11-14_10h01.41.368,leap3,2022.2.5,59.93917831064431,
,,,,,,,,,,,,,,,,,,,,8,0,8,0,15,0,15,0,,,,,,asthmatic,w,g,upper,,,,,,,2,w,HiDemNoTar,h,0,0.591519137378782,,,,,,,,,,,,,,,,,,,,302,2023-11-14_10h01.41.368,leap3,2022.2.5,59.93917831064431,
,,,,,,,,,,,,,,,,,,,,8,0,8,0,16,0,16,0,,,,,,defeat,w,g,upper,,,,,,,2,w,HiDemNoTar,g,1,0.6389406635425985,,,,,,,,,,,,,,,,,,,,302,2023-11-14_10h01.41.368,leap3,2022.2.5,59.93917831064431,
,,,,,,,,,,,,,,,,,,,,8,0,8,0,17,0,17,0,,,,,,mitro,nw,h,upper,,,,,,,2,nw,HiDemNoTar,h,1,0.5315004717558622,,,,,,,,,,,,,,,,,,,,302,2023-11-14_10h01.41.368,leap3,2022.2.5,59.93917831064431,
,,,,,,,,,,,,,,,,,,,,8,0,8,0,18,0,18,0,,,,,,slooch,nw,h,upper,,,,,,,2,nw,HiDemNoTar,h,1,0.6455550724640489,,,,,,,,,,,,,,,,,,,,302,2023-11-14_10h01.41.368,leap3,2022.2.5,59.93917831064431,
,,,,,,,,,,,,,,,,,,,,8,0,8,0,19,0,19,0,,,,,,mystery,w,g,upper,,,,,,,2,w,HiDemNoTar,g,1,0.5614161128178239,,,,,,,,,,,,,,,,,,,,302,2023-11-14_10h01.41.368,leap3,2022.2.5,59.93917831064431,
,,,,,,,,,,,,,,,,,,,,8,0,8,0,20,0,20,0,,,,,,disease,w,g,upper,,,,,,,2,w,HiDemNoTar,g,1,0.489380007609725,,,,,,,,,,,,,,,,,,,,302,2023-11-14_10h01.41.368,leap3,2022.2.5,59.93917831064431,
,,,,,,,,,,,,,,,,,,,,8,0,8,0,21,0,21,0,,,,,,draze,nw,h,upper,,,,,,,2,nw,HiDemNoTar,h,1,0.5399721725843847,,,,,,,,,,,,,,,,,,,,302,2023-11-14_10h01.41.368,leap3,2022.2.5,59.93917831064431,
,,,,,,,,,,,,,,,,,,,,8,0,8,0,22,0,22,0,,,,,,graiking,nw,h,upper,,,,,,,2,nw,HiDemNoTar,h,1,0.5486805867403746,,,,,,,,,,,,,,,,,,,,302,2023-11-14_10h01.41.368,leap3,2022.2.5,59.93917831064431,
,,,,,,,,,,,,,,,,,,,,8,0,8,0,23,0,23,0,,,,,,flougy,nw,h,upper,,,,,,,2,nw,HiDemNoTar,h,1,0.5174787463620305,,,,,,,,,,,,,,,,,,,,302,2023-11-14_10h01.41.368,leap3,2022.2.5,59.93917831064431,
,,,,,,,,,,,,,,,,,,,,8,0,8,0,24,0,24,0,,,,,,grefab,nw,h,upper,,,,,,,2,nw,HiDemNoTar,h,1,0.4714963734149933,,,,,,,,,,,,,,,,,,,,302,2023-11-14_10h01.41.368,leap3,2022.2.5,59.93917831064431,
,,,,,,,,,,,,,,,,,,,,8,0,8,0,25,0,25,0,,,,,,comment,w,g,upper,,,,,,,2,w,HiDemNoTar,g,1,0.586900738067925,,,,,,,,,,,,,,,,,,,,302,2023-11-14_10h01.41.368,leap3,2022.2.5,59.93917831064431,
,,,,,,,,,,,,,,,,,,,,8,0,8,0,26,0,26,0,,,,,,oppose,w,g,upper,,,,,,,2,w,HiDemNoTar,g,1,0.6655942904762924,,,,,,,,,,,,,,,,,,,,302,2023-11-14_10h01.41.368,leap3,2022.2.5,59.93917831064431,
,,,,,,,,,,,,,,,,,,,,8,0,8,0,27,0,27,0,,,,,,pressures,w,g,upper,,,,,,,2,w,HiDemNoTar,g,1,0.5016245595179498,,,,,,,,,,,,,,,,,,,,302,2023-11-14_10h01.41.368,leap3,2022.2.5,59.93917831064431,
,,,,,,,,,,,,,,,,,,,,8,0,8,0,28,0,28,0,,,,,,saturate,w,g,upper,,,,,,,2,w,HiDemNoTar,g,1,0.5123226926662028,,,,,,,,,,,,,,,,,,,,302,2023-11-14_10h01.41.368,leap3,2022.2.5,59.93917831064431,
,,,,,,,,,,,,,,,,,,,,8,0,8,0,29,0,29,0,,,,,,intended,w,g,upper,,,,,,,2,w,HiDemNoTar,g,1,0.43344010040163994,,,,,,,,,,,,,,,,,,,,302,2023-11-14_10h01.41.368,leap3,2022.2.5,59.93917831064431,
,,,,,,,,,,,,,,,,,,,,8,0,8,0,,,,,,,,,,,,,,,,,,,,,,,,,,NA,,,,,,,,,,,,,,,,,,,302,2023-11-14_10h01.41.368,leap3,2022.2.5,59.93917831064431,
,,,,,,,,,,,,,,,,,,,,9,0,9,0,0,0,0,0,,,,,,rational,w,g,lower,,,,,,,4,w,LoDemTar,g,1,0.5036162650212646,,,,,,,,,,,,,,,,,,,,302,2023-11-14_10h01.41.368,leap3,2022.2.5,59.93917831064431,
,,,,,,,,,,,,,,,,,,,,9,0,9,0,1,0,1,0,,,,,,derisury,nw,h,lower,,,,,,,4,nw,LoDemTar,h,1,0.577615603338927,,,,,,,,,,,,,,,,,,,,302,2023-11-14_10h01.41.368,leap3,2022.2.5,59.93917831064431,
,,,,,,,,,,,,,,,,,,,,9,0,9,0,2,0,2,0,,,,,,heaviest,w,g,lower,,,,,,,4,w,LoDemTar,g,1,0.5456675360910594,,,,,,,,,,,,,,,,,,,,302,2023-11-14_10h01.41.368,leap3,2022.2.5,59.93917831064431,
,,,,,,,,,,,,,,,,,,,,9,0,9,0,3,0,3,0,,,,,,ilcurring,nw,h,lower,,,,,,,4,nw,LoDemTar,h,1,0.6110283159650862,,,,,,,,,,,,,,,,,,,,302,2023-11-14_10h01.41.368,leap3,2022.2.5,59.93917831064431,
,,,,,,,,,,,,,,,,,,,,9,0,9,0,4,0,4,0,,,,,,smallash,nw,h,lower,,,,,,,4,nw,LoDemTar,h,1,0.48019949020817876,,,,,,,,,,,,,,,,,,,,302,2023-11-14_10h01.41.368,leap3,2022.2.5,59.93917831064431,
,,,,,,,,,,,,,,,,,,,,9,0,9,0,5,0,5,0,,,,,,nature,w,g,lower,,,,,,,4,w,LoDemTar,g,1,0.5636140736751258,,,,,,,,,,,,,,,,,,,,302,2023-11-14_10h01.41.368,leap3,2022.2.5,59.93917831064431,
,,,,,,,,,,,,,,,,,,,,9,0,9,0,6,0,6,0,,,,,,crazy,w,g,lower,,,,,,,4,w,LoDemTar,g,1,0.4754708455875516,,,,,,,,,,,,,,,,,,,,302,2023-11-14_10h01.41.368,leap3,2022.2.5,59.93917831064431,
,,,,,,,,,,,,,,,,,,,,9,0,9,0,7,0,7,0,,,,,,pamine,nw,h,lower,,,,,,,4,nw,LoDemTar,h,1,0.57489422429353,,,,,,,,,,,,,,,,,,,,302,2023-11-14_10h01.41.368,leap3,2022.2.5,59.93917831064431,
,,,,,,,,,,,,,,,,,,,,9,0,9,0,8,0,8,0,,,,,,aicline,nw,h,lower,,,,,,,4,nw,LoDemTar,h,1,0.566249705851078,,,,,,,,,,,,,,,,,,,,302,2023-11-14_10h01.41.368,leap3,2022.2.5,59.93917831064431,
,,,,,,,,,,,,,,,,,,,,9,0,9,0,9,0,9,0,,,,,,egcused,nw,h,lower,,,,,,,4,nw,LoDemTar,h,1,0.5341791436076164,,,,,,,,,,,,,,,,,,,,302,2023-11-14_10h01.41.368,leap3,2022.2.5,59.93917831064431,
,,,,,,,,,,,,,,,,,,,,9,0,9,0,10,0,10,0,,,,,,trewl,nw,h,lower,,,,,,,4,nw,LoDemTar,h,1,0.38365143770352006,,,,,,,,,,,,,,,,,,,,302,2023-11-14_10h01.41.368,leap3,2022.2.5,59.93917831064431,
,,,,,,,,,,,,,,,,,,,,9,0,9,0,11,0,11,0,,,,,,rejoiced,w,g,lower,,,,,,,4,w,LoDemTar,g,1,0.6549193323589861,,,,,,,,,,,,,,,,,,,,302,2023-11-14_10h01.41.368,leap3,2022.2.5,59.93917831064431,
,,,,,,,,,,,,,,,,,,,,9,0,9,0,12,0,12,0,,,,,,jinds,nw,h,lower,,,,,,,4,nw,LoDemTar,h,1,0.5287982947193086,,,,,,,,,,,,,,,,,,,,302,2023-11-14_10h01.41.368,leap3,2022.2.5,59.93917831064431,
,,,,,,,,,,,,,,,,,,,,9,0,9,0,13,0,13,0,,,,,,impirt,nw,h,lower,,,,,,,4,nw,LoDemTar,h,1,0.6122565786354244,,,,,,,,,,,,,,,,,,,,302,2023-11-14_10h01.41.368,leap3,2022.2.5,59.93917831064431,
,,,,,,,,,,,,,,,,,,,,9,0,9,0,14,0,14,0,,,,,,giving,w,g,lower,,,,,,,4,w,LoDemTar,g,1,0.5935313692316413,,,,,,,,,,,,,,,,,,,,302,2023-11-14_10h01.41.368,leap3,2022.2.5,59.93917831064431,
,,,,,,,,,,,,,,,,,,,,9,0,9,0,15,0,15,0,,,,,,arrigns,nw,h,lower,,,,,,,4,nw,LoDemTar,h,1,0.5840383237227798,,,,,,,,,,,,,,,,,,,,302,2023-11-14_10h01.41.368,leap3,2022.2.5,59.93917831064431,
,,,,,,,,,,,,,,,,,,,,9,0,9,0,16,0,16,0,,,,,,miability,nw,h,lower,,,,,,,4,nw,LoDemTar,h,1,0.6073779594153166,,,,,,,,,,,,,,,,,,,,302,2023-11-14_10h01.41.368,leap3,2022.2.5,59.93917831064431,
,,,,,,,,,,,,,,,,,,,,9,0,9,0,17,0,17,0,,,,,,stable,w,g,lower,,,,,,,4,w,LoDemTar,g,1,0.5654660677537322,,,,,,,,,,,,,,,,,,,,302,2023-11-14_10h01.41.368,leap3,2022.2.5,59.93917831064431,
,,,,,,,,,,,,,,,,,,,,9,0,9,0,18,0,18,0,,,,,,rationale,w,g,lower,,,,,,,4,w,LoDemTar,g,1,0.44641598174348474,,,,,,,,,,,,,,,,,,,,302,2023-11-14_10h01.41.368,leap3,2022.2.5,59.93917831064431,
,,,,,,,,,,,,,,,,,,,,9,0,9,0,19,0,19,0,,,,,,sweeping,w,g,lower,,,,,,,4,w,LoDemTar,g,1,0.538954138290137,,,,,,,,,,,,,,,,,,,,302,2023-11-14_10h01.41.368,leap3,2022.2.5,59.93917831064431,
,,,,,,,,,,,,,,,,,,,,9,0,9,0,20,0,20,0,,,,,,vintnel,nw,h,lower,,,,,,,4,nw,LoDemTar,h,1,0.5151672293432057,,,,,,,,,,,,,,,,,,,,302,2023-11-14_10h01.41.368,leap3,2022.2.5,59.93917831064431,
,,,,,,,,,,,,,,,,,,,,9,0,9,0,21,0,21,0,,,,,,rangel,nw,h,lower,,,,,,,4,nw,LoDemTar,h,1,0.5737391272559762,,,,,,,,,,,,,,,,,,,,302,2023-11-14_10h01.41.368,leap3,2022.2.5,59.93917831064431,
,,,,,,,,,,,,,,,,,,,,9,0,9,0,22,0,22,0,,,,,,organize,w,g,lower,,,,,,,4,w,LoDemTar,g,1,0.5497191469185054,,,,,,,,,,,,,,,,,,,,302,2023-11-14_10h01.41.368,leap3,2022.2.5,59.93917831064431,
,,,,,,,,,,,,,,,,,,,,9,0,9,0,23,0,23,0,,,,,,stretches,w,g,lower,,,,,,,4,w,LoDemTar,g,1,0.8544388203881681,,,,,,,,,,,,,,,,,,,,302,2023-11-14_10h01.41.368,leap3,2022.2.5,59.93917831064431,
,,,,,,,,,,,,,,,,,,,,9,0,9,0,24,0,24,0,,,,,,forbid,w,g,lower,,,,,,,4,w,LoDemTar,g,1,0.5535168284550309,,,,,,,,,,,,,,,,,,,,302,2023-11-14_10h01.41.368,leap3,2022.2.5,59.93917831064431,
,,,,,,,,,,,,,,,,,,,,9,0,9,0,25,0,25,0,,,,,,resume,w,g,lower,,,,,,,4,w,LoDemTar,g,1,0.40147845912724733,,,,,,,,,,,,,,,,,,,,302,2023-11-14_10h01.41.368,leap3,2022.2.5,59.93917831064431,
,,,,,,,,,,,,,,,,,,,,9,0,9,0,26,0,26,0,,,,,,seighing,nw,h,lower,,,,,,,4,nw,LoDemTar,g,0,0.3281876062974334,,,,,,,,,,,,,,,,,,,,302,2023-11-14_10h01.41.368,leap3,2022.2.5,59.93917831064431,
,,,,,,,,,,,,,,,,,,,,9,0,9,0,27,0,27,0,,,,,,rabbit,target,q,lower,,,,,,,4,target,LoDemTar,g,0,0.8095615520142019,,,,,,,,,,,,,,,,,,,,302,2023-11-14_10h01.41.368,leap3,2022.2.5,59.93917831064431,
,,,,,,,,,,,,,,,,,,,,9,0,9,0,28,0,28,0,,,,,,lenie,nw,h,lower,,,,,,,4,aftertar1,LoDemTar,q,0,0.09552489593625069,,1,,,,,,,,,,,,,,,,,,302,2023-11-14_10h01.41.368,leap3,2022.2.5,59.93917831064431,
,,,,,,,,,,,,,,,,,,,,9,0,9,0,29,0,29,0,,,,,,handbook,w,g,lower,,,,,,,4,aftertar2,LoDemTar,h,0,0.06626774929463863,,,,,,,,,,,,,,,,,,,,302,2023-11-14_10h01.41.368,leap3,2022.2.5,59.93917831064431,
,,,,,,,,,,,,,,,,,,,,9,0,9,0,,,,,,,,,,,,,,,,,,,,,,,,,,1,,,,,,,,,,,,,,,,,,,302,2023-11-14_10h01.41.368,leap3,2022.2.5,59.93917831064431,
,,,,,,,,,,,,,,,,,,,,10,0,10,0,0,0,0,0,,,,,,create,w,g,lower,,,,,,,3,w,LoDemNoTar,g,1,0.6064085923135281,,,,,,,,,,,,,,,,,,,,302,2023-11-14_10h01.41.368,leap3,2022.2.5,59.93917831064431,
,,,,,,,,,,,,,,,,,,,,10,0,10,0,1,0,1,0,,,,,,trembles,w,g,lower,,,,,,,3,w,LoDemNoTar,g,1,0.5399519773200154,,,,,,,,,,,,,,,,,,,,302,2023-11-14_10h01.41.368,leap3,2022.2.5,59.93917831064431,
,,,,,,,,,,,,,,,,,,,,10,0,10,0,2,0,2,0,,,,,,demise,w,g,lower,,,,,,,3,w,LoDemNoTar,h,0,0.5966549962759018,,,,,,,,,,,,,,,,,,,,302,2023-11-14_10h01.41.368,leap3,2022.2.5,59.93917831064431,
,,,,,,,,,,,,,,,,,,,,10,0,10,0,3,0,3,0,,,,,,catacomb,w,g,lower,,,,,,,3,w,LoDemNoTar,h,0,0.6431829696521163,,,,,,,,,,,,,,,,,,,,302,2023-11-14_10h01.41.368,leap3,2022.2.5,59.93917831064431,
,,,,,,,,,,,,,,,,,,,,10,0,10,0,4,0,4,0,,,,,,glapula,nw,h,lower,,,,,,,3,nw,LoDemNoTar,h,1,0.6238479330204427,,,,,,,,,,,,,,,,,,,,302,2023-11-14_10h01.41.368,leap3,2022.2.5,59.93917831064431,
,,,,,,,,,,,,,,,,,,,,10,0,10,0,5,0,5,0,,,,,,scarlet,w,g,lower,,,,,,,3,w,LoDemNoTar,g,1,0.5812580143101513,,,,,,,,,,,,,,,,,,,,302,2023-11-14_10h01.41.368,leap3,2022.2.5,59.93917831064431,
,,,,,,,,,,,,,,,,,,,,10,0,10,0,6,0,6,0,,,,,,elbalm,nw,h,lower,,,,,,,3,nw,LoDemNoTar,h,1,1.188562633935362,,,,,,,,,,,,,,,,,,,,302,2023-11-14_10h01.41.368,leap3,2022.2.5,59.93917831064431,
,,,,,,,,,,,,,,,,,,,,10,0,10,0,7,0,7,0,,,,,,mining,w,g,lower,,,,,,,3,w,LoDemNoTar,g,1,0.8112165611237288,,,,,,,,,,,,,,,,,,,,302,2023-11-14_10h01.41.368,leap3,2022.2.5,59.93917831064431,
,,,,,,,,,,,,,,,,,,,,10,0,10,0,8,0,8,0,,,,,,snorls,nw,h,lower,,,,,,,3,nw,LoDemNoTar,h,1,0.9532669386826456,,,,,,,,,,,,,,,,,,,,302,2023-11-14_10h01.41.368,leap3,2022.2.5,59.93917831064431,
,,,,,,,,,,,,,,,,,,,,10,0,10,0,9,0,9,0,,,,,,submit,w,g,lower,,,,,,,3,w,LoDemNoTar,g,1,0.5763582070358098,,,,,,,,,,,,,,,,,,,,302,2023-11-14_10h01.41.368,leap3,2022.2.5,59.93917831064431,
,,,,,,,,,,,,,,,,,,,,10,0,10,0,10,0,10,0,,,,,,lavilion,nw,h,lower,,,,,,,3,nw,LoDemNoTar,h,1,0.7597182630561292,,,,,,,,,,,,,,,,,,,,302,2023-11-14_10h01.41.368,leap3,2022.2.5,59.93917831064431,
,,,,,,,,,,,,,,,,,,,,10,0,10,0,11,0,11,0,,,,,,downtrund,nw,h,lower,,,,,,,3,nw,LoDemNoTar,h,1,0.9757653302513063,,,,,,,,,,,,,,,,,,,,302,2023-11-14_10h01.41.368,leap3,2022.2.5,59.93917831064431,
,,,,,,,,,,,,,,,,,,,,10,0,10,0,12,0,12,0,,,,,,perform,w,g,lower,,,,,,,3,w,LoDemNoTar,g,1,0.5830620042979717,,,,,,,,,,,,,,,,,,,,302,2023-11-14_10h01.41.368,leap3,2022.2.5,59.93917831064431,
,,,,,,,,,,,,,,,,,,,,10,0,10,0,13,0,13,0,,,,,,marvel,w,g,lower,,,,,,,3,w,LoDemNoTar,g,1,0.5263632889837027,,,,,,,,,,,,,,,,,,,,302,2023-11-14_10h01.41.368,leap3,2022.2.5,59.93917831064431,
,,,,,,,,,,,,,,,,,,,,10,0,10,0,14,0,14,0,,,,,,blerapies,nw,h,lower,,,,,,,3,nw,LoDemNoTar,h,1,0.6397478077560663,,,,,,,,,,,,,,,,,,,,302,2023-11-14_10h01.41.368,leap3,2022.2.5,59.93917831064431,
,,,,,,,,,,,,,,,,,,,,10,0,10,0,15,0,15,0,,,,,,thrapping,nw,h,lower,,,,,,,3,nw,LoDemNoTar,h,1,1.1724277008324862,,,,,,,,,,,,,,,,,,,,302,2023-11-14_10h01.41.368,leap3,2022.2.5,59.93917831064431,
,,,,,,,,,,,,,,,,,,,,10,0,10,0,16,0,16,0,,,,,,blanned,nw,h,lower,,,,,,,3,nw,LoDemNoTar,h,1,0.5476066013798118,,,,,,,,,,,,,,,,,,,,302,2023-11-14_10h01.41.368,leap3,2022.2.5,59.93917831064431,
,,,,,,,,,,,,,,,,,,,,10,0,10,0,17,0,17,0,,,,,,tinker,w,g,lower,,,,,,,3,w,LoDemNoTar,g,1,0.6913431086577475,,,,,,,,,,,,,,,,,,,,302,2023-11-14_10h01.41.368,leap3,2022.2.5,59.93917831064431,
,,,,,,,,,,,,,,,,,,,,10,0,10,0,18,0,18,0,,,,,,hecture,nw,h,lower,,,,,,,3,nw,LoDemNoTar,h,1,0.6220710910856724,,,,,,,,,,,,,,,,,,,,302,2023-11-14_10h01.41.368,leap3,2022.2.5,59.93917831064431,
,,,,,,,,,,,,,,,,,,,,10,0,10,0,19,0,19,0,,,,,,confined,w,g,lower,,,,,,,3,w,LoDemNoTar,g,1,0.8751342152245343,,,,,,,,,,,,,,,,,,,,302,2023-11-14_10h01.41.368,leap3,2022.2.5,59.93917831064431,
,,,,,,,,,,,,,,,,,,,,10,0,10,0,20,0,20,0,,,,,,ezulated,nw,h,lower,,,,,,,3,nw,LoDemNoTar,h,1,0.6224346035160124,,,,,,,,,,,,,,,,,,,,302,2023-11-14_10h01.41.368,leap3,2022.2.5,59.93917831064431,
,,,,,,,,,,,,,,,,,,,,10,0,10,0,21,0,21,0,,,,,,neuran,nw,h,lower,,,,,,,3,nw,LoDemNoTar,h,1,0.707777326926589,,,,,,,,,,,,,,,,,,,,302,2023-11-14_10h01.41.368,leap3,2022.2.5,59.93917831064431,
,,,,,,,,,,,,,,,,,,,,10,0,10,0,22,0,22,0,,,,,,agony,w,g,lower,,,,,,,3,w,LoDemNoTar,g,1,1.1098518655635417,,,,,,,,,,,,,,,,,,,,302,2023-11-14_10h01.41.368,leap3,2022.2.5,59.93917831064431,
,,,,,,,,,,,,,,,,,,,,10,0,10,0,23,0,23,0,,,,,,outlaved,nw,h,lower,,,,,,,3,nw,LoDemNoTar,h,1,2.032089276239276,,,,,,,,,,,,,,,,,,,,302,2023-11-14_10h01.41.368,leap3,2022.2.5,59.93917831064431,
,,,,,,,,,,,,,,,,,,,,10,0,10,0,24,0,24,0,,,,,,deceit,w,g,lower,,,,,,,3,w,LoDemNoTar,g,1,0.597904778085649,,,,,,,,,,,,,,,,,,,,302,2023-11-14_10h01.41.368,leap3,2022.2.5,59.93917831064431,
,,,,,,,,,,,,,,,,,,,,10,0,10,0,25,0,25,0,,,,,,reloant,nw,h,lower,,,,,,,3,nw,LoDemNoTar,h,1,0.763719551730901,,,,,,,,,,,,,,,,,,,,302,2023-11-14_10h01.41.368,leap3,2022.2.5,59.93917831064431,
,,,,,,,,,,,,,,,,,,,,10,0,10,0,26,0,26,0,,,,,,pegend,nw,h,lower,,,,,,,3,nw,LoDemNoTar,h,1,0.5797291421331465,,,,,,,,,,,,,,,,,,,,302,2023-11-14_10h01.41.368,leap3,2022.2.5,59.93917831064431,
,,,,,,,,,,,,,,,,,,,,10,0,10,0,27,0,27,0,,,,,,forgery,w,g,lower,,,,,,,3,w,LoDemNoTar,g,1,0.8509841249324381,,,,,,,,,,,,,,,,,,,,302,2023-11-14_10h01.41.368,leap3,2022.2.5,59.93917831064431,
,,,,,,,,,,,,,,,,,,,,10,0,10,0,28,0,28,0,,,,,,doads,nw,h,lower,,,,,,,3,nw,LoDemNoTar,h,1,0.7196984253823757,,,,,,,,,,,,,,,,,,,,302,2023-11-14_10h01.41.368,leap3,2022.2.5,59.93917831064431,
,,,,,,,,,,,,,,,,,,,,10,0,10,0,29,0,29,0,,,,,,dominion,w,g,lower,,,,,,,3,w,LoDemNoTar,g,1,0.8958607311360538,,,,,,,,,,,,,,,,,,,,302,2023-11-14_10h01.41.368,leap3,2022.2.5,59.93917831064431,
,,,,,,,,,,,,,,,,,,,,10,0,10,0,,,,,,,,,,,,,,,,,,,,,,,,,,NA,,,,,,,,,,,,,,,,,,,302,2023-11-14_10h01.41.368,leap3,2022.2.5,59.93917831064431,
,,,,,,,,,,,,,,,,,,,,11,0,11,0,0,0,0,0,,,,,,contund,nw,h,upper,,,,,,,1,nw,HiDemTar,h,1,0.7078067921102047,,,,,,,,,,,,,,,,,,,,302,2023-11-14_10h01.41.368,leap3,2022.2.5,59.93917831064431,
,,,,,,,,,,,,,,,,,,,,11,0,11,0,1,0,1,0,,,,,,reborn,w,g,upper,,,,,,,1,w,HiDemTar,g,1,0.5339745436795056,,,,,,,,,,,,,,,,,,,,302,2023-11-14_10h01.41.368,leap3,2022.2.5,59.93917831064431,
,,,,,,,,,,,,,,,,,,,,11,0,11,0,2,0,2,0,,,,,,pocket,w,g,upper,,,,,,,1,w,HiDemTar,g,1,0.5991926332935691,,,,,,,,,,,,,,,,,,,,302,2023-11-14_10h01.41.368,leap3,2022.2.5,59.93917831064431,
,,,,,,,,,,,,,,,,,,,,11,0,11,0,3,0,3,0,,,,,,become,w,g,upper,,,,,,,1,w,HiDemTar,g,1,0.6218466269783676,,,,,,,,,,,,,,,,,,,,302,2023-11-14_10h01.41.368,leap3,2022.2.5,59.93917831064431,
,,,,,,,,,,,,,,,,,,,,11,0,11,0,4,0,4,0,,,,,,infusion,w,g,upper,,,,,,,1,w,HiDemTar,g,1,0.49912963062524796,,,,,,,,,,,,,,,,,,,,302,2023-11-14_10h01.41.368,leap3,2022.2.5,59.93917831064431,
,,,,,,,,,,,,,,,,,,,,11,0,11,0,5,0,5,0,,,,,,wienegs,nw,h,upper,,,,,,,1,nw,HiDemTar,h,1,0.6305725877173245,,,,,,,,,,,,,,,,,,,,302,2023-11-14_10h01.41.368,leap3,2022.2.5,59.93917831064431,
,,,,,,,,,,,,,,,,,,,,11,0,11,0,6,0,6,0,,,,,,fivalve,nw,h,upper,,,,,,,1,nw,HiDemTar,h,1,0.8042101678438485,,,,,,,,,,,,,,,,,,,,302,2023-11-14_10h01.41.368,leap3,2022.2.5,59.93917831064431,
,,,,,,,,,,,,,,,,,,,,11,0,11,0,7,0,7,0,,,,,,actual,w,g,upper,,,,,,,1,w,HiDemTar,g,1,0.6100053153932095,,,,,,,,,,,,,,,,,,,,302,2023-11-14_10h01.41.368,leap3,2022.2.5,59.93917831064431,
,,,,,,,,,,,,,,,,,,,,11,0,11,0,8,0,8,0,,,,,,command,w,g,upper,,,,,,,1,w,HiDemTar,g,1,0.5040105669759214,,,,,,,,,,,,,,,,,,,,302,2023-11-14_10h01.41.368,leap3,2022.2.5,59.93917831064431,
,,,,,,,,,,,,,,,,,,,,11,0,11,0,9,0,9,0,,,,,,ignore,w,g,upper,,,,,,,1,w,HiDemTar,g,1,0.38610564498230815,,,,,,,,,,,,,,,,,,,,302,2023-11-14_10h01.41.368,leap3,2022.2.5,59.93917831064431,
,,,,,,,,,,,,,,,,,,,,11,0,11,0,10,0,10,0,,,,,,whirlpool,w,g,upper,,,,,,,1,w,HiDemTar,g,1,0.49584841495379806,,,,,,,,,,,,,,,,,,,,302,2023-11-14_10h01.41.368,leap3,2022.2.5,59.93917831064431,
,,,,,,,,,,,,,,,,,,,,11,0,11,0,11,0,11,0,,,,,,horks,nw,h,upper,,,,,,,1,nw,HiDemTar,h,1,0.8744624783284962,,,,,,,,,,,,,,,,,,,,302,2023-11-14_10h01.41.368,leap3,2022.2.5,59.93917831064431,
,,,,,,,,,,,,,,,,,,,,11,0,11,0,12,0,12,0,,,,,,surfaced,w,g,upper,,,,,,,1,w,HiDemTar,g,1,0.5578452125191689,,,,,,,,,,,,,,,,,,,,302,2023-11-14_10h01.41.368,leap3,2022.2.5,59.93917831064431,
,,,,,,,,,,,,,,,,,,,,11,0,11,0,13,0,13,0,,,,,,expounded,w,g,upper,,,,,,,1,w,HiDemTar,g,1,0.46256978530436754,,,,,,,,,,,,,,,,,,,,302,2023-11-14_10h01.41.368,leap3,2022.2.5,59.93917831064431,
,,,,,,,,,,,,,,,,,,,,11,0,11,0,14,0,14,0,,,,,,earterner,nw,h,upper,,,,,,,1,nw,HiDemTar,h,1,0.6985630406998098,,,,,,,,,,,,,,,,,,,,302,2023-11-14_10h01.41.368,leap3,2022.2.5,59.93917831064431,
,,,,,,,,,,,,,,,,,,,,11,0,11,0,15,0,15,0,,,,,,flooted,nw,h,upper,,,,,,,1,nw,HiDemTar,h,1,0.7733304570429027,,,,,,,,,,,,,,,,,,,,302,2023-11-14_10h01.41.368,leap3,2022.2.5,59.93917831064431,
,,,,,,,,,,,,,,,,,,,,11,0,11,0,16,0,16,0,,,,,,lawsuit,w,g,upper,,,,,,,1,w,HiDemTar,g,1,0.6046506208367646,,,,,,,,,,,,,,,,,,,,302,2023-11-14_10h01.41.368,leap3,2022.2.5,59.93917831064431,
,,,,,,,,,,,,,,,,,,,,11,0,11,0,17,0,17,0,,,,,,snays,nw,h,upper,,,,,,,1,nw,HiDemTar,h,1,0.626640492118895,,,,,,,,,,,,,,,,,,,,302,2023-11-14_10h01.41.368,leap3,2022.2.5,59.93917831064431,
,,,,,,,,,,,,,,,,,,,,11,0,11,0,18,0,18,0,,,,,,terming,w,g,upper,,,,,,,1,w,HiDemTar,h,0,0.5838694791309536,,,,,,,,,,,,,,,,,,,,302,2023-11-14_10h01.41.368,leap3,2022.2.5,59.93917831064431,
,,,,,,,,,,,,,,,,,,,,11,0,11,0,19,0,19,0,,,,,,fards,nw,h,upper,,,,,,,1,nw,HiDemTar,h,1,0.5670684375800192,,,,,,,,,,,,,,,,,,,,302,2023-11-14_10h01.41.368,leap3,2022.2.5,59.93917831064431,
,,,,,,,,,,,,,,,,,,,,11,0,11,0,20,0,20,0,,,,,,ecistle,nw,h,upper,,,,,,,1,nw,HiDemTar,h,1,0.49534883350133896,,,,,,,,,,,,,,,,,,,,302,2023-11-14_10h01.41.368,leap3,2022.2.5,59.93917831064431,
,,,,,,,,,,,,,,,,,,,,11,0,11,0,21,0,21,0,,,,,,corg,nw,h,upper,,,,,,,1,nw,HiDemTar,h,1,0.585698630195111,,,,,,,,,,,,,,,,,,,,302,2023-11-14_10h01.41.368,leap3,2022.2.5,59.93917831064431,
,,,,,,,,,,,,,,,,,,,,11,0,11,0,22,0,22,0,,,,,,pypecast,nw,h,upper,,,,,,,1,nw,HiDemTar,h,1,0.5262921089306474,,,,,,,,,,,,,,,,,,,,302,2023-11-14_10h01.41.368,leap3,2022.2.5,59.93917831064431,
,,,,,,,,,,,,,,,,,,,,11,0,11,0,23,0,23,0,,,,,,spaceship,w,g,upper,,,,,,,1,w,HiDemTar,g,1,0.6338418843224645,,,,,,,,,,,,,,,,,,,,302,2023-11-14_10h01.41.368,leap3,2022.2.5,59.93917831064431,
,,,,,,,,,,,,,,,,,,,,11,0,11,0,24,0,24,0,,,,,,ucility,nw,h,upper,,,,,,,1,nw,HiDemTar,h,1,0.6711406740359962,,,,,,,,,,,,,,,,,,,,302,2023-11-14_10h01.41.368,leap3,2022.2.5,59.93917831064431,
,,,,,,,,,,,,,,,,,,,,11,0,11,0,25,0,25,0,,,,,,coyote,target,q,upper,,,,,,,1,target,HiDemTar,g,0,0.5705800764262676,,,1,1,,,,,,,,,,,,,,,,302,2023-11-14_10h01.41.368,leap3,2022.2.5,59.93917831064431,
,,,,,,,,,,,,,,,,,,,,11,0,11,0,26,0,26,0,,,,,,pammed,nw,h,upper,,,,,,,1,aftertar1,HiDemTar,h,1,0.6179357198998332,,,,,,,,,,,,,,,,,,,,302,2023-11-14_10h01.41.368,leap3,2022.2.5,59.93917831064431,
,,,,,,,,,,,,,,,,,,,,11,0,11,0,27,0,27,0,,,,,,inforl,nw,h,upper,,,,,,,1,aftertar2,HiDemTar,h,1,0.6560661518014967,,,,,,,,,,,,,,,,,,,,302,2023-11-14_10h01.41.368,leap3,2022.2.5,59.93917831064431,
,,,,,,,,,,,,,,,,,,,,11,0,11,0,28,0,28,0,,,,,,priant,nw,h,upper,,,,,,,1,aftertar3,HiDemTar,h,1,0.5231469627469778,,,,,,,,,,,,,,,,,,,,302,2023-11-14_10h01.41.368,leap3,2022.2.5,59.93917831064431,
,,,,,,,,,,,,,,,,,,,,11,0,11,0,29,0,29,0,,,,,,bamboo,w,g,upper,,,,,,,1,nw,HiDemTar,g,1,0.861040317453444,,,,,,,,,,,,,,,,,,,,302,2023-11-14_10h01.41.368,leap3,2022.2.5,59.93917831064431,
,,,,,,,,,,,,,,,,,,,,11,0,11,0,,,,,,,,,,,,,,,,,,,,,,,,,,1,,,,,,,,,,,,,,,,,,,302,2023-11-14_10h01.41.368,leap3,2022.2.5,59.93917831064431,
,,,,,,,,,,,,,,,,,,,,12,0,12,0,0,0,0,0,,,,,,mebase,nw,h,lower,,,,,,,3,nw,LoDemNoTar,h,1,0.6179254567250609,,,,,,,,,,,,,,,,,,,,302,2023-11-14_10h01.41.368,leap3,2022.2.5,59.93917831064431,
,,,,,,,,,,,,,,,,,,,,12,0,12,0,1,0,1,0,,,,,,profats,nw,h,lower,,,,,,,3,nw,LoDemNoTar,h,1,0.575578541494906,,,,,,,,,,,,,,,,,,,,302,2023-11-14_10h01.41.368,leap3,2022.2.5,59.93917831064431,
,,,,,,,,,,,,,,,,,,,,12,0,12,0,2,0,2,0,,,,,,wimpid,nw,h,lower,,,,,,,3,nw,LoDemNoTar,h,1,0.5193108771927655,,,,,,,,,,,,,,,,,,,,302,2023-11-14_10h01.41.368,leap3,2022.2.5,59.93917831064431,
,,,,,,,,,,,,,,,,,,,,12,0,12,0,3,0,3,0,,,,,,hatred,w,g,lower,,,,,,,3,w,LoDemNoTar,g,1,0.6895126332528889,,,,,,,,,,,,,,,,,,,,302,2023-11-14_10h01.41.368,leap3,2022.2.5,59.93917831064431,
,,,,,,,,,,,,,,,,,,,,12,0,12,0,4,0,4,0,,,,,,happen,w,g,lower,,,,,,,3,w,LoDemNoTar,g,1,0.43672694405540824,,,,,,,,,,,,,,,,,,,,302,2023-11-14_10h01.41.368,leap3,2022.2.5,59.93917831064431,
,,,,,,,,,,,,,,,,,,,,12,0,12,0,5,0,5,0,,,,,,exclusion,w,g,lower,,,,,,,3,w,LoDemNoTar,g,1,0.49649565340951085,,,,,,,,,,,,,,,,,,,,302,2023-11-14_10h01.41.368,leap3,2022.2.5,59.93917831064431,
,,,,,,,,,,,,,,,,,,,,12,0,12,0,6,0,6,0,,,,,,sording,nw,h,lower,,,,,,,3,nw,LoDemNoTar,h,1,0.6511233057826757,,,,,,,,,,,,,,,,,,,,302,2023-11-14_10h01.41.368,leap3,2022.2.5,59.93917831064431,
,,,,,,,,,,,,,,,,,,,,12,0,12,0,7,0,7,0,,,,,,ragtam,nw,h,lower,,,,,,,3,nw,LoDemNoTar,h,1,0.47963468823581934,,,,,,,,,,,,,,,,,,,,302,2023-11-14_10h01.41.368,leap3,2022.2.5,59.93917831064431,
,,,,,,,,,,,,,,,,,,,,12,0,12,0,8,0,8,0,,,,,,germeated,nw,h,lower,,,,,,,3,nw,LoDemNoTar,h,1,0.4990051491186023,,,,,,,,,,,,,,,,,,,,302,2023-11-14_10h01.41.368,leap3,2022.2.5,59.93917831064431,
,,,,,,,,,,,,,,,,,,,,12,0,12,0,9,0,9,0,,,,,,exploit,w,g,lower,,,,,,,3,w,LoDemNoTar,g,1,0.5174661660566926,,,,,,,,,,,,,,,,,,,,302,2023-11-14_10h01.41.368,leap3,2022.2.5,59.93917831064431,
,,,,,,,,,,,,,,,,,,,,12,0,12,0,10,0,10,0,,,,,,praiged,nw,h,lower,,,,,,,3,nw,LoDemNoTar,h,1,0.5748286722227931,,,,,,,,,,,,,,,,,,,,302,2023-11-14_10h01.41.368,leap3,2022.2.5,59.93917831064431,
,,,,,,,,,,,,,,,,,,,,12,0,12,0,11,0,11,0,,,,,,parody,w,g,lower,,,,,,,3,w,LoDemNoTar,g,1,0.5583779010921717,,,,,,,,,,,,,,,,,,,,302,2023-11-14_10h01.41.368,leap3,2022.2.5,59.93917831064431,
,,,,,,,,,,,,,,,,,,,,12,0,12,0,12,0,12,0,,,,,,analysis,w,g,lower,,,,,,,3,w,LoDemNoTar,g,1,0.526205369271338,,,,,,,,,,,,,,,,,,,,302,2023-11-14_10h01.41.368,leap3,2022.2.5,59.93917831064431,
,,,,,,,,,,,,,,,,,,,,12,0,12,0,13,0,13,0,,,,,,railroad,w,g,lower,,,,,,,3,w,LoDemNoTar,g,1,0.6235009739175439,,,,,,,,,,,,,,,,,,,,302,2023-11-14_10h01.41.368,leap3,2022.2.5,59.93917831064431,
,,,,,,,,,,,,,,,,,,,,12,0,12,0,14,0,14,0,,,,,,armada,w,g,lower,,,,,,,3,w,LoDemNoTar,h,0,0.587981344666332,,,,,,,,,,,,,,,,,,,,302,2023-11-14_10h01.41.368,leap3,2022.2.5,59.93917831064431,
,,,,,,,,,,,,,,,,,,,,12,0,12,0,15,0,15,0,,,,,,brother,w,g,lower,,,,,,,3,w,LoDemNoTar,g,1,0.6586713269352913,,,,,,,,,,,,,,,,,,,,302,2023-11-14_10h01.41.368,leap3,2022.2.5,59.93917831064431,
,,,,,,,,,,,,,,,,,,,,12,0,12,0,16,0,16,0,,,,,,enabled,w,g,lower,,,,,,,3,w,LoDemNoTar,g,1,0.646674744784832,,,,,,,,,,,,,,,,,,,,302,2023-11-14_10h01.41.368,leap3,2022.2.5,59.93917831064431,
,,,,,,,,,,,,,,,,,,,,12,0,12,0,17,0,17,0,,,,,,checkout,w,g,lower,,,,,,,3,w,LoDemNoTar,g,1,0.46713720029219985,,,,,,,,,,,,,,,,,,,,302,2023-11-14_10h01.41.368,leap3,2022.2.5,59.93917831064431,
,,,,,,,,,,,,,,,,,,,,12,0,12,0,18,0,18,0,,,,,,egpended,nw,h,lower,,,,,,,3,nw,LoDemNoTar,h,1,0.7835597977973521,,,,,,,,,,,,,,,,,,,,302,2023-11-14_10h01.41.368,leap3,2022.2.5,59.93917831064431,
,,,,,,,,,,,,,,,,,,,,12,0,12,0,19,0,19,0,,,,,,inside,w,g,lower,,,,,,,3,w,LoDemNoTar,g,1,0.5348207536153495,,,,,,,,,,,,,,,,,,,,302,2023-11-14_10h01.41.368,leap3,2022.2.5,59.93917831064431,
,,,,,,,,,,,,,,,,,,,,12,0,12,0,20,0,20,0,,,,,,rander,nw,h,lower,,,,,,,3,nw,LoDemNoTar,h,1,0.8475744551979005,,,,,,,,,,,,,,,,,,,,302,2023-11-14_10h01.41.368,leap3,2022.2.5,59.93917831064431,
,,,,,,,,,,,,,,,,,,,,12,0,12,0,21,0,21,0,,,,,,doxing,nw,h,lower,,,,,,,3,nw,LoDemNoTar,g,0,1.1638265531510115,,,,,,,,,,,,,,,,,,,,302,2023-11-14_10h01.41.368,leap3,2022.2.5,59.93917831064431,
,,,,,,,,,,,,,,,,,,,,12,0,12,0,22,0,22,0,,,,,,prame,nw,h,lower,,,,,,,3,nw,LoDemNoTar,h,1,0.6922816867008805,,,,,,,,,,,,,,,,,,,,302,2023-11-14_10h01.41.368,leap3,2022.2.5,59.93917831064431,
,,,,,,,,,,,,,,,,,,,,12,0,12,0,23,0,23,0,,,,,,populace,w,g,lower,,,,,,,3,w,LoDemNoTar,h,0,1.1020618341863155,,,,,,,,,,,,,,,,,,,,302,2023-11-14_10h01.41.368,leap3,2022.2.5,59.93917831064431,
,,,,,,,,,,,,,,,,,,,,12,0,12,0,24,0,24,0,,,,,,pleamed,nw,h,lower,,,,,,,3,nw,LoDemNoTar,h,1,0.6247454583644867,,,,,,,,,,,,,,,,,,,,302,2023-11-14_10h01.41.368,leap3,2022.2.5,59.93917831064431,
,,,,,,,,,,,,,,,,,,,,12,0,12,0,25,0,25,0,,,,,,spiud,nw,h,lower,,,,,,,3,nw,LoDemNoTar,h,1,0.6620879489928484,,,,,,,,,,,,,,,,,,,,302,2023-11-14_10h01.41.368,leap3,2022.2.5,59.93917831064431,
,,,,,,,,,,,,,,,,,,,,12,0,12,0,26,0,26,0,,,,,,country,w,g,lower,,,,,,,3,w,LoDemNoTar,g,1,0.46638832427561283,,,,,,,,,,,,,,,,,,,,302,2023-11-14_10h01.41.368,leap3,2022.2.5,59.93917831064431,
,,,,,,,,,,,,,,,,,,,,12,0,12,0,27,0,27,0,,,,,,dounger,nw,h,lower,,,,,,,3,nw,LoDemNoTar,h,1,0.5668837013654411,,,,,,,,,,,,,,,,,,,,302,2023-11-14_10h01.41.368,leap3,2022.2.5,59.93917831064431,
,,,,,,,,,,,,,,,,,,,,12,0,12,0,28,0,28,0,,,,,,ofsters,nw,h,lower,,,,,,,3,nw,LoDemNoTar,h,1,0.6629341589286923,,,,,,,,,,,,,,,,,,,,302,2023-11-14_10h01.41.368,leap3,2022.2.5,59.93917831064431,
,,,,,,,,,,,,,,,,,,,,12,0,12,0,29,0,29,0,,,,,,amaze,w,g,lower,,,,,,,3,w,LoDemNoTar,g,1,0.7229945389553905,,,,,,,,,,,,,,,,,,,,302,2023-11-14_10h01.41.368,leap3,2022.2.5,59.93917831064431,
,,,,,,,,,,,,,,,,,,,,12,0,12,0,,,,,,,,,,,,,,,,,,,,,,,,,,NA,,,,,,,,,,,,,,,,,,,302,2023-11-14_10h01.41.368,leap3,2022.2.5,59.93917831064431,
,,,,,,,,,,,,,,,,,,,,13,0,13,0,0,0,0,0,,,,,,slogan,w,g,lower,,,,,,,3,w,LoDemNoTar,g,1,0.6761500644497573,,,,,,,,,,,,,,,,,,,,302,2023-11-14_10h01.41.368,leap3,2022.2.5,59.93917831064431,
,,,,,,,,,,,,,,,,,,,,13,0,13,0,1,0,1,0,,,,,,realize,w,g,lower,,,,,,,3,w,LoDemNoTar,g,1,0.39942318899556994,,,,,,,,,,,,,,,,,,,,302,2023-11-14_10h01.41.368,leap3,2022.2.5,59.93917831064431,
,,,,,,,,,,,,,,,,,,,,13,0,13,0,2,0,2,0,,,,,,naxis,nw,h,lower,,,,,,,3,nw,LoDemNoTar,h,1,0.6621770062483847,,,,,,,,,,,,,,,,,,,,302,2023-11-14_10h01.41.368,leap3,2022.2.5,59.93917831064431,
,,,,,,,,,,,,,,,,,,,,13,0,13,0,3,0,3,0,,,,,,nimp,nw,h,lower,,,,,,,3,nw,LoDemNoTar,h,1,0.6261799763888121,,,,,,,,,,,,,,,,,,,,302,2023-11-14_10h01.41.368,leap3,2022.2.5,59.93917831064431,
,,,,,,,,,,,,,,,,,,,,13,0,13,0,4,0,4,0,,,,,,extruded,w,g,lower,,,,,,,3,w,LoDemNoTar,h,0,1.0075809704139829,,,,,,,,,,,,,,,,,,,,302,2023-11-14_10h01.41.368,leap3,2022.2.5,59.93917831064431,
,,,,,,,,,,,,,,,,,,,,13,0,13,0,5,0,5,0,,,,,,gettle,nw,h,lower,,,,,,,3,nw,LoDemNoTar,h,1,0.5015020645223558,,,,,,,,,,,,,,,,,,,,302,2023-11-14_10h01.41.368,leap3,2022.2.5,59.93917831064431,
,,,,,,,,,,,,,,,,,,,,13,0,13,0,6,0,6,0,,,,,,seeming,w,g,lower,,,,,,,3,w,LoDemNoTar,h,0,0.4939169641584158,,,,,,,,,,,,,,,,,,,,302,2023-11-14_10h01.41.368,leap3,2022.2.5,59.93917831064431,
,,,,,,,,,,,,,,,,,,,,13,0,13,0,7,0,7,0,,,,,,meteoroid,w,g,lower,,,,,,,3,w,LoDemNoTar,g,1,0.848204146604985,,,,,,,,,,,,,,,,,,,,302,2023-11-14_10h01.41.368,leap3,2022.2.5,59.93917831064431,
,,,,,,,,,,,,,,,,,,,,13,0,13,0,8,0,8,0,,,,,,earmaff,nw,h,lower,,,,,,,3,nw,LoDemNoTar,h,1,0.6073024761863053,,,,,,,,,,,,,,,,,,,,302,2023-11-14_10h01.41.368,leap3,2022.2.5,59.93917831064431,
,,,,,,,,,,,,,,,,,,,,13,0,13,0,9,0,9,0,,,,,,padicals,nw,h,lower,,,,,,,3,nw,LoDemNoTar,h,1,0.5893612359650433,,,,,,,,,,,,,,,,,,,,302,2023-11-14_10h01.41.368,leap3,2022.2.5,59.93917831064431,
,,,,,,,,,,,,,,,,,,,,13,0,13,0,10,0,10,0,,,,,,except,w,g,lower,,,,,,,3,w,LoDemNoTar,g,1,0.5880992044694722,,,,,,,,,,,,,,,,,,,,302,2023-11-14_10h01.41.368,leap3,2022.2.5,59.93917831064431,
,,,,,,,,,,,,,,,,,,,,13,0,13,0,11,0,11,0,,,,,,gures,nw,h,lower,,,,,,,3,nw,LoDemNoTar,h,1,0.5629105539992452,,,,,,,,,,,,,,,,,,,,302,2023-11-14_10h01.41.368,leap3,2022.2.5,59.93917831064431,
,,,,,,,,,,,,,,,,,,,,13,0,13,0,12,0,12,0,,,,,,clypaper,nw,h,lower,,,,,,,3,nw,LoDemNoTar,h,1,0.5149785210378468,,,,,,,,,,,,,,,,,,,,302,2023-11-14_10h01.41.368,leap3,2022.2.5,59.93917831064431,
,,,,,,,,,,,,,,,,,,,,13,0,13,0,13,0,13,0,,,,,,telecast,w,g,lower,,,,,,,3,w,LoDemNoTar,g,1,0.6456073811277747,,,,,,,,,,,,,,,,,,,,302,2023-11-14_10h01.41.368,leap3,2022.2.5,59.93917831064431,
,,,,,,,,,,,,,,,,,,,,13,0,13,0,14,0,14,0,,,,,,leather,w,g,lower,,,,,,,3,w,LoDemNoTar,g,1,0.5223103538155556,,,,,,,,,,,,,,,,,,,,302,2023-11-14_10h01.41.368,leap3,2022.2.5,59.93917831064431,
,,,,,,,,,,,,,,,,,,,,13,0,13,0,15,0,15,0,,,,,,arrested,w,g,lower,,,,,,,3,w,LoDemNoTar,g,1,0.4915127479471266,,,,,,,,,,,,,,,,,,,,302,2023-11-14_10h01.41.368,leap3,2022.2.5,59.93917831064431,
,,,,,,,,,,,,,,,,,,,,13,0,13,0,16,0,16,0,,,,,,acroad,nw,h,lower,,,,,,,3,nw,LoDemNoTar,h,1,0.9030002132058144,,,,,,,,,,,,,,,,,,,,302,2023-11-14_10h01.41.368,leap3,2022.2.5,59.93917831064431,
,,,,,,,,,,,,,,,,,,,,13,0,13,0,17,0,17,0,,,,,,scatter,w,g,lower,,,,,,,3,w,LoDemNoTar,g,1,0.6080255284905434,,,,,,,,,,,,,,,,,,,,302,2023-11-14_10h01.41.368,leap3,2022.2.5,59.93917831064431,
,,,,,,,,,,,,,,,,,,,,13,0,13,0,18,0,18,0,,,,,,carony,nw,h,lower,,,,,,,3,nw,LoDemNoTar,h,1,0.5900283381342888,,,,,,,,,,,,,,,,,,,,302,2023-11-14_10h01.41.368,leap3,2022.2.5,59.93917831064431,
,,,,,,,,,,,,,,,,,,,,13,0,13,0,19,0,19,0,,,,,,rearrange,w,g,lower,,,,,,,3,w,LoDemNoTar,g,1,0.5328465946950018,,,,,,,,,,,,,,,,,,,,302,2023-11-14_10h01.41.368,leap3,2022.2.5,59.93917831064431,
,,,,,,,,,,,,,,,,,,,,13,0,13,0,20,0,20,0,,,,,,drobate,nw,h,lower,,,,,,,3,nw,LoDemNoTar,h,1,0.7026855000294745,,,,,,,,,,,,,,,,,,,,302,2023-11-14_10h01.41.368,leap3,2022.2.5,59.93917831064431,
,,,,,,,,,,,,,,,,,,,,13,0,13,0,21,0,21,0,,,,,,castaway,w,g,lower,,,,,,,3,w,LoDemNoTar,g,1,0.6885022134520113,,,,,,,,,,,,,,,,,,,,302,2023-11-14_10h01.41.368,leap3,2022.2.5,59.93917831064431,
,,,,,,,,,,,,,,,,,,,,13,0,13,0,22,0,22,0,,,,,,function,w,g,lower,,,,,,,3,w,LoDemNoTar,g,1,0.49120717216283083,,,,,,,,,,,,,,,,,,,,302,2023-11-14_10h01.41.368,leap3,2022.2.5,59.93917831064431,
,,,,,,,,,,,,,,,,,,,,13,0,13,0,23,0,23,0,,,,,,fuintets,nw,h,lower,,,,,,,3,nw,LoDemNoTar,h,1,0.5819525951519608,,,,,,,,,,,,,,,,,,,,302,2023-11-14_10h01.41.368,leap3,2022.2.5,59.93917831064431,
,,,,,,,,,,,,,,,,,,,,13,0,13,0,24,0,24,0,,,,,,micron,w,g,lower,,,,,,,3,w,LoDemNoTar,h,0,0.6692936448380351,,,,,,,,,,,,,,,,,,,,302,2023-11-14_10h01.41.368,leap3,2022.2.5,59.93917831064431,
,,,,,,,,,,,,,,,,,,,,13,0,13,0,25,0,25,0,,,,,,churnad,nw,h,lower,,,,,,,3,nw,LoDemNoTar,h,1,0.5838165082968771,,,,,,,,,,,,,,,,,,,,302,2023-11-14_10h01.41.368,leap3,2022.2.5,59.93917831064431,
,,,,,,,,,,,,,,,,,,,,13,0,13,0,26,0,26,0,,,,,,theles,nw,h,lower,,,,,,,3,nw,LoDemNoTar,h,1,0.4551346590742469,,,,,,,,,,,,,,,,,,,,302,2023-11-14_10h01.41.368,leap3,2022.2.5,59.93917831064431,
,,,,,,,,,,,,,,,,,,,,13,0,13,0,27,0,27,0,,,,,,bumbo,nw,h,lower,,,,,,,3,nw,LoDemNoTar,h,1,0.6430992092937231,,,,,,,,,,,,,,,,,,,,302,2023-11-14_10h01.41.368,leap3,2022.2.5,59.93917831064431,
,,,,,,,,,,,,,,,,,,,,13,0,13,0,28,0,28,0,,,,,,nopping,nw,h,lower,,,,,,,3,nw,LoDemNoTar,h,1,0.6160516114905477,,,,,,,,,,,,,,,,,,,,302,2023-11-14_10h01.41.368,leap3,2022.2.5,59.93917831064431,
,,,,,,,,,,,,,,,,,,,,13,0,13,0,29,0,29,0,,,,,,icepick,w,g,lower,,,,,,,3,w,LoDemNoTar,g,1,0.6705209147185087,,,,,,,,,,,,,,,,,,,,302,2023-11-14_10h01.41.368,leap3,2022.2.5,59.93917831064431,
,,,,,,,,,,,,,,,,,,,,13,0,13,0,,,,,,,,,,,,,,,,,,,,,,,,,,NA,,,,,,,,,,,,,,,,,,,302,2023-11-14_10h01.41.368,leap3,2022.2.5,59.93917831064431,
,,,,,,,,,,,,,,,,,,,,14,0,14,0,0,0,0,0,,,,,,sullen,w,g,upper,,,,,,,1,w,HiDemTar,g,1,0.7942890515550971,,,,,,,,,,,,,,,,,,,,302,2023-11-14_10h01.41.368,leap3,2022.2.5,59.93917831064431,
,,,,,,,,,,,,,,,,,,,,14,0,14,0,1,0,1,0,,,,,,edasion,nw,h,upper,,,,,,,1,nw,HiDemTar,h,1,0.5283881011418998,,,,,,,,,,,,,,,,,,,,302,2023-11-14_10h01.41.368,leap3,2022.2.5,59.93917831064431,
,,,,,,,,,,,,,,,,,,,,14,0,14,0,2,0,2,0,,,,,,gremieres,nw,h,upper,,,,,,,1,nw,HiDemTar,h,1,0.4897206765599549,,,,,,,,,,,,,,,,,,,,302,2023-11-14_10h01.41.368,leap3,2022.2.5,59.93917831064431,
,,,,,,,,,,,,,,,,,,,,14,0,14,0,3,0,3,0,,,,,,mixture,w,g,upper,,,,,,,1,w,HiDemTar,g,1,0.532503608148545,,,,,,,,,,,,,,,,,,,,302,2023-11-14_10h01.41.368,leap3,2022.2.5,59.93917831064431,
,,,,,,,,,,,,,,,,,,,,14,0,14,0,4,0,4,0,,,,,,splum,nw,h,upper,,,,,,,1,nw,HiDemTar,h,1,0.62192343454808,,,,,,,,,,,,,,,,,,,,302,2023-11-14_10h01.41.368,leap3,2022.2.5,59.93917831064431,
,,,,,,,,,,,,,,,,,,,,14,0,14,0,5,0,5,0,,,,,,etuip,nw,h,upper,,,,,,,1,nw,HiDemTar,h,1,0.5631906371563673,,,,,,,,,,,,,,,,,,,,302,2023-11-14_10h01.41.368,leap3,2022.2.5,59.93917831064431,
,,,,,,,,,,,,,,,,,,,,14,0,14,0,6,0,6,0,,,,,,party,w,g,upper,,,,,,,1,w,HiDemTar,g,1,0.6752902809530497,,,,,,,,,,,,,,,,,,,,302,2023-11-14_10h01.41.368,leap3,2022.2.5,59.93917831064431,
,,,,,,,,,,,,,,,,,,,,14,0,14,0,7,0,7,0,,,,,,sequence,w,g,upper,,,,,,,1,w,HiDemTar,g,1,0.5986675592139363,,,,,,,,,,,,,,,,,,,,302,2023-11-14_10h01.41.368,leap3,2022.2.5,59.93917831064431,
,,,,,,,,,,,,,,,,,,,,14,0,14,0,8,0,8,0,,,,,,ahead,w,g,upper,,,,,,,1,w,HiDemTar,g,1,0.5812547034583986,,,,,,,,,,,,,,,,,,,,302,2023-11-14_10h01.41.368,leap3,2022.2.5,59.93917831064431,
,,,,,,,,,,,,,,,,,,,,14,0,14,0,9,0,9,0,,,,,,glates,nw,h,upper,,,,,,,1,nw,HiDemTar,h,1,0.7327395272441208,,,,,,,,,,,,,,,,,,,,302,2023-11-14_10h01.41.368,leap3,2022.2.5,59.93917831064431,
,,,,,,,,,,,,,,,,,,,,14,0,14,0,10,0,10,0,,,,,,fraft,nw,h,upper,,,,,,,1,nw,HiDemTar,h,1,0.565174728166312,,,,,,,,,,,,,,,,,,,,302,2023-11-14_10h01.41.368,leap3,2022.2.5,59.93917831064431,
,,,,,,,,,,,,,,,,,,,,14,0,14,0,11,0,11,0,,,,,,triangle,w,g,upper,,,,,,,1,w,HiDemTar,g,1,0.5092020449228585,,,,,,,,,,,,,,,,,,,,302,2023-11-14_10h01.41.368,leap3,2022.2.5,59.93917831064431,
,,,,,,,,,,,,,,,,,,,,14,0,14,0,12,0,12,0,,,,,,plashed,nw,h,upper,,,,,,,1,nw,HiDemTar,h,1,0.6391515540890396,,,,,,,,,,,,,,,,,,,,302,2023-11-14_10h01.41.368,leap3,2022.2.5,59.93917831064431,
,,,,,,,,,,,,,,,,,,,,14,0,14,0,13,0,13,0,,,,,,owner,w,g,upper,,,,,,,1,w,HiDemTar,g,1,0.5638431725092232,,,,,,,,,,,,,,,,,,,,302,2023-11-14_10h01.41.368,leap3,2022.2.5,59.93917831064431,
,,,,,,,,,,,,,,,,,,,,14,0,14,0,14,0,14,0,,,,,,fonducts,nw,h,upper,,,,,,,1,nw,HiDemTar,h,1,0.667922692373395,,,,,,,,,,,,,,,,,,,,302,2023-11-14_10h01.41.368,leap3,2022.2.5,59.93917831064431,
,,,,,,,,,,,,,,,,,,,,14,0,14,0,15,0,15,0,,,,,,satisfies,w,g,upper,,,,,,,1,w,HiDemTar,g,1,0.5033408161252737,,,,,,,,,,,,,,,,,,,,302,2023-11-14_10h01.41.368,leap3,2022.2.5,59.93917831064431,
,,,,,,,,,,,,,,,,,,,,14,0,14,0,16,0,16,0,,,,,,catgup,nw,h,upper,,,,,,,1,nw,HiDemTar,h,1,0.7053161668591201,,,,,,,,,,,,,,,,,,,,302,2023-11-14_10h01.41.368,leap3,2022.2.5,59.93917831064431,
,,,,,,,,,,,,,,,,,,,,14,0,14,0,17,0,17,0,,,,,,gorilla,target,q,upper,,,,,,,1,target,HiDemTar,g,0,0.7233438161201775,,,1,1,,,,,,,,,,,,,,,,302,2023-11-14_10h01.41.368,leap3,2022.2.5,59.93917831064431,
,,,,,,,,,,,,,,,,,,,,14,0,14,0,18,0,18,0,,,,,,filny,nw,h,upper,,,,,,,1,aftertar1,HiDemTar,h,1,0.5566937578842044,,,,,,,,,,,,,,,,,,,,302,2023-11-14_10h01.41.368,leap3,2022.2.5,59.93917831064431,
,,,,,,,,,,,,,,,,,,,,14,0,14,0,19,0,19,0,,,,,,system,w,g,upper,,,,,,,1,aftertar2,HiDemTar,g,1,0.6127545046620071,,,,,,,,,,,,,,,,,,,,302,2023-11-14_10h01.41.368,leap3,2022.2.5,59.93917831064431,
,,,,,,,,,,,,,,,,,,,,14,0,14,0,20,0,20,0,,,,,,surround,w,g,upper,,,,,,,1,aftertar3,HiDemTar,g,1,0.43392114248126745,,,,,,,,,,,,,,,,,,,,302,2023-11-14_10h01.41.368,leap3,2022.2.5,59.93917831064431,
,,,,,,,,,,,,,,,,,,,,14,0,14,0,21,0,21,0,,,,,,diatonic,w,g,upper,,,,,,,1,w,HiDemTar,h,0,0.558474572841078,,,,,,,,,,,,,,,,,,,,302,2023-11-14_10h01.41.368,leap3,2022.2.5,59.93917831064431,
,,,,,,,,,,,,,,,,,,,,14,0,14,0,22,0,22,0,,,,,,terrify,w,g,upper,,,,,,,1,w,HiDemTar,g,1,0.4384898813441396,,,,,,,,,,,,,,,,,,,,302,2023-11-14_10h01.41.368,leap3,2022.2.5,59.93917831064431,
,,,,,,,,,,,,,,,,,,,,14,0,14,0,23,0,23,0,,,,,,breiled,nw,h,upper,,,,,,,1,w,HiDemTar,h,1,0.5392537545412779,,,,,,,,,,,,,,,,,,,,302,2023-11-14_10h01.41.368,leap3,2022.2.5,59.93917831064431,
,,,,,,,,,,,,,,,,,,,,14,0,14,0,24,0,24,0,,,,,,amplifier,w,g,upper,,,,,,,1,nw,HiDemTar,g,1,0.7078653909265995,,,,,,,,,,,,,,,,,,,,302,2023-11-14_10h01.41.368,leap3,2022.2.5,59.93917831064431,
,,,,,,,,,,,,,,,,,,,,14,0,14,0,25,0,25,0,,,,,,lonnote,nw,h,upper,,,,,,,1,w,HiDemTar,h,1,0.6459215646609664,,,,,,,,,,,,,,,,,,,,302,2023-11-14_10h01.41.368,leap3,2022.2.5,59.93917831064431,
,,,,,,,,,,,,,,,,,,,,14,0,14,0,26,0,26,0,,,,,,condensed,w,g,upper,,,,,,,1,nw,HiDemTar,g,1,0.5385442762635648,,,,,,,,,,,,,,,,,,,,302,2023-11-14_10h01.41.368,leap3,2022.2.5,59.93917831064431,
,,,,,,,,,,,,,,,,,,,,14,0,14,0,27,0,27,0,,,,,,mennel,nw,h,upper,,,,,,,1,w,HiDemTar,h,1,0.5614224025048316,,,,,,,,,,,,,,,,,,,,302,2023-11-14_10h01.41.368,leap3,2022.2.5,59.93917831064431,
,,,,,,,,,,,,,,,,,,,,14,0,14,0,28,0,28,0,,,,,,hanling,nw,h,upper,,,,,,,1,nw,HiDemTar,h,1,0.5794447544030845,,,,,,,,,,,,,,,,,,,,302,2023-11-14_10h01.41.368,leap3,2022.2.5,59.93917831064431,
,,,,,,,,,,,,,,,,,,,,14,0,14,0,29,0,29,0,,,,,,elalt,nw,h,upper,,,,,,,1,nw,HiDemTar,h,1,0.5219584284350276,,,,,,,,,,,,,,,,,,,,302,2023-11-14_10h01.41.368,leap3,2022.2.5,59.93917831064431,
,,,,,,,,,,,,,,,,,,,,14,0,14,0,,,,,,,,,,,,,,,,,,,,,,,,,,1,,,,,,,,,,,,,,,,,,,302,2023-11-14_10h01.41.368,leap3,2022.2.5,59.93917831064431,
,,,,,,,,,,,,,,,,,,,,15,0,15,0,0,0,0,0,,,,,,migmarole,nw,h,upper,,,,,,,1,nw,HiDemTar,h,1,0.5953605202957988,,,,,,,,,,,,,,,,,,,,302,2023-11-14_10h01.41.368,leap3,2022.2.5,59.93917831064431,
,,,,,,,,,,,,,,,,,,,,15,0,15,0,1,0,1,0,,,,,,casino,w,g,upper,,,,,,,1,w,HiDemTar,g,1,0.5940518081188202,,,,,,,,,,,,,,,,,,,,302,2023-11-14_10h01.41.368,leap3,2022.2.5,59.93917831064431,
,,,,,,,,,,,,,,,,,,,,15,0,15,0,2,0,2,0,,,,,,glattery,nw,h,upper,,,,,,,1,nw,HiDemTar,h,1,0.5847640251740813,,,,,,,,,,,,,,,,,,,,302,2023-11-14_10h01.41.368,leap3,2022.2.5,59.93917831064431,
,,,,,,,,,,,,,,,,,,,,15,0,15,0,3,0,3,0,,,,,,unspoken,w,g,upper,,,,,,,1,w,HiDemTar,g,1,0.5506795756518841,,,,,,,,,,,,,,,,,,,,302,2023-11-14_10h01.41.368,leap3,2022.2.5,59.93917831064431,
,,,,,,,,,,,,,,,,,,,,15,0,15,0,4,0,4,0,,,,,,glassware,w,g,upper,,,,,,,1,w,HiDemTar,g,1,0.5835076216608286,,,,,,,,,,,,,,,,,,,,302,2023-11-14_10h01.41.368,leap3,2022.2.5,59.93917831064431,
,,,,,,,,,,,,,,,,,,,,15,0,15,0,5,0,5,0,,,,,,greakable,nw,h,upper,,,,,,,1,nw,HiDemTar,h,1,0.6461529810912907,,,,,,,,,,,,,,,,,,,,302,2023-11-14_10h01.41.368,leap3,2022.2.5,59.93917831064431,
,,,,,,,,,,,,,,,,,,,,15,0,15,0,6,0,6,0,,,,,,kickoff,w,g,upper,,,,,,,1,w,HiDemTar,g,1,0.5306218173354864,,,,,,,,,,,,,,,,,,,,302,2023-11-14_10h01.41.368,leap3,2022.2.5,59.93917831064431,
,,,,,,,,,,,,,,,,,,,,15,0,15,0,7,0,7,0,,,,,,digar,nw,h,upper,,,,,,,1,nw,HiDemTar,h,1,0.4921616413630545,,,,,,,,,,,,,,,,,,,,302,2023-11-14_10h01.41.368,leap3,2022.2.5,59.93917831064431,
,,,,,,,,,,,,,,,,,,,,15,0,15,0,8,0,8,0,,,,,,reddar,nw,h,upper,,,,,,,1,nw,HiDemTar,h,1,0.4626780445687473,,,,,,,,,,,,,,,,,,,,302,2023-11-14_10h01.41.368,leap3,2022.2.5,59.93917831064431,
,,,,,,,,,,,,,,,,,,,,15,0,15,0,9,0,9,0,,,,,,itfidels,nw,h,upper,,,,,,,1,nw,HiDemTar,h,1,0.5306416810490191,,,,,,,,,,,,,,,,,,,,302,2023-11-14_10h01.41.368,leap3,2022.2.5,59.93917831064431,
,,,,,,,,,,,,,,,,,,,,15,0,15,0,10,0,10,0,,,,,,otiates,nw,h,upper,,,,,,,1,nw,HiDemTar,h,1,0.49280258920043707,,,,,,,,,,,,,,,,,,,,302,2023-11-14_10h01.41.368,leap3,2022.2.5,59.93917831064431,
,,,,,,,,,,,,,,,,,,,,15,0,15,0,11,0,11,0,,,,,,visible,w,g,upper,,,,,,,1,w,HiDemTar,g,1,0.5834837844595313,,,,,,,,,,,,,,,,,,,,302,2023-11-14_10h01.41.368,leap3,2022.2.5,59.93917831064431,
,,,,,,,,,,,,,,,,,,,,15,0,15,0,12,0,12,0,,,,,,antwers,nw,h,upper,,,,,,,1,nw,HiDemTar,h,1,0.4868119126185775,,,,,,,,,,,,,,,,,,,,302,2023-11-14_10h01.41.368,leap3,2022.2.5,59.93917831064431,
,,,,,,,,,,,,,,,,,,,,15,0,15,0,13,0,13,0,,,,,,peanimate,nw,h,upper,,,,,,,1,nw,HiDemTar,h,1,0.6255999449640512,,,,,,,,,,,,,,,,,,,,302,2023-11-14_10h01.41.368,leap3,2022.2.5,59.93917831064431,
,,,,,,,,,,,,,,,,,,,,15,0,15,0,14,0,14,0,,,,,,etber,nw,h,upper,,,,,,,1,nw,HiDemTar,h,1,0.42291544703766704,,,,,,,,,,,,,,,,,,,,302,2023-11-14_10h01.41.368,leap3,2022.2.5,59.93917831064431,
,,,,,,,,,,,,,,,,,,,,15,0,15,0,15,0,15,0,,,,,,ethical,w,g,upper,,,,,,,1,w,HiDemTar,g,1,0.4994467939250171,,,,,,,,,,,,,,,,,,,,302,2023-11-14_10h01.41.368,leap3,2022.2.5,59.93917831064431,
,,,,,,,,,,,,,,,,,,,,15,0,15,0,16,0,16,0,,,,,,porcupine,target,q,upper,,,,,,,1,target,HiDemTar,h,0,0.5019596004858613,,,,,,,,,,,,,,,,,,,,302,2023-11-14_10h01.41.368,leap3,2022.2.5,59.93917831064431,
,,,,,,,,,,,,,,,,,,,,15,0,15,0,17,0,17,0,,,,,,bickering,w,g,upper,,,,,,,1,aftertar1,HiDemTar,g,1,0.7439941857010126,,,,,,,,,,,,,,,,,,,,302,2023-11-14_10h01.41.368,leap3,2022.2.5,59.93917831064431,
,,,,,,,,,,,,,,,,,,,,15,0,15,0,18,0,18,0,,,,,,mandate,w,g,upper,,,,,,,1,aftertar2,HiDemTar,g,1,0.560662932228297,,,,,,,,,,,,,,,,,,,,302,2023-11-14_10h01.41.368,leap3,2022.2.5,59.93917831064431,
,,,,,,,,,,,,,,,,,,,,15,0,15,0,19,0,19,0,,,,,,fragment,w,g,upper,,,,,,,1,aftertar3,HiDemTar,g,1,0.5525898379273713,,,,,,,,,,,,,,,,,,,,302,2023-11-14_10h01.41.368,leap3,2022.2.5,59.93917831064431,
,,,,,,,,,,,,,,,,,,,,15,0,15,0,20,0,20,0,,,,,,yearnungs,nw,h,upper,,,,,,,1,w,HiDemTar,h,1,1.1202672668732703,,,,,,,,,,,,,,,,,,,,302,2023-11-14_10h01.41.368,leap3,2022.2.5,59.93917831064431,
,,,,,,,,,,,,,,,,,,,,15,0,15,0,21,0,21,0,,,,,,undue,w,g,upper,,,,,,,1,nw,HiDemTar,g,1,1.39422972407192,,,,,,,,,,,,,,,,,,,,302,2023-11-14_10h01.41.368,leap3,2022.2.5,59.93917831064431,
,,,,,,,,,,,,,,,,,,,,15,0,15,0,22,0,22,0,,,,,,trake,nw,h,upper,,,,,,,1,w,HiDemTar,h,1,0.6808118335902691,,,,,,,,,,,,,,,,,,,,302,2023-11-14_10h01.41.368,leap3,2022.2.5,59.93917831064431,
,,,,,,,,,,,,,,,,,,,,15,0,15,0,23,0,23,0,,,,,,probable,w,g,upper,,,,,,,1,nw,HiDemTar,g,1,0.6273148776963353,,,,,,,,,,,,,,,,,,,,302,2023-11-14_10h01.41.368,leap3,2022.2.5,59.93917831064431,
,,,,,,,,,,,,,,,,,,,,15,0,15,0,24,0,24,0,,,,,,kiner,nw,h,upper,,,,,,,1,w,HiDemTar,h,1,0.5127150085754693,,,,,,,,,,,,,,,,,,,,302,2023-11-14_10h01.41.368,leap3,2022.2.5,59.93917831064431,
,,,,,,,,,,,,,,,,,,,,15,0,15,0,25,0,25,0,,,,,,senior,w,g,upper,,,,,,,1,nw,HiDemTar,h,0,0.6746546300128102,,,,,,,,,,,,,,,,,,,,302,2023-11-14_10h01.41.368,leap3,2022.2.5,59.93917831064431,
,,,,,,,,,,,,,,,,,,,,15,0,15,0,26,0,26,0,,,,,,coupling,w,g,upper,,,,,,,1,w,HiDemTar,g,1,0.6061645951122046,,,,,,,,,,,,,,,,,,,,302,2023-11-14_10h01.41.368,leap3,2022.2.5,59.93917831064431,
,,,,,,,,,,,,,,,,,,,,15,0,15,0,27,0,27,0,,,,,,revising,w,g,upper,,,,,,,1,w,HiDemTar,g,1,0.5240497854538262,,,,,,,,,,,,,,,,,,,,302,2023-11-14_10h01.41.368,leap3,2022.2.5,59.93917831064431,
,,,,,,,,,,,,,,,,,,,,15,0,15,0,28,0,28,0,,,,,,footstep,w,g,upper,,,,,,,1,w,HiDemTar,g,1,0.44545853277668357,,,,,,,,,,,,,,,,,,,,302,2023-11-14_10h01.41.368,leap3,2022.2.5,59.93917831064431,
,,,,,,,,,,,,,,,,,,,,15,0,15,0,29,0,29,0,,,,,,mubby,nw,h,upper,,,,,,,1,w,HiDemTar,h,1,0.6901383521035314,,,,,,,,,,,,,,,,,,,,302,2023-11-14_10h01.41.368,leap3,2022.2.5,59.93917831064431,
,,,,,,,,,,,,,,,,,,,,15,0,15,0,,,,,,,,,,,,,,,,,,,,,,,,,,0,,,,,,,,,,,,,,,,,,,302,2023-11-14_10h01.41.368,leap3,2022.2.5,59.93917831064431,
,,,,,,,,,,,,,,,,,,,,16,0,16,0,0,0,0,0,,,,,,withep,nw,h,upper,,,,,,,1,nw,HiDemTar,h,1,0.5646787881851196,,,,,,,,,,,,,,,,,,,,302,2023-11-14_10h01.41.368,leap3,2022.2.5,59.93917831064431,
,,,,,,,,,,,,,,,,,,,,16,0,16,0,1,0,1,0,,,,,,ascending,w,g,upper,,,,,,,1,w,HiDemTar,g,1,0.6287282076664269,,,,,,,,,,,,,,,,,,,,302,2023-11-14_10h01.41.368,leap3,2022.2.5,59.93917831064431,
,,,,,,,,,,,,,,,,,,,,16,0,16,0,2,0,2,0,,,,,,consonant,w,g,upper,,,,,,,1,w,HiDemTar,g,1,0.5942170112393796,,,,,,,,,,,,,,,,,,,,302,2023-11-14_10h01.41.368,leap3,2022.2.5,59.93917831064431,
,,,,,,,,,,,,,,,,,,,,16,0,16,0,3,0,3,0,,,,,,trecious,nw,h,upper,,,,,,,1,nw,HiDemTar,h,1,0.816873521078378,,,,,,,,,,,,,,,,,,,,302,2023-11-14_10h01.41.368,leap3,2022.2.5,59.93917831064431,
,,,,,,,,,,,,,,,,,,,,16,0,16,0,4,0,4,0,,,,,,absent,w,g,upper,,,,,,,1,w,HiDemTar,g,1,0.614856124855578,,,,,,,,,,,,,,,,,,,,302,2023-11-14_10h01.41.368,leap3,2022.2.5,59.93917831064431,
