demoRace_loop.thisRepN,demoRace_loop.thisTrialN,demoRace_loop.thisN,demoRace_loop.thisIndex,LDTunderstand.thisRepN,LDTunderstand.thisTrialN,LDTunderstand.thisN,LDTunderstand.thisIndex,pracBlocks.thisRepN,pracBlocks.thisTrialN,pracBlocks.thisN,pracBlocks.thisIndex,pracTrial.thisRepN,pracTrial.thisTrialN,pracTrial.thisN,pracTrial.thisIndex,PMunderstand.thisRepN,PMunderstand.thisTrialN,PMunderstand.thisN,PMunderstand.thisIndex,LDT_block.thisRepN,LDT_block.thisTrialN,LDT_block.thisN,LDT_block.thisIndex,LDT_trial.thisRepN,LDT_trial.thisTrialN,LDT_trial.thisN,LDT_trial.thisIndex,ageTextbox.text,genderTextbox.text,race,raceResp,LDTunderstand,stim,word_type,corr_key,stim_location,LDTpracKey.keys,LDTpracKey.corr,LDTpracKey.rt,PMunderstand,cueTextbox.text,intentionTextbox.text,block_type,role,block_desc,LDTResp.keys,LDTResp.corr,LDTResp.rt,pressedQ,PM_accuracy,pressedQ_late,pressedQ_blank,postQ1,Q2Textbox.text,Q3Textbox.text,Q4,Q5,Q6Key.keys,Q6Key.rt,postQ7_correct,postQ7,Q8Textbox.text,education,medTextbox.text,health,healthLimit,psych,participant,date,expName,psychopyVersion,frameRate,
0,0,0,0,,,,,,,,,,,,,,,,,,,,,,,,,"
20 ",Female,American Indian or Alaska Native,n,,,,,,,,,,,,,,,,,,,,,,,,,,,,,,,,,,,,,303,2023-11-16_15h27.49.986,leap3,2022.2.5,59.98924423594591,
1,0,1,0,,,,,,,,,,,,,,,,,,,,,,,,,,,Asian,n,,,,,,,,,,,,,,,,,,,,,,,,,,,,,,,,,,,,,303,2023-11-16_15h27.49.986,leap3,2022.2.5,59.98924423594591,
2,0,2,0,,,,,,,,,,,,,,,,,,,,,,,,,,,Black or African American,n,,,,,,,,,,,,,,,,,,,,,,,,,,,,,,,,,,,,,303,2023-11-16_15h27.49.986,leap3,2022.2.5,59.98924423594591,
3,0,3,0,,,,,,,,,,,,,,,,,,,,,,,,,,,Native Hawaiian or other Pacific Islander,n,,,,,,,,,,,,,,,,,,,,,,,,,,,,,,,,,,,,,303,2023-11-16_15h27.49.986,leap3,2022.2.5,59.98924423594591,
4,0,4,0,,,,,,,,,,,,,,,,,,,,,,,,,,,White,y,,,,,,,,,,,,,,,,,,,,,,,,,,,,,,,,,,,,,303,2023-11-16_15h27.49.986,leap3,2022.2.5,59.98924423594591,
,,,,0,0,0,0,,,,,,,,,,,,,,,,,,,,,,,,,y,,,,,,,,,,,,,,,,,,,,,,,,,,,,,,,,,,,,303,2023-11-16_15h27.49.986,leap3,2022.2.5,59.98924423594591,
,,,,,,,,0,0,0,0,0,0,0,0,,,,,,,,,,,,,,,,,,umpire,w,g,lower,g,1,0.8334803304314846,,,,,,,,,,,,,,,,,,,,,,,,,,,,,303,2023-11-16_15h27.49.986,leap3,2022.2.5,59.98924423594591,
,,,,,,,,0,0,0,0,1,0,1,0,,,,,,,,,,,,,,,,,,tricycle,w,g,lower,g,1,1.1143382172012934,,,,,,,,,,,,,,,,,,,,,,,,,,,,,303,2023-11-16_15h27.49.986,leap3,2022.2.5,59.98924423594591,
,,,,,,,,0,0,0,0,2,0,2,0,,,,,,,,,,,,,,,,,,turative,nw,h,lower,h,1,1.1269386630883673,,,,,,,,,,,,,,,,,,,,,,,,,,,,,303,2023-11-16_15h27.49.986,leap3,2022.2.5,59.98924423594591,
,,,,,,,,0,0,0,0,3,0,3,0,,,,,,,,,,,,,,,,,,lumbigo,nw,h,lower,h,1,0.7415440121112624,,,,,,,,,,,,,,,,,,,,,,,,,,,,,303,2023-11-16_15h27.49.986,leap3,2022.2.5,59.98924423594591,
,,,,,,,,0,0,0,0,4,0,4,0,,,,,,,,,,,,,,,,,,overshoot,w,g,lower,g,1,0.5759724327072036,,,,,,,,,,,,,,,,,,,,,,,,,,,,,303,2023-11-16_15h27.49.986,leap3,2022.2.5,59.98924423594591,
,,,,,,,,0,0,0,0,5,0,5,0,,,,,,,,,,,,,,,,,,busted,w,g,lower,g,1,0.5040054591809167,,,,,,,,,,,,,,,,,,,,,,,,,,,,,303,2023-11-16_15h27.49.986,leap3,2022.2.5,59.98924423594591,
,,,,,,,,0,0,0,0,6,0,6,0,,,,,,,,,,,,,,,,,,curlecs,nw,h,lower,h,1,0.67387347521435,,,,,,,,,,,,,,,,,,,,,,,,,,,,,303,2023-11-16_15h27.49.986,leap3,2022.2.5,59.98924423594591,
,,,,,,,,0,0,0,0,7,0,7,0,,,,,,,,,,,,,,,,,,picture,w,g,lower,g,1,0.4051370091037825,,,,,,,,,,,,,,,,,,,,,,,,,,,,,303,2023-11-16_15h27.49.986,leap3,2022.2.5,59.98924423594591,
,,,,,,,,0,0,0,0,8,0,8,0,,,,,,,,,,,,,,,,,,latador,nw,h,lower,h,1,0.8510470030741999,,,,,,,,,,,,,,,,,,,,,,,,,,,,,303,2023-11-16_15h27.49.986,leap3,2022.2.5,59.98924423594591,
,,,,,,,,0,0,0,0,9,0,9,0,,,,,,,,,,,,,,,,,,grutch,nw,h,lower,g,0,0.5271031072770711,,,,,,,,,,,,,,,,,,,,,,,,,,,,,303,2023-11-16_15h27.49.986,leap3,2022.2.5,59.98924423594591,
,,,,,,,,0,0,0,0,10,0,10,0,,,,,,,,,,,,,,,,,,raestro,nw,h,lower,h,1,0.6083897925418569,,,,,,,,,,,,,,,,,,,,,,,,,,,,,303,2023-11-16_15h27.49.986,leap3,2022.2.5,59.98924423594591,
,,,,,,,,0,0,0,0,11,0,11,0,,,,,,,,,,,,,,,,,,reputable,w,g,lower,g,1,0.5894403760466957,,,,,,,,,,,,,,,,,,,,,,,,,,,,,303,2023-11-16_15h27.49.986,leap3,2022.2.5,59.98924423594591,
,,,,,,,,0,0,0,0,12,0,12,0,,,,,,,,,,,,,,,,,,trotch,nw,h,lower,h,1,0.7001054634747561,,,,,,,,,,,,,,,,,,,,,,,,,,,,,303,2023-11-16_15h27.49.986,leap3,2022.2.5,59.98924423594591,
,,,,,,,,0,0,0,0,13,0,13,0,,,,,,,,,,,,,,,,,,unscrew,w,g,lower,g,1,0.5575862556725042,,,,,,,,,,,,,,,,,,,,,,,,,,,,,303,2023-11-16_15h27.49.986,leap3,2022.2.5,59.98924423594591,
,,,,,,,,0,0,0,0,,,,,,,,,,,,,,,,,,,,,,,,,,,,,,,,,,,,,,,,,,,,,,,,,,,,,,,,,303,2023-11-16_15h27.49.986,leap3,2022.2.5,59.98924423594591,
,,,,,,,,1,0,1,0,0,0,0,0,,,,,,,,,,,,,,,,,,slumber,w,g,upper,g,1,0.5189515288511757,,,,,,,,,,,,,,,,,,,,,,,,,,,,,303,2023-11-16_15h27.49.986,leap3,2022.2.5,59.98924423594591,
,,,,,,,,1,0,1,0,1,0,1,0,,,,,,,,,,,,,,,,,,hiring,w,g,upper,g,1,0.520435692043975,,,,,,,,,,,,,,,,,,,,,,,,,,,,,303,2023-11-16_15h27.49.986,leap3,2022.2.5,59.98924423594591,
,,,,,,,,1,0,1,0,2,0,2,0,,,,,,,,,,,,,,,,,,lurshing,nw,h,upper,h,1,0.6581003550672904,,,,,,,,,,,,,,,,,,,,,,,,,,,,,303,2023-11-16_15h27.49.986,leap3,2022.2.5,59.98924423594591,
,,,,,,,,1,0,1,0,3,0,3,0,,,,,,,,,,,,,,,,,,crinklo,nw,h,upper,h,1,0.6611046008038102,,,,,,,,,,,,,,,,,,,,,,,,,,,,,303,2023-11-16_15h27.49.986,leap3,2022.2.5,59.98924423594591,
,,,,,,,,1,0,1,0,4,0,4,0,,,,,,,,,,,,,,,,,,sponsor,w,g,upper,g,1,0.546661341591971,,,,,,,,,,,,,,,,,,,,,,,,,,,,,303,2023-11-16_15h27.49.986,leap3,2022.2.5,59.98924423594591,
,,,,,,,,1,0,1,0,5,0,5,0,,,,,,,,,,,,,,,,,,revival,w,g,upper,g,1,0.5551591342082247,,,,,,,,,,,,,,,,,,,,,,,,,,,,,303,2023-11-16_15h27.49.986,leap3,2022.2.5,59.98924423594591,
,,,,,,,,1,0,1,0,6,0,6,0,,,,,,,,,,,,,,,,,,alolition,nw,h,upper,h,1,0.5463178439822514,,,,,,,,,,,,,,,,,,,,,,,,,,,,,303,2023-11-16_15h27.49.986,leap3,2022.2.5,59.98924423594591,
,,,,,,,,1,0,1,0,7,0,7,0,,,,,,,,,,,,,,,,,,infinity,w,g,upper,g,1,0.5227843342581764,,,,,,,,,,,,,,,,,,,,,,,,,,,,,303,2023-11-16_15h27.49.986,leap3,2022.2.5,59.98924423594591,
,,,,,,,,1,0,1,0,8,0,8,0,,,,,,,,,,,,,,,,,,hasking,nw,h,upper,g,0,0.47611876629525796,,,,,,,,,,,,,,,,,,,,,,,,,,,,,303,2023-11-16_15h27.49.986,leap3,2022.2.5,59.98924423594591,
,,,,,,,,1,0,1,0,9,0,9,0,,,,,,,,,,,,,,,,,,julled,nw,h,upper,h,1,0.686878089181846,,,,,,,,,,,,,,,,,,,,,,,,,,,,,303,2023-11-16_15h27.49.986,leap3,2022.2.5,59.98924423594591,
,,,,,,,,1,0,1,0,10,0,10,0,,,,,,,,,,,,,,,,,,grocus,nw,h,upper,h,1,0.7219770243391395,,,,,,,,,,,,,,,,,,,,,,,,,,,,,303,2023-11-16_15h27.49.986,leap3,2022.2.5,59.98924423594591,
,,,,,,,,1,0,1,0,11,0,11,0,,,,,,,,,,,,,,,,,,summary,w,g,upper,g,1,0.5072807601391105,,,,,,,,,,,,,,,,,,,,,,,,,,,,,303,2023-11-16_15h27.49.986,leap3,2022.2.5,59.98924423594591,
,,,,,,,,1,0,1,0,12,0,12,0,,,,,,,,,,,,,,,,,,treeps,nw,h,upper,h,1,0.7163666641135933,,,,,,,,,,,,,,,,,,,,,,,,,,,,,303,2023-11-16_15h27.49.986,leap3,2022.2.5,59.98924423594591,
,,,,,,,,1,0,1,0,13,0,13,0,,,,,,,,,,,,,,,,,,grimace,w,g,upper,h,0,0.5901859288278501,,,,,,,,,,,,,,,,,,,,,,,,,,,,,303,2023-11-16_15h27.49.986,leap3,2022.2.5,59.98924423594591,
,,,,,,,,1,0,1,0,,,,,,,,,,,,,,,,,,,,,,,,,,,,,,,,,,,,,,,,,,,,,,,,,,,,,,,,,303,2023-11-16_15h27.49.986,leap3,2022.2.5,59.98924423594591,
,,,,,,,,,,,,,,,,0,0,0,0,,,,,,,,,,,,,,,,,,,,,y,,,,,,,,,,,,,,,,,,,,,,,,,,,,303,2023-11-16_15h27.49.986,leap3,2022.2.5,59.98924423594591,
,,,,,,,,,,,,,,,,,,,,0,0,0,0,0,0,0,0,,,,,,snife,nw,h,lower,,,,,animal,"
q",1,nw,HiDemTar,g,0,1.0490866519976407,,,,,,,,,,,,,,,,,,,,303,2023-11-16_15h27.49.986,leap3,2022.2.5,59.98924423594591,
,,,,,,,,,,,,,,,,,,,,0,0,0,0,1,0,1,0,,,,,,trooper,w,g,lower,,,,,,,1,w,HiDemTar,g,1,0.8303966999228578,,,,,,,,,,,,,,,,,,,,303,2023-11-16_15h27.49.986,leap3,2022.2.5,59.98924423594591,
,,,,,,,,,,,,,,,,,,,,0,0,0,0,2,0,2,0,,,,,,turntable,w,g,lower,,,,,,,1,w,HiDemTar,g,1,0.8443904541927623,,,,,,,,,,,,,,,,,,,,303,2023-11-16_15h27.49.986,leap3,2022.2.5,59.98924423594591,
,,,,,,,,,,,,,,,,,,,,0,0,0,0,3,0,3,0,,,,,,cookbook,w,g,lower,,,,,,,1,w,HiDemTar,g,1,0.7537387806805782,,,,,,,,,,,,,,,,,,,,303,2023-11-16_15h27.49.986,leap3,2022.2.5,59.98924423594591,
,,,,,,,,,,,,,,,,,,,,0,0,0,0,4,0,4,0,,,,,,gelented,nw,h,lower,,,,,,,1,nw,HiDemTar,h,1,0.8903002066799672,,,,,,,,,,,,,,,,,,,,303,2023-11-16_15h27.49.986,leap3,2022.2.5,59.98924423594591,
,,,,,,,,,,,,,,,,,,,,0,0,0,0,5,0,5,0,,,,,,binder,w,g,lower,,,,,,,1,w,HiDemTar,g,1,0.677613011066569,,,,,,,,,,,,,,,,,,,,303,2023-11-16_15h27.49.986,leap3,2022.2.5,59.98924423594591,
,,,,,,,,,,,,,,,,,,,,0,0,0,0,6,0,6,0,,,,,,located,w,g,lower,,,,,,,1,w,HiDemTar,g,1,0.6495826408063294,,,,,,,,,,,,,,,,,,,,303,2023-11-16_15h27.49.986,leap3,2022.2.5,59.98924423594591,
,,,,,,,,,,,,,,,,,,,,0,0,0,0,7,0,7,0,,,,,,grieving,w,g,lower,,,,,,,1,w,HiDemTar,g,1,0.6148754981550155,,,,,,,,,,,,,,,,,,,,303,2023-11-16_15h27.49.986,leap3,2022.2.5,59.98924423594591,
,,,,,,,,,,,,,,,,,,,,0,0,0,0,8,0,8,0,,,,,,anterior,w,g,lower,,,,,,,1,w,HiDemTar,g,1,0.8765524546615779,,,,,,,,,,,,,,,,,,,,303,2023-11-16_15h27.49.986,leap3,2022.2.5,59.98924423594591,
,,,,,,,,,,,,,,,,,,,,0,0,0,0,9,0,9,0,,,,,,chyme,nw,h,lower,,,,,,,1,nw,HiDemTar,g,0,1.4006329043331789,,,,,,,,,,,,,,,,,,,,303,2023-11-16_15h27.49.986,leap3,2022.2.5,59.98924423594591,
,,,,,,,,,,,,,,,,,,,,0,0,0,0,10,0,10,0,,,,,,fabstand,nw,h,lower,,,,,,,1,nw,HiDemTar,h,1,0.6071389541757526,,,,,,,,,,,,,,,,,,,,303,2023-11-16_15h27.49.986,leap3,2022.2.5,59.98924423594591,
,,,,,,,,,,,,,,,,,,,,0,0,0,0,11,0,11,0,,,,,,nauling,nw,h,lower,,,,,,,1,nw,HiDemTar,h,1,0.5897606317157624,,,,,,,,,,,,,,,,,,,,303,2023-11-16_15h27.49.986,leap3,2022.2.5,59.98924423594591,
,,,,,,,,,,,,,,,,,,,,0,0,0,0,12,0,12,0,,,,,,frigs,nw,h,lower,,,,,,,1,nw,HiDemTar,h,1,0.6678495897504035,,,,,,,,,,,,,,,,,,,,303,2023-11-16_15h27.49.986,leap3,2022.2.5,59.98924423594591,
,,,,,,,,,,,,,,,,,,,,0,0,0,0,13,0,13,0,,,,,,dazid,nw,h,lower,,,,,,,1,nw,HiDemTar,h,1,1.0613544666266534,,,,,,,,,,,,,,,,,,,,303,2023-11-16_15h27.49.986,leap3,2022.2.5,59.98924423594591,
,,,,,,,,,,,,,,,,,,,,0,0,0,0,14,0,14,0,,,,,,probable,w,g,lower,,,,,,,1,w,HiDemTar,g,1,0.628810694834101,,,,,,,,,,,,,,,,,,,,303,2023-11-16_15h27.49.986,leap3,2022.2.5,59.98924423594591,
,,,,,,,,,,,,,,,,,,,,0,0,0,0,15,0,15,0,,,,,,esdings,nw,h,lower,,,,,,,1,nw,HiDemTar,h,1,0.7636534254561411,,,,,,,,,,,,,,,,,,,,303,2023-11-16_15h27.49.986,leap3,2022.2.5,59.98924423594591,
,,,,,,,,,,,,,,,,,,,,0,0,0,0,16,0,16,0,,,,,,paranoid,w,g,lower,,,,,,,1,w,HiDemTar,g,1,0.7073647932847962,,,,,,,,,,,,,,,,,,,,303,2023-11-16_15h27.49.986,leap3,2022.2.5,59.98924423594591,
,,,,,,,,,,,,,,,,,,,,0,0,0,0,17,0,17,0,,,,,,hackal,nw,h,lower,,,,,,,1,nw,HiDemTar,h,1,0.685874762275489,,,,,,,,,,,,,,,,,,,,303,2023-11-16_15h27.49.986,leap3,2022.2.5,59.98924423594591,
,,,,,,,,,,,,,,,,,,,,0,0,0,0,18,0,18,0,,,,,,overcoat,w,g,lower,,,,,,,1,w,HiDemTar,g,1,0.6411995486123487,,,,,,,,,,,,,,,,,,,,303,2023-11-16_15h27.49.986,leap3,2022.2.5,59.98924423594591,
,,,,,,,,,,,,,,,,,,,,0,0,0,0,19,0,19,0,,,,,,rualify,nw,h,lower,,,,,,,1,nw,HiDemTar,h,1,0.8385627668321831,,,,,,,,,,,,,,,,,,,,303,2023-11-16_15h27.49.986,leap3,2022.2.5,59.98924423594591,
,,,,,,,,,,,,,,,,,,,,0,0,0,0,20,0,20,0,,,,,,digar,nw,h,lower,,,,,,,1,nw,HiDemTar,h,1,0.63577089800674,,,,,,,,,,,,,,,,,,,,303,2023-11-16_15h27.49.986,leap3,2022.2.5,59.98924423594591,
,,,,,,,,,,,,,,,,,,,,0,0,0,0,21,0,21,0,,,,,,pracking,nw,h,lower,,,,,,,1,nw,HiDemTar,h,1,0.7130666120210662,,,,,,,,,,,,,,,,,,,,303,2023-11-16_15h27.49.986,leap3,2022.2.5,59.98924423594591,
,,,,,,,,,,,,,,,,,,,,0,0,0,0,22,0,22,0,,,,,,committed,w,g,lower,,,,,,,1,w,HiDemTar,g,1,0.595772443441092,,,,,,,,,,,,,,,,,,,,303,2023-11-16_15h27.49.986,leap3,2022.2.5,59.98924423594591,
,,,,,,,,,,,,,,,,,,,,0,0,0,0,23,0,23,0,,,,,,retain,w,g,lower,,,,,,,1,w,HiDemTar,g,1,0.6269751861109398,,,,,,,,,,,,,,,,,,,,303,2023-11-16_15h27.49.986,leap3,2022.2.5,59.98924423594591,
,,,,,,,,,,,,,,,,,,,,0,0,0,0,24,0,24,0,,,,,,pepperoni,w,g,lower,,,,,,,1,w,HiDemTar,g,1,0.5769661006343085,,,,,,,,,,,,,,,,,,,,303,2023-11-16_15h27.49.986,leap3,2022.2.5,59.98924423594591,
,,,,,,,,,,,,,,,,,,,,0,0,0,0,25,0,25,0,,,,,,peems,nw,h,lower,,,,,,,1,nw,HiDemTar,h,1,0.6799749343772419,,,,,,,,,,,,,,,,,,,,303,2023-11-16_15h27.49.986,leap3,2022.2.5,59.98924423594591,
,,,,,,,,,,,,,,,,,,,,0,0,0,0,26,0,26,0,,,,,,rantho,nw,h,lower,,,,,,,1,nw,HiDemTar,h,1,0.6199476719048107,,,,,,,,,,,,,,,,,,,,303,2023-11-16_15h27.49.986,leap3,2022.2.5,59.98924423594591,
,,,,,,,,,,,,,,,,,,,,0,0,0,0,27,0,27,0,,,,,,dolphin,target,q,lower,,,,,,,1,target,HiDemTar,q,1,0.6898569800687255,1,,,,,,,,,,,,,,,,,,,303,2023-11-16_15h27.49.986,leap3,2022.2.5,59.98924423594591,
,,,,,,,,,,,,,,,,,,,,0,0,0,0,28,0,28,0,,,,,,rootsie,nw,h,lower,,,,,,,1,aftertar1,HiDemTar,g,0,0.7251656962907873,,,,,,,,,,,,,,,,,,,,303,2023-11-16_15h27.49.986,leap3,2022.2.5,59.98924423594591,
,,,,,,,,,,,,,,,,,,,,0,0,0,0,29,0,29,0,,,,,,admire,w,g,lower,,,,,,,1,aftertar2,HiDemTar,g,1,0.6471736299426993,,,,,,,,,,,,,,,,,,,,303,2023-11-16_15h27.49.986,leap3,2022.2.5,59.98924423594591,
,,,,,,,,,,,,,,,,,,,,0,0,0,0,,,,,,,,,,,,,,,,,,,,,,,,,,,1,,,,,,,,,,,,,,,,,,303,2023-11-16_15h27.49.986,leap3,2022.2.5,59.98924423594591,
,,,,,,,,,,,,,,,,,,,,1,0,1,0,0,0,0,0,,,,,,checkout,w,g,upper,,,,,,,4,w,LoDemTar,g,1,0.6283875106164487,,,,,,,,,,,,,,,,,,,,303,2023-11-16_15h27.49.986,leap3,2022.2.5,59.98924423594591,
,,,,,,,,,,,,,,,,,,,,1,0,1,0,1,0,1,0,,,,,,treason,w,g,upper,,,,,,,4,w,LoDemTar,g,1,0.5601274738874054,,,,,,,,,,,,,,,,,,,,303,2023-11-16_15h27.49.986,leap3,2022.2.5,59.98924423594591,
,,,,,,,,,,,,,,,,,,,,1,0,1,0,2,0,2,0,,,,,,ugifies,nw,h,upper,,,,,,,4,nw,LoDemTar,h,1,0.6807582175679272,,,,,,,,,,,,,,,,,,,,303,2023-11-16_15h27.49.986,leap3,2022.2.5,59.98924423594591,
,,,,,,,,,,,,,,,,,,,,1,0,1,0,3,0,3,0,,,,,,border,w,g,upper,,,,,,,4,w,LoDemTar,g,1,0.8213580042356625,,,,,,,,,,,,,,,,,,,,303,2023-11-16_15h27.49.986,leap3,2022.2.5,59.98924423594591,
,,,,,,,,,,,,,,,,,,,,1,0,1,0,4,0,4,0,,,,,,disperse,w,g,upper,,,,,,,4,w,LoDemTar,g,1,1.867717201312189,,,,,,,,,,,,,,,,,,,,303,2023-11-16_15h27.49.986,leap3,2022.2.5,59.98924423594591,
,,,,,,,,,,,,,,,,,,,,1,0,1,0,5,0,5,0,,,,,,nogwhell,nw,h,upper,,,,,,,4,nw,LoDemTar,h,1,0.6479704960802337,,,,,,,,,,,,,,,,,,,,303,2023-11-16_15h27.49.986,leap3,2022.2.5,59.98924423594591,
,,,,,,,,,,,,,,,,,,,,1,0,1,0,6,0,6,0,,,,,,equitable,w,g,upper,,,,,,,4,w,LoDemTar,g,1,0.674846315960167,,,,,,,,,,,,,,,,,,,,303,2023-11-16_15h27.49.986,leap3,2022.2.5,59.98924423594591,
,,,,,,,,,,,,,,,,,,,,1,0,1,0,7,0,7,0,,,,,,implode,w,g,upper,,,,,,,4,w,LoDemTar,h,0,0.6890969388041412,,,,,,,,,,,,,,,,,,,,303,2023-11-16_15h27.49.986,leap3,2022.2.5,59.98924423594591,
,,,,,,,,,,,,,,,,,,,,1,0,1,0,8,0,8,0,,,,,,dislokes,nw,h,upper,,,,,,,4,nw,LoDemTar,h,1,0.8355573137232568,,,,,,,,,,,,,,,,,,,,303,2023-11-16_15h27.49.986,leap3,2022.2.5,59.98924423594591,
,,,,,,,,,,,,,,,,,,,,1,0,1,0,9,0,9,0,,,,,,pakened,nw,h,upper,,,,,,,4,nw,LoDemTar,h,1,0.7127255291561596,,,,,,,,,,,,,,,,,,,,303,2023-11-16_15h27.49.986,leap3,2022.2.5,59.98924423594591,
,,,,,,,,,,,,,,,,,,,,1,0,1,0,10,0,10,0,,,,,,grolific,nw,h,upper,,,,,,,4,nw,LoDemTar,h,1,0.6433885157457553,,,,,,,,,,,,,,,,,,,,303,2023-11-16_15h27.49.986,leap3,2022.2.5,59.98924423594591,
,,,,,,,,,,,,,,,,,,,,1,0,1,0,11,0,11,0,,,,,,consonant,w,g,upper,,,,,,,4,w,LoDemTar,g,1,0.8006446158542531,,,,,,,,,,,,,,,,,,,,303,2023-11-16_15h27.49.986,leap3,2022.2.5,59.98924423594591,
,,,,,,,,,,,,,,,,,,,,1,0,1,0,12,0,12,0,,,,,,condensed,w,g,upper,,,,,,,4,w,LoDemTar,g,1,0.6393042749259621,,,,,,,,,,,,,,,,,,,,303,2023-11-16_15h27.49.986,leap3,2022.2.5,59.98924423594591,
,,,,,,,,,,,,,,,,,,,,1,0,1,0,13,0,13,0,,,,,,elormity,nw,h,upper,,,,,,,4,nw,LoDemTar,h,1,0.7086521546880249,,,,,,,,,,,,,,,,,,,,303,2023-11-16_15h27.49.986,leap3,2022.2.5,59.98924423594591,
,,,,,,,,,,,,,,,,,,,,1,0,1,0,14,0,14,0,,,,,,lutton,nw,h,upper,,,,,,,4,nw,LoDemTar,h,1,0.7112815111322561,,,,,,,,,,,,,,,,,,,,303,2023-11-16_15h27.49.986,leap3,2022.2.5,59.98924423594591,
,,,,,,,,,,,,,,,,,,,,1,0,1,0,15,0,15,0,,,,,,contusiok,nw,h,upper,,,,,,,4,nw,LoDemTar,h,1,0.7379040845262352,,,,,,,,,,,,,,,,,,,,303,2023-11-16_15h27.49.986,leap3,2022.2.5,59.98924423594591,
,,,,,,,,,,,,,,,,,,,,1,0,1,0,16,0,16,0,,,,,,dreaded,w,g,upper,,,,,,,4,w,LoDemTar,g,1,0.5543849063105881,,,,,,,,,,,,,,,,,,,,303,2023-11-16_15h27.49.986,leap3,2022.2.5,59.98924423594591,
,,,,,,,,,,,,,,,,,,,,1,0,1,0,17,0,17,0,,,,,,legalosm,nw,h,upper,,,,,,,4,nw,LoDemTar,h,1,0.6599108108057408,,,,,,,,,,,,,,,,,,,,303,2023-11-16_15h27.49.986,leap3,2022.2.5,59.98924423594591,
,,,,,,,,,,,,,,,,,,,,1,0,1,0,18,0,18,0,,,,,,pocket,w,g,upper,,,,,,,4,w,LoDemTar,g,1,0.5674900340964086,,,,,,,,,,,,,,,,,,,,303,2023-11-16_15h27.49.986,leap3,2022.2.5,59.98924423594591,
,,,,,,,,,,,,,,,,,,,,1,0,1,0,19,0,19,0,,,,,,splum,nw,h,upper,,,,,,,4,nw,LoDemTar,h,1,0.5434953078947728,,,,,,,,,,,,,,,,,,,,303,2023-11-16_15h27.49.986,leap3,2022.2.5,59.98924423594591,
,,,,,,,,,,,,,,,,,,,,1,0,1,0,20,0,20,0,,,,,,satisfies,w,g,upper,,,,,,,4,w,LoDemTar,g,1,0.6487809451646172,,,,,,,,,,,,,,,,,,,,303,2023-11-16_15h27.49.986,leap3,2022.2.5,59.98924423594591,
,,,,,,,,,,,,,,,,,,,,1,0,1,0,21,0,21,0,,,,,,unlined,w,g,upper,,,,,,,4,w,LoDemTar,g,1,0.614121191916638,,,,,,,,,,,,,,,,,,,,303,2023-11-16_15h27.49.986,leap3,2022.2.5,59.98924423594591,
,,,,,,,,,,,,,,,,,,,,1,0,1,0,22,0,22,0,,,,,,nollow,nw,h,upper,,,,,,,4,nw,LoDemTar,h,1,0.6447383587074,,,,,,,,,,,,,,,,,,,,303,2023-11-16_15h27.49.986,leap3,2022.2.5,59.98924423594591,
,,,,,,,,,,,,,,,,,,,,1,0,1,0,23,0,23,0,,,,,,spiud,nw,h,upper,,,,,,,4,nw,LoDemTar,h,1,0.6580327421834227,,,,,,,,,,,,,,,,,,,,303,2023-11-16_15h27.49.986,leap3,2022.2.5,59.98924423594591,
,,,,,,,,,,,,,,,,,,,,1,0,1,0,24,0,24,0,,,,,,release,w,g,upper,,,,,,,4,w,LoDemTar,g,1,0.5895864681660896,,,,,,,,,,,,,,,,,,,,303,2023-11-16_15h27.49.986,leap3,2022.2.5,59.98924423594591,
,,,,,,,,,,,,,,,,,,,,1,0,1,0,25,0,25,0,,,,,,ladybug,target,q,upper,,,,,,,4,target,LoDemTar,q,1,0.5807095604395727,1,,,,,,,,,,,,,,,,,,,303,2023-11-16_15h27.49.986,leap3,2022.2.5,59.98924423594591,
,,,,,,,,,,,,,,,,,,,,1,0,1,0,26,0,26,0,,,,,,breiled,nw,h,upper,,,,,,,4,aftertar1,LoDemTar,h,1,0.8204123293689918,,,,,,,,,,,,,,,,,,,,303,2023-11-16_15h27.49.986,leap3,2022.2.5,59.98924423594591,
,,,,,,,,,,,,,,,,,,,,1,0,1,0,27,0,27,0,,,,,,lanthers,nw,h,upper,,,,,,,4,aftertar2,LoDemTar,h,1,0.9549200140027096,,,,,,,,,,,,,,,,,,,,303,2023-11-16_15h27.49.986,leap3,2022.2.5,59.98924423594591,
,,,,,,,,,,,,,,,,,,,,1,0,1,0,28,0,28,0,,,,,,resent,w,g,upper,,,,,,,4,aftertar3,LoDemTar,g,1,0.7554882640833966,,,,,,,,,,,,,,,,,,,,303,2023-11-16_15h27.49.986,leap3,2022.2.5,59.98924423594591,
,,,,,,,,,,,,,,,,,,,,1,0,1,0,29,0,29,0,,,,,,pammed,nw,h,upper,,,,,,,4,w,LoDemTar,h,1,0.7395901808486087,,,,,,,,,,,,,,,,,,,,303,2023-11-16_15h27.49.986,leap3,2022.2.5,59.98924423594591,
,,,,,,,,,,,,,,,,,,,,1,0,1,0,,,,,,,,,,,,,,,,,,,,,,,,,,,1,,,,,,,,,,,,,,,,,,303,2023-11-16_15h27.49.986,leap3,2022.2.5,59.98924423594591,
,,,,,,,,,,,,,,,,,,,,2,0,2,0,0,0,0,0,,,,,,defensa,nw,h,lower,,,,,,,2,nw,HiDemNoTar,h,1,0.7324920352984918,,,,,,,,,,,,,,,,,,,,303,2023-11-16_15h27.49.986,leap3,2022.2.5,59.98924423594591,
,,,,,,,,,,,,,,,,,,,,2,0,2,0,1,0,1,0,,,,,,sonnet,w,g,lower,,,,,,,2,w,HiDemNoTar,h,0,0.6873236098035704,,,,,,,,,,,,,,,,,,,,303,2023-11-16_15h27.49.986,leap3,2022.2.5,59.98924423594591,
,,,,,,,,,,,,,,,,,,,,2,0,2,0,2,0,2,0,,,,,,golemic,nw,h,lower,,,,,,,2,nw,HiDemNoTar,h,1,0.6735894407320302,,,,,,,,,,,,,,,,,,,,303,2023-11-16_15h27.49.986,leap3,2022.2.5,59.98924423594591,
,,,,,,,,,,,,,,,,,,,,2,0,2,0,3,0,3,0,,,,,,bellicove,nw,h,lower,,,,,,,2,nw,HiDemNoTar,h,1,0.6935708592500305,,,,,,,,,,,,,,,,,,,,303,2023-11-16_15h27.49.986,leap3,2022.2.5,59.98924423594591,
,,,,,,,,,,,,,,,,,,,,2,0,2,0,4,0,4,0,,,,,,baladroit,nw,h,lower,,,,,,,2,nw,HiDemNoTar,h,1,0.6248840161861153,,,,,,,,,,,,,,,,,,,,303,2023-11-16_15h27.49.986,leap3,2022.2.5,59.98924423594591,
,,,,,,,,,,,,,,,,,,,,2,0,2,0,5,0,5,0,,,,,,sweeping,w,g,lower,,,,,,,2,w,HiDemNoTar,g,1,0.5748480666516116,,,,,,,,,,,,,,,,,,,,303,2023-11-16_15h27.49.986,leap3,2022.2.5,59.98924423594591,
,,,,,,,,,,,,,,,,,,,,2,0,2,0,6,0,6,0,,,,,,duries,nw,h,lower,,,,,,,2,nw,HiDemNoTar,h,1,0.8628587325802073,,,,,,,,,,,,,,,,,,,,303,2023-11-16_15h27.49.986,leap3,2022.2.5,59.98924423594591,
,,,,,,,,,,,,,,,,,,,,2,0,2,0,7,0,7,0,,,,,,maroon,w,g,lower,,,,,,,2,w,HiDemNoTar,g,1,0.7234795999684138,,,,,,,,,,,,,,,,,,,,303,2023-11-16_15h27.49.986,leap3,2022.2.5,59.98924423594591,
,,,,,,,,,,,,,,,,,,,,2,0,2,0,8,0,8,0,,,,,,foster,w,g,lower,,,,,,,2,w,HiDemNoTar,g,1,0.6534948309854371,,,,,,,,,,,,,,,,,,,,303,2023-11-16_15h27.49.986,leap3,2022.2.5,59.98924423594591,
,,,,,,,,,,,,,,,,,,,,2,0,2,0,9,0,9,0,,,,,,priant,nw,h,lower,,,,,,,2,nw,HiDemNoTar,h,1,0.6340863109071506,,,,,,,,,,,,,,,,,,,,303,2023-11-16_15h27.49.986,leap3,2022.2.5,59.98924423594591,
,,,,,,,,,,,,,,,,,,,,2,0,2,0,10,0,10,0,,,,,,exclusion,w,g,lower,,,,,,,2,w,HiDemNoTar,g,1,0.7888627688371344,,,,,,,,,,,,,,,,,,,,303,2023-11-16_15h27.49.986,leap3,2022.2.5,59.98924423594591,
,,,,,,,,,,,,,,,,,,,,2,0,2,0,11,0,11,0,,,,,,slooping,nw,h,lower,,,,,,,2,nw,HiDemNoTar,h,1,1.0216913598997053,,,,,,,,,,,,,,,,,,,,303,2023-11-16_15h27.49.986,leap3,2022.2.5,59.98924423594591,
,,,,,,,,,,,,,,,,,,,,2,0,2,0,12,0,12,0,,,,,,buzzer,w,g,lower,,,,,,,2,w,HiDemNoTar,g,1,0.49969151565164793,,,,,,,,,,,,,,,,,,,,303,2023-11-16_15h27.49.986,leap3,2022.2.5,59.98924423594591,
,,,,,,,,,,,,,,,,,,,,2,0,2,0,13,0,13,0,,,,,,bamboo,w,g,lower,,,,,,,2,w,HiDemNoTar,q,0,0.6230128899624106,,,,,,,,,,,,,,,,,,,,303,2023-11-16_15h27.49.986,leap3,2022.2.5,59.98924423594591,
,,,,,,,,,,,,,,,,,,,,2,0,2,0,14,0,14,0,,,,,,machinery,w,g,lower,,,,,,,2,w,HiDemNoTar,g,1,1.0758055133919697,,,,,,,,,,,,,,,,,,,,303,2023-11-16_15h27.49.986,leap3,2022.2.5,59.98924423594591,
,,,,,,,,,,,,,,,,,,,,2,0,2,0,15,0,15,0,,,,,,trewl,nw,h,lower,,,,,,,2,nw,HiDemNoTar,h,1,0.6401174406055361,,,,,,,,,,,,,,,,,,,,303,2023-11-16_15h27.49.986,leap3,2022.2.5,59.98924423594591,
,,,,,,,,,,,,,,,,,,,,2,0,2,0,16,0,16,0,,,,,,colored,w,g,lower,,,,,,,2,w,HiDemNoTar,g,1,0.638133425018168,,,,,,,,,,,,,,,,,,,,303,2023-11-16_15h27.49.986,leap3,2022.2.5,59.98924423594591,
,,,,,,,,,,,,,,,,,,,,2,0,2,0,17,0,17,0,,,,,,coster,nw,h,lower,,,,,,,2,nw,HiDemNoTar,g,0,0.8355056985310512,,,,,,,,,,,,,,,,,,,,303,2023-11-16_15h27.49.986,leap3,2022.2.5,59.98924423594591,
,,,,,,,,,,,,,,,,,,,,2,0,2,0,18,0,18,0,,,,,,profats,nw,h,lower,,,,,,,2,nw,HiDemNoTar,h,1,0.6720379664911889,,,,,,,,,,,,,,,,,,,,303,2023-11-16_15h27.49.986,leap3,2022.2.5,59.98924423594591,
,,,,,,,,,,,,,,,,,,,,2,0,2,0,19,0,19,0,,,,,,criminal,w,g,lower,,,,,,,2,w,HiDemNoTar,g,1,0.6208562200336019,,,,,,,,,,,,,,,,,,,,303,2023-11-16_15h27.49.986,leap3,2022.2.5,59.98924423594591,
,,,,,,,,,,,,,,,,,,,,2,0,2,0,20,0,20,0,,,,,,ethical,w,g,lower,,,,,,,2,w,HiDemNoTar,g,1,0.705771362860105,,,,,,,,,,,,,,,,,,,,303,2023-11-16_15h27.49.986,leap3,2022.2.5,59.98924423594591,
,,,,,,,,,,,,,,,,,,,,2,0,2,0,21,0,21,0,,,,,,ebciting,nw,h,lower,,,,,,,2,nw,HiDemNoTar,h,1,0.7085368505795486,,,,,,,,,,,,,,,,,,,,303,2023-11-16_15h27.49.986,leap3,2022.2.5,59.98924423594591,
,,,,,,,,,,,,,,,,,,,,2,0,2,0,22,0,22,0,,,,,,dricked,nw,h,lower,,,,,,,2,nw,HiDemNoTar,h,1,0.7910888626938686,,,,,,,,,,,,,,,,,,,,303,2023-11-16_15h27.49.986,leap3,2022.2.5,59.98924423594591,
,,,,,,,,,,,,,,,,,,,,2,0,2,0,23,0,23,0,,,,,,artifact,w,g,lower,,,,,,,2,w,HiDemNoTar,g,1,0.7823987959272927,,,,,,,,,,,,,,,,,,,,303,2023-11-16_15h27.49.986,leap3,2022.2.5,59.98924423594591,
,,,,,,,,,,,,,,,,,,,,2,0,2,0,24,0,24,0,,,,,,region,w,g,lower,,,,,,,2,w,HiDemNoTar,g,1,0.5742621889221482,,,,,,,,,,,,,,,,,,,,303,2023-11-16_15h27.49.986,leap3,2022.2.5,59.98924423594591,
,,,,,,,,,,,,,,,,,,,,2,0,2,0,25,0,25,0,,,,,,migmarole,nw,h,lower,,,,,,,2,nw,HiDemNoTar,h,1,0.7102778823609697,,,,,,,,,,,,,,,,,,,,303,2023-11-16_15h27.49.986,leap3,2022.2.5,59.98924423594591,
,,,,,,,,,,,,,,,,,,,,2,0,2,0,26,0,26,0,,,,,,gelfry,nw,h,lower,,,,,,,2,nw,HiDemNoTar,h,1,0.6249335184693336,,,,,,,,,,,,,,,,,,,,303,2023-11-16_15h27.49.986,leap3,2022.2.5,59.98924423594591,
,,,,,,,,,,,,,,,,,,,,2,0,2,0,27,0,27,0,,,,,,funtair,nw,h,lower,,,,,,,2,nw,HiDemNoTar,h,1,0.6459671625198098,,,,,,,,,,,,,,,,,,,,303,2023-11-16_15h27.49.986,leap3,2022.2.5,59.98924423594591,
,,,,,,,,,,,,,,,,,,,,2,0,2,0,28,0,28,0,,,,,,contain,w,g,lower,,,,,,,2,w,HiDemNoTar,g,1,0.7241484845872037,,,,,,,,,,,,,,,,,,,,303,2023-11-16_15h27.49.986,leap3,2022.2.5,59.98924423594591,
,,,,,,,,,,,,,,,,,,,,2,0,2,0,29,0,29,0,,,,,,blocking,w,g,lower,,,,,,,2,w,HiDemNoTar,g,1,0.6451379991485737,,,,,,,,,,,,,,,,,,,,303,2023-11-16_15h27.49.986,leap3,2022.2.5,59.98924423594591,
,,,,,,,,,,,,,,,,,,,,2,0,2,0,,,,,,,,,,,,,,,,,,,,,,,,,,,NA,,,,,,,,,,,,,,,,,,303,2023-11-16_15h27.49.986,leap3,2022.2.5,59.98924423594591,
,,,,,,,,,,,,,,,,,,,,3,0,3,0,0,0,0,0,,,,,,vopings,nw,h,lower,,,,,,,1,nw,HiDemTar,h,1,0.85836398495303,,,,,,,,,,,,,,,,,,,,303,2023-11-16_15h27.49.986,leap3,2022.2.5,59.98924423594591,
,,,,,,,,,,,,,,,,,,,,3,0,3,0,1,0,1,0,,,,,,reses,nw,h,lower,,,,,,,1,nw,HiDemTar,h,1,0.6790521996153984,,,,,,,,,,,,,,,,,,,,303,2023-11-16_15h27.49.986,leap3,2022.2.5,59.98924423594591,
,,,,,,,,,,,,,,,,,,,,3,0,3,0,2,0,2,0,,,,,,image,w,g,lower,,,,,,,1,w,HiDemTar,g,1,0.6100891699607018,,,,,,,,,,,,,,,,,,,,303,2023-11-16_15h27.49.986,leap3,2022.2.5,59.98924423594591,
,,,,,,,,,,,,,,,,,,,,3,0,3,0,3,0,3,0,,,,,,postal,w,g,lower,,,,,,,1,w,HiDemTar,g,1,0.6324518297915347,,,,,,,,,,,,,,,,,,,,303,2023-11-16_15h27.49.986,leap3,2022.2.5,59.98924423594591,
,,,,,,,,,,,,,,,,,,,,3,0,3,0,4,0,4,0,,,,,,lasprey,nw,h,lower,,,,,,,1,nw,HiDemTar,h,1,0.5893615949462401,,,,,,,,,,,,,,,,,,,,303,2023-11-16_15h27.49.986,leap3,2022.2.5,59.98924423594591,
,,,,,,,,,,,,,,,,,,,,3,0,3,0,5,0,5,0,,,,,,splinging,nw,h,lower,,,,,,,1,nw,HiDemTar,h,1,0.8534357904427452,,,,,,,,,,,,,,,,,,,,303,2023-11-16_15h27.49.986,leap3,2022.2.5,59.98924423594591,
,,,,,,,,,,,,,,,,,,,,3,0,3,0,6,0,6,0,,,,,,atble,nw,h,lower,,,,,,,1,nw,HiDemTar,h,1,0.6507064031757182,,,,,,,,,,,,,,,,,,,,303,2023-11-16_15h27.49.986,leap3,2022.2.5,59.98924423594591,
,,,,,,,,,,,,,,,,,,,,3,0,3,0,7,0,7,0,,,,,,duplex,w,g,lower,,,,,,,1,w,HiDemTar,g,1,0.6711568860773696,,,,,,,,,,,,,,,,,,,,303,2023-11-16_15h27.49.986,leap3,2022.2.5,59.98924423594591,
,,,,,,,,,,,,,,,,,,,,3,0,3,0,8,0,8,0,,,,,,stifle,w,g,lower,,,,,,,1,w,HiDemTar,g,1,0.6511519237828907,,,,,,,,,,,,,,,,,,,,303,2023-11-16_15h27.49.986,leap3,2022.2.5,59.98924423594591,
,,,,,,,,,,,,,,,,,,,,3,0,3,0,9,0,9,0,,,,,,terming,w,g,lower,,,,,,,1,w,HiDemTar,h,0,0.8637935410806676,,,,,,,,,,,,,,,,,,,,303,2023-11-16_15h27.49.986,leap3,2022.2.5,59.98924423594591,
,,,,,,,,,,,,,,,,,,,,3,0,3,0,10,0,10,0,,,,,,demise,w,g,lower,,,,,,,1,w,HiDemTar,g,1,0.6364539692585822,,,,,,,,,,,,,,,,,,,,303,2023-11-16_15h27.49.986,leap3,2022.2.5,59.98924423594591,
,,,,,,,,,,,,,,,,,,,,3,0,3,0,11,0,11,0,,,,,,airmen,w,g,lower,,,,,,,1,w,HiDemTar,g,1,0.5768803771643434,,,,,,,,,,,,,,,,,,,,303,2023-11-16_15h27.49.986,leap3,2022.2.5,59.98924423594591,
,,,,,,,,,,,,,,,,,,,,3,0,3,0,12,0,12,0,,,,,,atsless,nw,h,lower,,,,,,,1,nw,HiDemTar,h,1,0.7127659761608811,,,,,,,,,,,,,,,,,,,,303,2023-11-16_15h27.49.986,leap3,2022.2.5,59.98924423594591,
,,,,,,,,,,,,,,,,,,,,3,0,3,0,13,0,13,0,,,,,,gackpedal,nw,h,lower,,,,,,,1,nw,HiDemTar,h,1,0.6913827976386528,,,,,,,,,,,,,,,,,,,,303,2023-11-16_15h27.49.986,leap3,2022.2.5,59.98924423594591,
,,,,,,,,,,,,,,,,,,,,3,0,3,0,14,0,14,0,,,,,,tinion,nw,h,lower,,,,,,,1,nw,HiDemTar,h,1,0.6466212568193441,,,,,,,,,,,,,,,,,,,,303,2023-11-16_15h27.49.986,leap3,2022.2.5,59.98924423594591,
,,,,,,,,,,,,,,,,,,,,3,0,3,0,15,0,15,0,,,,,,lonnote,nw,h,lower,,,,,,,1,nw,HiDemTar,h,1,0.5479692283406621,,,,,,,,,,,,,,,,,,,,303,2023-11-16_15h27.49.986,leap3,2022.2.5,59.98924423594591,
,,,,,,,,,,,,,,,,,,,,3,0,3,0,16,0,16,0,,,,,,recount,w,g,lower,,,,,,,1,w,HiDemTar,g,1,0.7172897007403662,,,,,,,,,,,,,,,,,,,,303,2023-11-16_15h27.49.986,leap3,2022.2.5,59.98924423594591,
,,,,,,,,,,,,,,,,,,,,3,0,3,0,17,0,17,0,,,,,,infancy,w,g,lower,,,,,,,1,w,HiDemTar,g,1,0.6792499069269979,,,,,,,,,,,,,,,,,,,,303,2023-11-16_15h27.49.986,leap3,2022.2.5,59.98924423594591,
,,,,,,,,,,,,,,,,,,,,3,0,3,0,18,0,18,0,,,,,,rabbit,target,q,lower,,,,,,,1,target,HiDemTar,q,1,0.6351817000249866,1,,,,,,,,,,,,,,,,,,,303,2023-11-16_15h27.49.986,leap3,2022.2.5,59.98924423594591,
,,,,,,,,,,,,,,,,,,,,3,0,3,0,19,0,19,0,,,,,,dishwater,w,g,lower,,,,,,,1,aftertar1,HiDemTar,g,1,0.7285092138045002,,,,,,,,,,,,,,,,,,,,303,2023-11-16_15h27.49.986,leap3,2022.2.5,59.98924423594591,
,,,,,,,,,,,,,,,,,,,,3,0,3,0,20,0,20,0,,,,,,pegend,nw,h,lower,,,,,,,1,aftertar2,HiDemTar,h,1,0.6416326936596306,,,,,,,,,,,,,,,,,,,,303,2023-11-16_15h27.49.986,leap3,2022.2.5,59.98924423594591,
,,,,,,,,,,,,,,,,,,,,3,0,3,0,21,0,21,0,,,,,,footstep,w,g,lower,,,,,,,1,aftertar3,HiDemTar,g,1,0.5828725690662395,,,,,,,,,,,,,,,,,,,,303,2023-11-16_15h27.49.986,leap3,2022.2.5,59.98924423594591,
,,,,,,,,,,,,,,,,,,,,3,0,3,0,22,0,22,0,,,,,,calcify,w,g,lower,,,,,,,1,w,HiDemTar,g,1,1.030796159277088,,,,,,,,,,,,,,,,,,,,303,2023-11-16_15h27.49.986,leap3,2022.2.5,59.98924423594591,
,,,,,,,,,,,,,,,,,,,,3,0,3,0,23,0,23,0,,,,,,glattery,nw,h,lower,,,,,,,1,w,HiDemTar,h,1,0.6367546051187674,,,,,,,,,,,,,,,,,,,,303,2023-11-16_15h27.49.986,leap3,2022.2.5,59.98924423594591,
,,,,,,,,,,,,,,,,,,,,3,0,3,0,24,0,24,0,,,,,,ahead,w,g,lower,,,,,,,1,nw,HiDemTar,g,1,0.6259419767156942,,,,,,,,,,,,,,,,,,,,303,2023-11-16_15h27.49.986,leap3,2022.2.5,59.98924423594591,
,,,,,,,,,,,,,,,,,,,,3,0,3,0,25,0,25,0,,,,,,ecistle,nw,h,lower,,,,,,,1,w,HiDemTar,h,1,0.591910962932161,,,,,,,,,,,,,,,,,,,,303,2023-11-16_15h27.49.986,leap3,2022.2.5,59.98924423594591,
,,,,,,,,,,,,,,,,,,,,3,0,3,0,26,0,26,0,,,,,,fictional,w,g,lower,,,,,,,1,nw,HiDemTar,g,1,0.5515406375052407,,,,,,,,,,,,,,,,,,,,303,2023-11-16_15h27.49.986,leap3,2022.2.5,59.98924423594591,
,,,,,,,,,,,,,,,,,,,,3,0,3,0,27,0,27,0,,,,,,culer,nw,h,lower,,,,,,,1,w,HiDemTar,h,1,0.519346641653101,,,,,,,,,,,,,,,,,,,,303,2023-11-16_15h27.49.986,leap3,2022.2.5,59.98924423594591,
,,,,,,,,,,,,,,,,,,,,3,0,3,0,28,0,28,0,,,,,,omission,w,g,lower,,,,,,,1,nw,HiDemTar,g,1,0.5773132203612477,,,,,,,,,,,,,,,,,,,,303,2023-11-16_15h27.49.986,leap3,2022.2.5,59.98924423594591,
,,,,,,,,,,,,,,,,,,,,3,0,3,0,29,0,29,0,,,,,,athcan,nw,h,lower,,,,,,,1,w,HiDemTar,h,1,0.6259271863964386,,,,,,,,,,,,,,,,,,,,303,2023-11-16_15h27.49.986,leap3,2022.2.5,59.98924423594591,
,,,,,,,,,,,,,,,,,,,,3,0,3,0,,,,,,,,,,,,,,,,,,,,,,,,,,,1,,,,,,,,,,,,,,,,,,303,2023-11-16_15h27.49.986,leap3,2022.2.5,59.98924423594591,
,,,,,,,,,,,,,,,,,,,,4,0,4,0,0,0,0,0,,,,,,terrify,w,g,upper,,,,,,,3,w,LoDemNoTar,g,1,0.5112635816331021,,,,,,,,,,,,,,,,,,,,303,2023-11-16_15h27.49.986,leap3,2022.2.5,59.98924423594591,
,,,,,,,,,,,,,,,,,,,,4,0,4,0,1,0,1,0,,,,,,favoting,nw,h,upper,,,,,,,3,nw,LoDemNoTar,h,1,0.7138224274822278,,,,,,,,,,,,,,,,,,,,303,2023-11-16_15h27.49.986,leap3,2022.2.5,59.98924423594591,
,,,,,,,,,,,,,,,,,,,,4,0,4,0,2,0,2,0,,,,,,dialogues,w,g,upper,,,,,,,3,w,LoDemNoTar,g,1,0.6045696645596763,,,,,,,,,,,,,,,,,,,,303,2023-11-16_15h27.49.986,leap3,2022.2.5,59.98924423594591,
,,,,,,,,,,,,,,,,,,,,4,0,4,0,3,0,3,0,,,,,,mineluyer,nw,h,upper,,,,,,,3,nw,LoDemNoTar,h,1,0.5792024571710499,,,,,,,,,,,,,,,,,,,,303,2023-11-16_15h27.49.986,leap3,2022.2.5,59.98924423594591,
,,,,,,,,,,,,,,,,,,,,4,0,4,0,4,0,4,0,,,,,,intercede,w,g,upper,,,,,,,3,w,LoDemNoTar,h,0,0.7391117593215313,,,,,,,,,,,,,,,,,,,,303,2023-11-16_15h27.49.986,leap3,2022.2.5,59.98924423594591,
,,,,,,,,,,,,,,,,,,,,4,0,4,0,5,0,5,0,,,,,,religious,w,g,upper,,,,,,,3,w,LoDemNoTar,g,1,0.5164211770024849,,,,,,,,,,,,,,,,,,,,303,2023-11-16_15h27.49.986,leap3,2022.2.5,59.98924423594591,
,,,,,,,,,,,,,,,,,,,,4,0,4,0,6,0,6,0,,,,,,ebince,nw,h,upper,,,,,,,3,nw,LoDemNoTar,h,1,0.5430887250549858,,,,,,,,,,,,,,,,,,,,303,2023-11-16_15h27.49.986,leap3,2022.2.5,59.98924423594591,
,,,,,,,,,,,,,,,,,,,,4,0,4,0,7,0,7,0,,,,,,pamine,nw,h,upper,,,,,,,3,nw,LoDemNoTar,h,1,0.5673708060057834,,,,,,,,,,,,,,,,,,,,303,2023-11-16_15h27.49.986,leap3,2022.2.5,59.98924423594591,
,,,,,,,,,,,,,,,,,,,,4,0,4,0,8,0,8,0,,,,,,primal,w,g,upper,,,,,,,3,w,LoDemNoTar,h,0,0.6553629387635738,,,,,,,,,,,,,,,,,,,,303,2023-11-16_15h27.49.986,leap3,2022.2.5,59.98924423594591,
,,,,,,,,,,,,,,,,,,,,4,0,4,0,9,0,9,0,,,,,,giving,w,g,upper,,,,,,,3,w,LoDemNoTar,g,1,0.7560143768350827,,,,,,,,,,,,,,,,,,,,303,2023-11-16_15h27.49.986,leap3,2022.2.5,59.98924423594591,
,,,,,,,,,,,,,,,,,,,,4,0,4,0,10,0,10,0,,,,,,igiom,nw,h,upper,,,,,,,3,nw,LoDemNoTar,h,1,0.588630228798138,,,,,,,,,,,,,,,,,,,,303,2023-11-16_15h27.49.986,leap3,2022.2.5,59.98924423594591,
,,,,,,,,,,,,,,,,,,,,4,0,4,0,11,0,11,0,,,,,,outfit,w,g,upper,,,,,,,3,w,LoDemNoTar,g,1,0.531919016095344,,,,,,,,,,,,,,,,,,,,303,2023-11-16_15h27.49.986,leap3,2022.2.5,59.98924423594591,
,,,,,,,,,,,,,,,,,,,,4,0,4,0,12,0,12,0,,,,,,practice,w,g,upper,,,,,,,3,w,LoDemNoTar,g,1,0.5419522852753289,,,,,,,,,,,,,,,,,,,,303,2023-11-16_15h27.49.986,leap3,2022.2.5,59.98924423594591,
,,,,,,,,,,,,,,,,,,,,4,0,4,0,13,0,13,0,,,,,,halter,w,g,upper,,,,,,,3,w,LoDemNoTar,g,1,0.5752794006257318,,,,,,,,,,,,,,,,,,,,303,2023-11-16_15h27.49.986,leap3,2022.2.5,59.98924423594591,
,,,,,,,,,,,,,,,,,,,,4,0,4,0,14,0,14,0,,,,,,frader,nw,h,upper,,,,,,,3,nw,LoDemNoTar,h,1,0.7912588004401186,,,,,,,,,,,,,,,,,,,,303,2023-11-16_15h27.49.986,leap3,2022.2.5,59.98924423594591,
,,,,,,,,,,,,,,,,,,,,4,0,4,0,15,0,15,0,,,,,,etuip,nw,h,upper,,,,,,,3,nw,LoDemNoTar,h,1,0.5024977522116387,,,,,,,,,,,,,,,,,,,,303,2023-11-16_15h27.49.986,leap3,2022.2.5,59.98924423594591,
,,,,,,,,,,,,,,,,,,,,4,0,4,0,16,0,16,0,,,,,,hubris,w,g,upper,,,,,,,3,w,LoDemNoTar,g,1,0.8722122507751919,,,,,,,,,,,,,,,,,,,,303,2023-11-16_15h27.49.986,leap3,2022.2.5,59.98924423594591,
,,,,,,,,,,,,,,,,,,,,4,0,4,0,17,0,17,0,,,,,,gaining,w,g,upper,,,,,,,3,w,LoDemNoTar,g,1,0.5389555856236257,,,,,,,,,,,,,,,,,,,,303,2023-11-16_15h27.49.986,leap3,2022.2.5,59.98924423594591,
,,,,,,,,,,,,,,,,,,,,4,0,4,0,18,0,18,0,,,,,,pigned,nw,h,upper,,,,,,,3,nw,LoDemNoTar,h,1,0.8203250966762425,,,,,,,,,,,,,,,,,,,,303,2023-11-16_15h27.49.986,leap3,2022.2.5,59.98924423594591,
,,,,,,,,,,,,,,,,,,,,4,0,4,0,19,0,19,0,,,,,,etcess,nw,h,upper,,,,,,,3,nw,LoDemNoTar,h,1,0.8267673368536634,,,,,,,,,,,,,,,,,,,,303,2023-11-16_15h27.49.986,leap3,2022.2.5,59.98924423594591,
,,,,,,,,,,,,,,,,,,,,4,0,4,0,20,0,20,0,,,,,,ephically,nw,h,upper,,,,,,,3,nw,LoDemNoTar,h,1,1.1535404093010584,,,,,,,,,,,,,,,,,,,,303,2023-11-16_15h27.49.986,leap3,2022.2.5,59.98924423594591,
,,,,,,,,,,,,,,,,,,,,4,0,4,0,21,0,21,0,,,,,,apology,w,g,upper,,,,,,,3,w,LoDemNoTar,g,1,0.5780494160135277,,,,,,,,,,,,,,,,,,,,303,2023-11-16_15h27.49.986,leap3,2022.2.5,59.98924423594591,
,,,,,,,,,,,,,,,,,,,,4,0,4,0,22,0,22,0,,,,,,ulcer,w,g,upper,,,,,,,3,w,LoDemNoTar,g,1,0.673904866896919,,,,,,,,,,,,,,,,,,,,303,2023-11-16_15h27.49.986,leap3,2022.2.5,59.98924423594591,
,,,,,,,,,,,,,,,,,,,,4,0,4,0,23,0,23,0,,,,,,huests,nw,h,upper,,,,,,,3,nw,LoDemNoTar,h,1,0.7659232865844388,,,,,,,,,,,,,,,,,,,,303,2023-11-16_15h27.49.986,leap3,2022.2.5,59.98924423594591,
,,,,,,,,,,,,,,,,,,,,4,0,4,0,24,0,24,0,,,,,,scrobby,nw,h,upper,,,,,,,3,nw,LoDemNoTar,h,1,0.558599241572665,,,,,,,,,,,,,,,,,,,,303,2023-11-16_15h27.49.986,leap3,2022.2.5,59.98924423594591,
,,,,,,,,,,,,,,,,,,,,4,0,4,0,25,0,25,0,,,,,,sefine,nw,h,upper,,,,,,,3,nw,LoDemNoTar,h,1,0.6062144083407475,,,,,,,,,,,,,,,,,,,,303,2023-11-16_15h27.49.986,leap3,2022.2.5,59.98924423594591,
,,,,,,,,,,,,,,,,,,,,4,0,4,0,26,0,26,0,,,,,,dealer,w,g,upper,,,,,,,3,w,LoDemNoTar,g,1,0.6527456560725113,,,,,,,,,,,,,,,,,,,,303,2023-11-16_15h27.49.986,leap3,2022.2.5,59.98924423594591,
,,,,,,,,,,,,,,,,,,,,4,0,4,0,27,0,27,0,,,,,,calming,w,g,upper,,,,,,,3,w,LoDemNoTar,g,1,0.6734753439814085,,,,,,,,,,,,,,,,,,,,303,2023-11-16_15h27.49.986,leap3,2022.2.5,59.98924423594591,
,,,,,,,,,,,,,,,,,,,,4,0,4,0,28,0,28,0,,,,,,odacles,nw,h,upper,,,,,,,3,nw,LoDemNoTar,h,1,0.6534305383684114,,,,,,,,,,,,,,,,,,,,303,2023-11-16_15h27.49.986,leap3,2022.2.5,59.98924423594591,
,,,,,,,,,,,,,,,,,,,,4,0,4,0,29,0,29,0,,,,,,vergas,nw,h,upper,,,,,,,3,nw,LoDemNoTar,h,1,0.7220983653242001,,,,,,,,,,,,,,,,,,,,303,2023-11-16_15h27.49.986,leap3,2022.2.5,59.98924423594591,
,,,,,,,,,,,,,,,,,,,,4,0,4,0,,,,,,,,,,,,,,,,,,,,,,,,,,,NA,,,,,,,,,,,,,,,,,,303,2023-11-16_15h27.49.986,leap3,2022.2.5,59.98924423594591,
,,,,,,,,,,,,,,,,,,,,5,0,5,0,0,0,0,0,,,,,,iflaid,nw,h,upper,,,,,,,3,nw,LoDemNoTar,h,1,0.6109817204123829,,,,,,,,,,,,,,,,,,,,303,2023-11-16_15h27.49.986,leap3,2022.2.5,59.98924423594591,
,,,,,,,,,,,,,,,,,,,,5,0,5,0,1,0,1,0,,,,,,catacomb,w,g,upper,,,,,,,3,w,LoDemNoTar,h,0,0.553602226806106,,,,,,,,,,,,,,,,,,,,303,2023-11-16_15h27.49.986,leap3,2022.2.5,59.98924423594591,
,,,,,,,,,,,,,,,,,,,,5,0,5,0,2,0,2,0,,,,,,budget,w,g,upper,,,,,,,3,w,LoDemNoTar,g,1,0.5622488281369442,,,,,,,,,,,,,,,,,,,,303,2023-11-16_15h27.49.986,leap3,2022.2.5,59.98924423594591,
,,,,,,,,,,,,,,,,,,,,5,0,5,0,3,0,3,0,,,,,,incidonts,nw,h,upper,,,,,,,3,nw,LoDemNoTar,h,1,0.6029206949606305,,,,,,,,,,,,,,,,,,,,303,2023-11-16_15h27.49.986,leap3,2022.2.5,59.98924423594591,
,,,,,,,,,,,,,,,,,,,,5,0,5,0,4,0,4,0,,,,,,frowsed,nw,h,upper,,,,,,,3,nw,LoDemNoTar,h,1,0.721486529087997,,,,,,,,,,,,,,,,,,,,303,2023-11-16_15h27.49.986,leap3,2022.2.5,59.98924423594591,
,,,,,,,,,,,,,,,,,,,,5,0,5,0,5,0,5,0,,,,,,wienegs,nw,h,upper,,,,,,,3,nw,LoDemNoTar,h,1,0.5474992584058782,,,,,,,,,,,,,,,,,,,,303,2023-11-16_15h27.49.986,leap3,2022.2.5,59.98924423594591,
,,,,,,,,,,,,,,,,,,,,5,0,5,0,6,0,6,0,,,,,,armada,w,g,upper,,,,,,,3,w,LoDemNoTar,h,0,0.6687164835166186,,,,,,,,,,,,,,,,,,,,303,2023-11-16_15h27.49.986,leap3,2022.2.5,59.98924423594591,
,,,,,,,,,,,,,,,,,,,,5,0,5,0,7,0,7,0,,,,,,pleamed,nw,h,upper,,,,,,,3,nw,LoDemNoTar,g,0,0.5516520176606718,,,,,,,,,,,,,,,,,,,,303,2023-11-16_15h27.49.986,leap3,2022.2.5,59.98924423594591,
,,,,,,,,,,,,,,,,,,,,5,0,5,0,8,0,8,0,,,,,,persona,w,g,upper,,,,,,,3,w,LoDemNoTar,g,1,0.6552678581501823,,,,,,,,,,,,,,,,,,,,303,2023-11-16_15h27.49.986,leap3,2022.2.5,59.98924423594591,
,,,,,,,,,,,,,,,,,,,,5,0,5,0,9,0,9,0,,,,,,decency,w,g,upper,,,,,,,3,w,LoDemNoTar,g,1,0.59744374944421,,,,,,,,,,,,,,,,,,,,303,2023-11-16_15h27.49.986,leap3,2022.2.5,59.98924423594591,
,,,,,,,,,,,,,,,,,,,,5,0,5,0,10,0,10,0,,,,,,exploit,w,g,upper,,,,,,,3,w,LoDemNoTar,g,1,0.5643575049762148,,,,,,,,,,,,,,,,,,,,303,2023-11-16_15h27.49.986,leap3,2022.2.5,59.98924423594591,
,,,,,,,,,,,,,,,,,,,,5,0,5,0,11,0,11,0,,,,,,sludding,nw,h,upper,,,,,,,3,nw,LoDemNoTar,h,1,0.9251196350087412,,,,,,,,,,,,,,,,,,,,303,2023-11-16_15h27.49.986,leap3,2022.2.5,59.98924423594591,
,,,,,,,,,,,,,,,,,,,,5,0,5,0,12,0,12,0,,,,,,moyeur,nw,h,upper,,,,,,,3,nw,LoDemNoTar,h,1,0.5670448153105099,,,,,,,,,,,,,,,,,,,,303,2023-11-16_15h27.49.986,leap3,2022.2.5,59.98924423594591,
,,,,,,,,,,,,,,,,,,,,5,0,5,0,13,0,13,0,,,,,,trophy,w,g,upper,,,,,,,3,w,LoDemNoTar,g,1,0.6315375466219848,,,,,,,,,,,,,,,,,,,,303,2023-11-16_15h27.49.986,leap3,2022.2.5,59.98924423594591,
,,,,,,,,,,,,,,,,,,,,5,0,5,0,14,0,14,0,,,,,,infusion,w,g,upper,,,,,,,3,w,LoDemNoTar,g,1,0.6455980082391761,,,,,,,,,,,,,,,,,,,,303,2023-11-16_15h27.49.986,leap3,2022.2.5,59.98924423594591,
,,,,,,,,,,,,,,,,,,,,5,0,5,0,15,0,15,0,,,,,,ezulated,nw,h,upper,,,,,,,3,nw,LoDemNoTar,h,1,0.5869628467626171,,,,,,,,,,,,,,,,,,,,303,2023-11-16_15h27.49.986,leap3,2022.2.5,59.98924423594591,
,,,,,,,,,,,,,,,,,,,,5,0,5,0,16,0,16,0,,,,,,tyena,nw,h,upper,,,,,,,3,nw,LoDemNoTar,h,1,0.9702089775819331,,,,,,,,,,,,,,,,,,,,303,2023-11-16_15h27.49.986,leap3,2022.2.5,59.98924423594591,
,,,,,,,,,,,,,,,,,,,,5,0,5,0,17,0,17,0,,,,,,veclors,nw,h,upper,,,,,,,3,nw,LoDemNoTar,h,1,0.7861519147263607,,,,,,,,,,,,,,,,,,,,303,2023-11-16_15h27.49.986,leap3,2022.2.5,59.98924423594591,
,,,,,,,,,,,,,,,,,,,,5,0,5,0,18,0,18,0,,,,,,encounter,w,g,upper,,,,,,,3,w,LoDemNoTar,g,1,0.6814225745474687,,,,,,,,,,,,,,,,,,,,303,2023-11-16_15h27.49.986,leap3,2022.2.5,59.98924423594591,
,,,,,,,,,,,,,,,,,,,,5,0,5,0,19,0,19,0,,,,,,germeated,nw,h,upper,,,,,,,3,nw,LoDemNoTar,h,1,0.6365098102542106,,,,,,,,,,,,,,,,,,,,303,2023-11-16_15h27.49.986,leap3,2022.2.5,59.98924423594591,
,,,,,,,,,,,,,,,,,,,,5,0,5,0,20,0,20,0,,,,,,railway,w,g,upper,,,,,,,3,w,LoDemNoTar,q,0,0.7216465060046175,,,,,,,,,,,,,,,,,,,,303,2023-11-16_15h27.49.986,leap3,2022.2.5,59.98924423594591,
,,,,,,,,,,,,,,,,,,,,5,0,5,0,21,0,21,0,,,,,,riosk,nw,h,upper,,,,,,,3,nw,LoDemNoTar,h,1,0.8837055356707424,,,,,,,,,,,,,,,,,,,,303,2023-11-16_15h27.49.986,leap3,2022.2.5,59.98924423594591,
,,,,,,,,,,,,,,,,,,,,5,0,5,0,22,0,22,0,,,,,,shazer,nw,h,upper,,,,,,,3,nw,LoDemNoTar,h,1,0.6236660787253641,,,,,,,,,,,,,,,,,,,,303,2023-11-16_15h27.49.986,leap3,2022.2.5,59.98924423594591,
,,,,,,,,,,,,,,,,,,,,5,0,5,0,23,0,23,0,,,,,,even,w,g,upper,,,,,,,3,w,LoDemNoTar,g,1,0.6216669709683629,,,,,,,,,,,,,,,,,,,,303,2023-11-16_15h27.49.986,leap3,2022.2.5,59.98924423594591,
,,,,,,,,,,,,,,,,,,,,5,0,5,0,24,0,24,0,,,,,,presently,w,g,upper,,,,,,,3,w,LoDemNoTar,g,1,0.6356607252237154,,,,,,,,,,,,,,,,,,,,303,2023-11-16_15h27.49.986,leap3,2022.2.5,59.98924423594591,
,,,,,,,,,,,,,,,,,,,,5,0,5,0,25,0,25,0,,,,,,halents,nw,h,upper,,,,,,,3,nw,LoDemNoTar,h,1,0.6169280321628321,,,,,,,,,,,,,,,,,,,,303,2023-11-16_15h27.49.986,leap3,2022.2.5,59.98924423594591,
,,,,,,,,,,,,,,,,,,,,5,0,5,0,26,0,26,0,,,,,,stranded,w,g,upper,,,,,,,3,w,LoDemNoTar,g,1,0.79163791553583,,,,,,,,,,,,,,,,,,,,303,2023-11-16_15h27.49.986,leap3,2022.2.5,59.98924423594591,
,,,,,,,,,,,,,,,,,,,,5,0,5,0,27,0,27,0,,,,,,superstar,w,g,upper,,,,,,,3,w,LoDemNoTar,g,1,0.742951808962971,,,,,,,,,,,,,,,,,,,,303,2023-11-16_15h27.49.986,leap3,2022.2.5,59.98924423594591,
,,,,,,,,,,,,,,,,,,,,5,0,5,0,28,0,28,0,,,,,,subber,nw,h,upper,,,,,,,3,nw,LoDemNoTar,h,1,0.5592306976177497,,,,,,,,,,,,,,,,,,,,303,2023-11-16_15h27.49.986,leap3,2022.2.5,59.98924423594591,
,,,,,,,,,,,,,,,,,,,,5,0,5,0,29,0,29,0,,,,,,pollute,w,g,upper,,,,,,,3,w,LoDemNoTar,g,1,0.7038724670564989,,,,,,,,,,,,,,,,,,,,303,2023-11-16_15h27.49.986,leap3,2022.2.5,59.98924423594591,
,,,,,,,,,,,,,,,,,,,,5,0,5,0,,,,,,,,,,,,,,,,,,,,,,,,,,,NA,,,,,,,,,,,,,,,,,,303,2023-11-16_15h27.49.986,leap3,2022.2.5,59.98924423594591,
,,,,,,,,,,,,,,,,,,,,6,0,6,0,0,0,0,0,,,,,,harfing,nw,h,upper,,,,,,,3,nw,LoDemNoTar,h,1,0.6023761697579175,,,,,,,,,,,,,,,,,,,,303,2023-11-16_15h27.49.986,leap3,2022.2.5,59.98924423594591,
,,,,,,,,,,,,,,,,,,,,6,0,6,0,1,0,1,0,,,,,,delegate,w,g,upper,,,,,,,3,w,LoDemNoTar,g,1,0.6721538742858684,,,,,,,,,,,,,,,,,,,,303,2023-11-16_15h27.49.986,leap3,2022.2.5,59.98924423594591,
,,,,,,,,,,,,,,,,,,,,6,0,6,0,2,0,2,0,,,,,,theery,nw,h,upper,,,,,,,3,nw,LoDemNoTar,h,1,0.5410437371174339,,,,,,,,,,,,,,,,,,,,303,2023-11-16_15h27.49.986,leap3,2022.2.5,59.98924423594591,
,,,,,,,,,,,,,,,,,,,,6,0,6,0,3,0,3,0,,,,,,renown,w,g,upper,,,,,,,3,w,LoDemNoTar,h,0,0.5173085961141624,,,,,,,,,,,,,,,,,,,,303,2023-11-16_15h27.49.986,leap3,2022.2.5,59.98924423594591,
,,,,,,,,,,,,,,,,,,,,6,0,6,0,4,0,4,0,,,,,,eightiech,nw,h,upper,,,,,,,3,nw,LoDemNoTar,h,1,0.6153004934458295,,,,,,,,,,,,,,,,,,,,303,2023-11-16_15h27.49.986,leap3,2022.2.5,59.98924423594591,
,,,,,,,,,,,,,,,,,,,,6,0,6,0,5,0,5,0,,,,,,trocess,nw,h,upper,,,,,,,3,nw,LoDemNoTar,h,1,0.5258622297260445,,,,,,,,,,,,,,,,,,,,303,2023-11-16_15h27.49.986,leap3,2022.2.5,59.98924423594591,
,,,,,,,,,,,,,,,,,,,,6,0,6,0,6,0,6,0,,,,,,combat,w,g,upper,,,,,,,3,w,LoDemNoTar,g,1,0.7677862630371237,,,,,,,,,,,,,,,,,,,,303,2023-11-16_15h27.49.986,leap3,2022.2.5,59.98924423594591,
,,,,,,,,,,,,,,,,,,,,6,0,6,0,7,0,7,0,,,,,,perform,w,g,upper,,,,,,,3,w,LoDemNoTar,g,1,0.5437669668026501,,,,,,,,,,,,,,,,,,,,303,2023-11-16_15h27.49.986,leap3,2022.2.5,59.98924423594591,
,,,,,,,,,,,,,,,,,,,,6,0,6,0,8,0,8,0,,,,,,tipoff,w,g,upper,,,,,,,3,w,LoDemNoTar,g,1,0.8090672495018225,,,,,,,,,,,,,,,,,,,,303,2023-11-16_15h27.49.986,leap3,2022.2.5,59.98924423594591,
,,,,,,,,,,,,,,,,,,,,6,0,6,0,9,0,9,0,,,,,,irregular,w,g,upper,,,,,,,3,w,LoDemNoTar,g,1,0.6957676743186312,,,,,,,,,,,,,,,,,,,,303,2023-11-16_15h27.49.986,leap3,2022.2.5,59.98924423594591,
,,,,,,,,,,,,,,,,,,,,6,0,6,0,10,0,10,0,,,,,,miteous,nw,h,upper,,,,,,,3,nw,LoDemNoTar,h,1,0.5949707478139317,,,,,,,,,,,,,,,,,,,,303,2023-11-16_15h27.49.986,leap3,2022.2.5,59.98924423594591,
,,,,,,,,,,,,,,,,,,,,6,0,6,0,11,0,11,0,,,,,,outlaved,nw,h,upper,,,,,,,3,nw,LoDemNoTar,h,1,0.810269792957115,,,,,,,,,,,,,,,,,,,,303,2023-11-16_15h27.49.986,leap3,2022.2.5,59.98924423594591,
,,,,,,,,,,,,,,,,,,,,6,0,6,0,12,0,12,0,,,,,,martial,w,g,upper,,,,,,,3,w,LoDemNoTar,g,1,0.8479464693518821,,,,,,,,,,,,,,,,,,,,303,2023-11-16_15h27.49.986,leap3,2022.2.5,59.98924423594591,
,,,,,,,,,,,,,,,,,,,,6,0,6,0,13,0,13,0,,,,,,ilterfere,nw,h,upper,,,,,,,3,nw,LoDemNoTar,h,1,0.6372457040706649,,,,,,,,,,,,,,,,,,,,303,2023-11-16_15h27.49.986,leap3,2022.2.5,59.98924423594591,
,,,,,,,,,,,,,,,,,,,,6,0,6,0,14,0,14,0,,,,,,antonym,w,g,upper,,,,,,,3,w,LoDemNoTar,g,1,1.2824072475341382,,,,,,,,,,,,,,,,,,,,303,2023-11-16_15h27.49.986,leap3,2022.2.5,59.98924423594591,
,,,,,,,,,,,,,,,,,,,,6,0,6,0,15,0,15,0,,,,,,deadly,w,g,upper,,,,,,,3,w,LoDemNoTar,g,1,0.5424454971216619,,,,,,,,,,,,,,,,,,,,303,2023-11-16_15h27.49.986,leap3,2022.2.5,59.98924423594591,
,,,,,,,,,,,,,,,,,,,,6,0,6,0,16,0,16,0,,,,,,deficit,w,g,upper,,,,,,,3,w,LoDemNoTar,g,1,0.7597521016286919,,,,,,,,,,,,,,,,,,,,303,2023-11-16_15h27.49.986,leap3,2022.2.5,59.98924423594591,
,,,,,,,,,,,,,,,,,,,,6,0,6,0,17,0,17,0,,,,,,talate,nw,h,upper,,,,,,,3,nw,LoDemNoTar,h,1,0.8804075964726508,,,,,,,,,,,,,,,,,,,,303,2023-11-16_15h27.49.986,leap3,2022.2.5,59.98924423594591,
,,,,,,,,,,,,,,,,,,,,6,0,6,0,18,0,18,0,,,,,,epthuse,nw,h,upper,,,,,,,3,nw,LoDemNoTar,h,1,0.7963777598779416,,,,,,,,,,,,,,,,,,,,303,2023-11-16_15h27.49.986,leap3,2022.2.5,59.98924423594591,
,,,,,,,,,,,,,,,,,,,,6,0,6,0,19,0,19,0,,,,,,congraks,nw,h,upper,,,,,,,3,nw,LoDemNoTar,h,1,0.5956486877257703,,,,,,,,,,,,,,,,,,,,303,2023-11-16_15h27.49.986,leap3,2022.2.5,59.98924423594591,
,,,,,,,,,,,,,,,,,,,,6,0,6,0,20,0,20,0,,,,,,removable,w,g,upper,,,,,,,3,w,LoDemNoTar,g,1,1.1286947870248696,,,,,,,,,,,,,,,,,,,,303,2023-11-16_15h27.49.986,leap3,2022.2.5,59.98924423594591,
,,,,,,,,,,,,,,,,,,,,6,0,6,0,21,0,21,0,,,,,,protest,w,g,upper,,,,,,,3,w,LoDemNoTar,g,1,0.5060429010191001,,,,,,,,,,,,,,,,,,,,303,2023-11-16_15h27.49.986,leap3,2022.2.5,59.98924423594591,
,,,,,,,,,,,,,,,,,,,,6,0,6,0,22,0,22,0,,,,,,fuack,nw,h,upper,,,,,,,3,nw,LoDemNoTar,h,1,0.5407201611815253,,,,,,,,,,,,,,,,,,,,303,2023-11-16_15h27.49.986,leap3,2022.2.5,59.98924423594591,
,,,,,,,,,,,,,,,,,,,,6,0,6,0,23,0,23,0,,,,,,sarlock,nw,h,upper,,,,,,,3,nw,LoDemNoTar,h,1,0.542047667724546,,,,,,,,,,,,,,,,,,,,303,2023-11-16_15h27.49.986,leap3,2022.2.5,59.98924423594591,
,,,,,,,,,,,,,,,,,,,,6,0,6,0,24,0,24,0,,,,,,tablet,w,g,upper,,,,,,,3,w,LoDemNoTar,g,1,0.5984494911099318,,,,,,,,,,,,,,,,,,,,303,2023-11-16_15h27.49.986,leap3,2022.2.5,59.98924423594591,
,,,,,,,,,,,,,,,,,,,,6,0,6,0,25,0,25,0,,,,,,tibs,nw,h,upper,,,,,,,3,nw,LoDemNoTar,h,1,0.7090889218525263,,,,,,,,,,,,,,,,,,,,303,2023-11-16_15h27.49.986,leap3,2022.2.5,59.98924423594591,
,,,,,,,,,,,,,,,,,,,,6,0,6,0,26,0,26,0,,,,,,omners,nw,h,upper,,,,,,,3,nw,LoDemNoTar,h,1,0.5431177020072937,,,,,,,,,,,,,,,,,,,,303,2023-11-16_15h27.49.986,leap3,2022.2.5,59.98924423594591,
,,,,,,,,,,,,,,,,,,,,6,0,6,0,27,0,27,0,,,,,,butcher,w,g,upper,,,,,,,3,w,LoDemNoTar,g,1,0.6638000608945731,,,,,,,,,,,,,,,,,,,,303,2023-11-16_15h27.49.986,leap3,2022.2.5,59.98924423594591,
,,,,,,,,,,,,,,,,,,,,6,0,6,0,28,0,28,0,,,,,,rivet,w,g,upper,,,,,,,3,w,LoDemNoTar,g,1,0.978780419958639,,,,,,,,,,,,,,,,,,,,303,2023-11-16_15h27.49.986,leap3,2022.2.5,59.98924423594591,
,,,,,,,,,,,,,,,,,,,,6,0,6,0,29,0,29,0,,,,,,abraid,nw,h,upper,,,,,,,3,nw,LoDemNoTar,h,1,0.74770342517877,,,,,,,,,,,,,,,,,,,,303,2023-11-16_15h27.49.986,leap3,2022.2.5,59.98924423594591,
,,,,,,,,,,,,,,,,,,,,6,0,6,0,,,,,,,,,,,,,,,,,,,,,,,,,,,NA,,,,,,,,,,,,,,,,,,303,2023-11-16_15h27.49.986,leap3,2022.2.5,59.98924423594591,
,,,,,,,,,,,,,,,,,,,,7,0,7,0,0,0,0,0,,,,,,absent,w,g,lower,,,,,,,1,w,HiDemTar,g,1,0.5878095170482993,,,,,,,,,,,,,,,,,,,,303,2023-11-16_15h27.49.986,leap3,2022.2.5,59.98924423594591,
,,,,,,,,,,,,,,,,,,,,7,0,7,0,1,0,1,0,,,,,,ameld,nw,h,lower,,,,,,,1,nw,HiDemTar,h,1,0.9631352813594276,,,,,,,,,,,,,,,,,,,,303,2023-11-16_15h27.49.986,leap3,2022.2.5,59.98924423594591,
,,,,,,,,,,,,,,,,,,,,7,0,7,0,2,0,2,0,,,,,,lecked,nw,h,lower,,,,,,,1,nw,HiDemTar,h,1,0.5637815880909329,,,,,,,,,,,,,,,,,,,,303,2023-11-16_15h27.49.986,leap3,2022.2.5,59.98924423594591,
,,,,,,,,,,,,,,,,,,,,7,0,7,0,3,0,3,0,,,,,,shimble,nw,h,lower,,,,,,,1,nw,HiDemTar,h,1,0.5244001011014916,,,,,,,,,,,,,,,,,,,,303,2023-11-16_15h27.49.986,leap3,2022.2.5,59.98924423594591,
,,,,,,,,,,,,,,,,,,,,7,0,7,0,4,0,4,0,,,,,,restock,w,g,lower,,,,,,,1,w,HiDemTar,g,1,0.7254307146504289,,,,,,,,,,,,,,,,,,,,303,2023-11-16_15h27.49.986,leap3,2022.2.5,59.98924423594591,
,,,,,,,,,,,,,,,,,,,,7,0,7,0,5,0,5,0,,,,,,mitro,nw,h,lower,,,,,,,1,nw,HiDemTar,h,1,0.8633516425761627,,,,,,,,,,,,,,,,,,,,303,2023-11-16_15h27.49.986,leap3,2022.2.5,59.98924423594591,
,,,,,,,,,,,,,,,,,,,,7,0,7,0,6,0,6,0,,,,,,huzzles,nw,h,lower,,,,,,,1,nw,HiDemTar,h,1,0.6920287421671674,,,,,,,,,,,,,,,,,,,,303,2023-11-16_15h27.49.986,leap3,2022.2.5,59.98924423594591,
,,,,,,,,,,,,,,,,,,,,7,0,7,0,7,0,7,0,,,,,,oginous,nw,h,lower,,,,,,,1,nw,HiDemTar,h,1,0.5433597802766599,,,,,,,,,,,,,,,,,,,,303,2023-11-16_15h27.49.986,leap3,2022.2.5,59.98924423594591,
,,,,,,,,,,,,,,,,,,,,7,0,7,0,8,0,8,0,,,,,,saturate,w,g,lower,,,,,,,1,w,HiDemTar,g,1,0.6646186597499764,,,,,,,,,,,,,,,,,,,,303,2023-11-16_15h27.49.986,leap3,2022.2.5,59.98924423594591,
,,,,,,,,,,,,,,,,,,,,7,0,7,0,9,0,9,0,,,,,,pranny,nw,h,lower,,,,,,,1,nw,HiDemTar,h,1,0.5732990071555832,,,,,,,,,,,,,,,,,,,,303,2023-11-16_15h27.49.986,leap3,2022.2.5,59.98924423594591,
,,,,,,,,,,,,,,,,,,,,7,0,7,0,10,0,10,0,,,,,,cooray,nw,h,lower,,,,,,,1,nw,HiDemTar,h,1,0.4512975933175767,,,,,,,,,,,,,,,,,,,,303,2023-11-16_15h27.49.986,leap3,2022.2.5,59.98924423594591,
,,,,,,,,,,,,,,,,,,,,7,0,7,0,11,0,11,0,,,,,,mounting,w,g,lower,,,,,,,1,w,HiDemTar,g,1,0.5601809001236688,,,,,,,,,,,,,,,,,,,,303,2023-11-16_15h27.49.986,leap3,2022.2.5,59.98924423594591,
,,,,,,,,,,,,,,,,,,,,7,0,7,0,12,0,12,0,,,,,,fragment,w,g,lower,,,,,,,1,w,HiDemTar,g,1,0.7207753864204278,,,,,,,,,,,,,,,,,,,,303,2023-11-16_15h27.49.986,leap3,2022.2.5,59.98924423594591,
,,,,,,,,,,,,,,,,,,,,7,0,7,0,13,0,13,0,,,,,,achieve,w,g,lower,,,,,,,1,w,HiDemTar,g,1,0.5466166687983787,,,,,,,,,,,,,,,,,,,,303,2023-11-16_15h27.49.986,leap3,2022.2.5,59.98924423594591,
,,,,,,,,,,,,,,,,,,,,7,0,7,0,14,0,14,0,,,,,,monkey,target,q,lower,,,,,,,1,target,HiDemTar,q,1,0.7860040115338052,1,,,,,,,,,,,,,,,,,,,303,2023-11-16_15h27.49.986,leap3,2022.2.5,59.98924423594591,
,,,,,,,,,,,,,,,,,,,,7,0,7,0,15,0,15,0,,,,,,ucility,nw,h,lower,,,,,,,1,aftertar1,HiDemTar,h,1,0.6326275025494397,,,,,,,,,,,,,,,,,,,,303,2023-11-16_15h27.49.986,leap3,2022.2.5,59.98924423594591,
,,,,,,,,,,,,,,,,,,,,7,0,7,0,16,0,16,0,,,,,,lancos,nw,h,lower,,,,,,,1,aftertar2,HiDemTar,h,1,0.6219630791892996,,,,,,,,,,,,,,,,,,,,303,2023-11-16_15h27.49.986,leap3,2022.2.5,59.98924423594591,
,,,,,,,,,,,,,,,,,,,,7,0,7,0,17,0,17,0,,,,,,minister,w,g,lower,,,,,,,1,aftertar3,HiDemTar,g,1,0.8433693185215816,,,,,,,,,,,,,,,,,,,,303,2023-11-16_15h27.49.986,leap3,2022.2.5,59.98924423594591,
,,,,,,,,,,,,,,,,,,,,7,0,7,0,18,0,18,0,,,,,,reborn,w,g,lower,,,,,,,1,w,HiDemTar,g,1,0.7279574443673482,,,,,,,,,,,,,,,,,,,,303,2023-11-16_15h27.49.986,leap3,2022.2.5,59.98924423594591,
,,,,,,,,,,,,,,,,,,,,7,0,7,0,19,0,19,0,,,,,,greft,nw,h,lower,,,,,,,1,w,HiDemTar,h,1,0.6899131229292834,,,,,,,,,,,,,,,,,,,,303,2023-11-16_15h27.49.986,leap3,2022.2.5,59.98924423594591,
,,,,,,,,,,,,,,,,,,,,7,0,7,0,20,0,20,0,,,,,,itfidels,nw,h,lower,,,,,,,1,nw,HiDemTar,h,1,0.6685347738821292,,,,,,,,,,,,,,,,,,,,303,2023-11-16_15h27.49.986,leap3,2022.2.5,59.98924423594591,
,,,,,,,,,,,,,,,,,,,,7,0,7,0,21,0,21,0,,,,,,hangar,w,g,lower,,,,,,,1,nw,HiDemTar,h,0,0.7045102618139936,,,,,,,,,,,,,,,,,,,,303,2023-11-16_15h27.49.986,leap3,2022.2.5,59.98924423594591,
,,,,,,,,,,,,,,,,,,,,7,0,7,0,22,0,22,0,,,,,,chrayed,nw,h,lower,,,,,,,1,w,HiDemTar,h,1,0.5537507336703129,,,,,,,,,,,,,,,,,,,,303,2023-11-16_15h27.49.986,leap3,2022.2.5,59.98924423594591,
,,,,,,,,,,,,,,,,,,,,7,0,7,0,23,0,23,0,,,,,,swatches,w,g,lower,,,,,,,1,nw,HiDemTar,g,1,0.913481767202029,,,,,,,,,,,,,,,,,,,,303,2023-11-16_15h27.49.986,leap3,2022.2.5,59.98924423594591,
,,,,,,,,,,,,,,,,,,,,7,0,7,0,24,0,24,0,,,,,,anemic,w,g,lower,,,,,,,1,w,HiDemTar,g,1,0.9874176641460508,,,,,,,,,,,,,,,,,,,,303,2023-11-16_15h27.49.986,leap3,2022.2.5,59.98924423594591,
,,,,,,,,,,,,,,,,,,,,7,0,7,0,25,0,25,0,,,,,,walnut,w,g,lower,,,,,,,1,w,HiDemTar,g,1,0.49071922546136193,,,,,,,,,,,,,,,,,,,,303,2023-11-16_15h27.49.986,leap3,2022.2.5,59.98924423594591,
,,,,,,,,,,,,,,,,,,,,7,0,7,0,26,0,26,0,,,,,,fassed,nw,h,lower,,,,,,,1,w,HiDemTar,h,1,0.5734137075778563,,,,,,,,,,,,,,,,,,,,303,2023-11-16_15h27.49.986,leap3,2022.2.5,59.98924423594591,
,,,,,,,,,,,,,,,,,,,,7,0,7,0,27,0,27,0,,,,,,racile,nw,h,lower,,,,,,,1,nw,HiDemTar,h,1,0.6046813465509331,,,,,,,,,,,,,,,,,,,,303,2023-11-16_15h27.49.986,leap3,2022.2.5,59.98924423594591,
,,,,,,,,,,,,,,,,,,,,7,0,7,0,28,0,28,0,,,,,,couple,w,g,lower,,,,,,,1,nw,HiDemTar,g,1,0.6186512551939813,,,,,,,,,,,,,,,,,,,,303,2023-11-16_15h27.49.986,leap3,2022.2.5,59.98924423594591,
,,,,,,,,,,,,,,,,,,,,7,0,7,0,29,0,29,0,,,,,,blueberry,w,g,lower,,,,,,,1,w,HiDemTar,g,1,0.8006503508804599,,,,,,,,,,,,,,,,,,,,303,2023-11-16_15h27.49.986,leap3,2022.2.5,59.98924423594591,
,,,,,,,,,,,,,,,,,,,,7,0,7,0,,,,,,,,,,,,,,,,,,,,,,,,,,,1,,,,,,,,,,,,,,,,,,303,2023-11-16_15h27.49.986,leap3,2022.2.5,59.98924423594591,
,,,,,,,,,,,,,,,,,,,,8,0,8,0,0,0,0,0,,,,,,airbis,nw,h,upper,,,,,,,3,nw,LoDemNoTar,h,1,0.7576346713321982,,,,,,,,,,,,,,,,,,,,303,2023-11-16_15h27.49.986,leap3,2022.2.5,59.98924423594591,
,,,,,,,,,,,,,,,,,,,,8,0,8,0,1,0,1,0,,,,,,bailmenz,nw,h,upper,,,,,,,3,nw,LoDemNoTar,h,1,0.5262730383838061,,,,,,,,,,,,,,,,,,,,303,2023-11-16_15h27.49.986,leap3,2022.2.5,59.98924423594591,
,,,,,,,,,,,,,,,,,,,,8,0,8,0,2,0,2,0,,,,,,lofty,w,g,upper,,,,,,,3,w,LoDemNoTar,h,0,0.5120643717382336,,,,,,,,,,,,,,,,,,,,303,2023-11-16_15h27.49.986,leap3,2022.2.5,59.98924423594591,
,,,,,,,,,,,,,,,,,,,,8,0,8,0,3,0,3,0,,,,,,poars,nw,h,upper,,,,,,,3,nw,LoDemNoTar,h,1,0.8821232734335354,,,,,,,,,,,,,,,,,,,,303,2023-11-16_15h27.49.986,leap3,2022.2.5,59.98924423594591,
,,,,,,,,,,,,,,,,,,,,8,0,8,0,4,0,4,0,,,,,,dorte,nw,h,upper,,,,,,,3,nw,LoDemNoTar,h,1,0.5812869865621906,,,,,,,,,,,,,,,,,,,,303,2023-11-16_15h27.49.986,leap3,2022.2.5,59.98924423594591,
,,,,,,,,,,,,,,,,,,,,8,0,8,0,5,0,5,0,,,,,,affluent,w,g,upper,,,,,,,3,w,LoDemNoTar,g,1,0.6526016768475529,,,,,,,,,,,,,,,,,,,,303,2023-11-16_15h27.49.986,leap3,2022.2.5,59.98924423594591,
,,,,,,,,,,,,,,,,,,,,8,0,8,0,6,0,6,0,,,,,,realize,w,g,upper,,,,,,,3,w,LoDemNoTar,g,1,0.5038678186538164,,,,,,,,,,,,,,,,,,,,303,2023-11-16_15h27.49.986,leap3,2022.2.5,59.98924423594591,
,,,,,,,,,,,,,,,,,,,,8,0,8,0,7,0,7,0,,,,,,slears,nw,h,upper,,,,,,,3,nw,LoDemNoTar,h,1,0.6104960546508664,,,,,,,,,,,,,,,,,,,,303,2023-11-16_15h27.49.986,leap3,2022.2.5,59.98924423594591,
,,,,,,,,,,,,,,,,,,,,8,0,8,0,8,0,8,0,,,,,,flieves,nw,h,upper,,,,,,,3,nw,LoDemNoTar,h,1,0.5115261852479307,,,,,,,,,,,,,,,,,,,,303,2023-11-16_15h27.49.986,leap3,2022.2.5,59.98924423594591,
,,,,,,,,,,,,,,,,,,,,8,0,8,0,9,0,9,0,,,,,,standard,w,g,upper,,,,,,,3,w,LoDemNoTar,g,1,0.6415451591019519,,,,,,,,,,,,,,,,,,,,303,2023-11-16_15h27.49.986,leap3,2022.2.5,59.98924423594591,
,,,,,,,,,,,,,,,,,,,,8,0,8,0,10,0,10,0,,,,,,unstatle,nw,h,upper,,,,,,,3,nw,LoDemNoTar,h,1,0.5820581960288109,,,,,,,,,,,,,,,,,,,,303,2023-11-16_15h27.49.986,leap3,2022.2.5,59.98924423594591,
,,,,,,,,,,,,,,,,,,,,8,0,8,0,11,0,11,0,,,,,,rudder,w,g,upper,,,,,,,3,w,LoDemNoTar,h,0,0.5575252833514242,,,,,,,,,,,,,,,,,,,,303,2023-11-16_15h27.49.986,leap3,2022.2.5,59.98924423594591,
,,,,,,,,,,,,,,,,,,,,8,0,8,0,12,0,12,0,,,,,,otoist,nw,h,upper,,,,,,,3,nw,LoDemNoTar,h,1,0.5013706695754081,,,,,,,,,,,,,,,,,,,,303,2023-11-16_15h27.49.986,leap3,2022.2.5,59.98924423594591,
,,,,,,,,,,,,,,,,,,,,8,0,8,0,13,0,13,0,,,,,,padicals,nw,h,upper,,,,,,,3,nw,LoDemNoTar,h,1,0.5280626669264166,,,,,,,,,,,,,,,,,,,,303,2023-11-16_15h27.49.986,leap3,2022.2.5,59.98924423594591,
,,,,,,,,,,,,,,,,,,,,8,0,8,0,14,0,14,0,,,,,,nores,nw,h,upper,,,,,,,3,nw,LoDemNoTar,h,1,0.4974551591294585,,,,,,,,,,,,,,,,,,,,303,2023-11-16_15h27.49.986,leap3,2022.2.5,59.98924423594591,
,,,,,,,,,,,,,,,,,,,,8,0,8,0,15,0,15,0,,,,,,pimorous,nw,h,upper,,,,,,,3,nw,LoDemNoTar,h,1,0.42806471946823876,,,,,,,,,,,,,,,,,,,,303,2023-11-16_15h27.49.986,leap3,2022.2.5,59.98924423594591,
,,,,,,,,,,,,,,,,,,,,8,0,8,0,16,0,16,0,,,,,,virulent,w,g,upper,,,,,,,3,w,LoDemNoTar,h,0,0.4244272066280246,,,,,,,,,,,,,,,,,,,,303,2023-11-16_15h27.49.986,leap3,2022.2.5,59.98924423594591,
,,,,,,,,,,,,,,,,,,,,8,0,8,0,17,0,17,0,,,,,,baseline,w,g,upper,,,,,,,3,w,LoDemNoTar,g,1,0.494647111496306,,,,,,,,,,,,,,,,,,,,303,2023-11-16_15h27.49.986,leap3,2022.2.5,59.98924423594591,
,,,,,,,,,,,,,,,,,,,,8,0,8,0,18,0,18,0,,,,,,reddar,nw,h,upper,,,,,,,3,nw,LoDemNoTar,h,1,0.592267137937597,,,,,,,,,,,,,,,,,,,,303,2023-11-16_15h27.49.986,leap3,2022.2.5,59.98924423594591,
,,,,,,,,,,,,,,,,,,,,8,0,8,0,19,0,19,0,,,,,,senalize,nw,h,upper,,,,,,,3,nw,LoDemNoTar,h,1,0.438976050587371,,,,,,,,,,,,,,,,,,,,303,2023-11-16_15h27.49.986,leap3,2022.2.5,59.98924423594591,
,,,,,,,,,,,,,,,,,,,,8,0,8,0,20,0,20,0,,,,,,walsams,nw,h,upper,,,,,,,3,nw,LoDemNoTar,h,1,0.49957258941140026,,,,,,,,,,,,,,,,,,,,303,2023-11-16_15h27.49.986,leap3,2022.2.5,59.98924423594591,
,,,,,,,,,,,,,,,,,,,,8,0,8,0,21,0,21,0,,,,,,column,w,g,upper,,,,,,,3,w,LoDemNoTar,g,1,0.9662152897217311,,,,,,,,,,,,,,,,,,,,303,2023-11-16_15h27.49.986,leap3,2022.2.5,59.98924423594591,
,,,,,,,,,,,,,,,,,,,,8,0,8,0,22,0,22,0,,,,,,imprives,nw,h,upper,,,,,,,3,nw,LoDemNoTar,h,1,0.9821649881487247,,,,,,,,,,,,,,,,,,,,303,2023-11-16_15h27.49.986,leap3,2022.2.5,59.98924423594591,
,,,,,,,,,,,,,,,,,,,,8,0,8,0,23,0,23,0,,,,,,ordinary,w,g,upper,,,,,,,3,w,LoDemNoTar,g,1,0.8455124054889893,,,,,,,,,,,,,,,,,,,,303,2023-11-16_15h27.49.986,leap3,2022.2.5,59.98924423594591,
,,,,,,,,,,,,,,,,,,,,8,0,8,0,24,0,24,0,,,,,,deserve,w,g,upper,,,,,,,3,w,LoDemNoTar,g,1,0.584680610045325,,,,,,,,,,,,,,,,,,,,303,2023-11-16_15h27.49.986,leap3,2022.2.5,59.98924423594591,
,,,,,,,,,,,,,,,,,,,,8,0,8,0,25,0,25,0,,,,,,outrank,w,g,upper,,,,,,,3,w,LoDemNoTar,h,0,0.6233171479398152,,,,,,,,,,,,,,,,,,,,303,2023-11-16_15h27.49.986,leap3,2022.2.5,59.98924423594591,
,,,,,,,,,,,,,,,,,,,,8,0,8,0,26,0,26,0,,,,,,assent,w,g,upper,,,,,,,3,w,LoDemNoTar,g,1,0.7892729737941409,,,,,,,,,,,,,,,,,,,,303,2023-11-16_15h27.49.986,leap3,2022.2.5,59.98924423594591,
,,,,,,,,,,,,,,,,,,,,8,0,8,0,27,0,27,0,,,,,,sunshine,w,g,upper,,,,,,,3,w,LoDemNoTar,g,1,0.4283164567168569,,,,,,,,,,,,,,,,,,,,303,2023-11-16_15h27.49.986,leap3,2022.2.5,59.98924423594591,
,,,,,,,,,,,,,,,,,,,,8,0,8,0,28,0,28,0,,,,,,casino,w,g,upper,,,,,,,3,w,LoDemNoTar,g,1,0.5616040909953881,,,,,,,,,,,,,,,,,,,,303,2023-11-16_15h27.49.986,leap3,2022.2.5,59.98924423594591,
,,,,,,,,,,,,,,,,,,,,8,0,8,0,29,0,29,0,,,,,,orange,w,g,upper,,,,,,,3,w,LoDemNoTar,g,1,0.5376211366819916,,,,,,,,,,,,,,,,,,,,303,2023-11-16_15h27.49.986,leap3,2022.2.5,59.98924423594591,
,,,,,,,,,,,,,,,,,,,,8,0,8,0,,,,,,,,,,,,,,,,,,,,,,,,,,,NA,,,,,,,,,,,,,,,,,,303,2023-11-16_15h27.49.986,leap3,2022.2.5,59.98924423594591,
,,,,,,,,,,,,,,,,,,,,9,0,9,0,0,0,0,0,,,,,,perishing,w,g,lower,,,,,,,1,w,HiDemTar,h,0,1.3628098339831922,,,,,,,,,,,,,,,,,,,,303,2023-11-16_15h27.49.986,leap3,2022.2.5,59.98924423594591,
,,,,,,,,,,,,,,,,,,,,9,0,9,0,1,0,1,0,,,,,,forfeit,w,g,lower,,,,,,,1,w,HiDemTar,g,1,0.6816664638754446,,,,,,,,,,,,,,,,,,,,303,2023-11-16_15h27.49.986,leap3,2022.2.5,59.98924423594591,
,,,,,,,,,,,,,,,,,,,,9,0,9,0,2,0,2,0,,,,,,accessory,w,g,lower,,,,,,,1,w,HiDemTar,g,1,0.5809993299480993,,,,,,,,,,,,,,,,,,,,303,2023-11-16_15h27.49.986,leap3,2022.2.5,59.98924423594591,
,,,,,,,,,,,,,,,,,,,,9,0,9,0,3,0,3,0,,,,,,brother,w,g,lower,,,,,,,1,w,HiDemTar,g,1,0.548276504749083,,,,,,,,,,,,,,,,,,,,303,2023-11-16_15h27.49.986,leap3,2022.2.5,59.98924423594591,
,,,,,,,,,,,,,,,,,,,,9,0,9,0,4,0,4,0,,,,,,brimitive,nw,h,lower,,,,,,,1,nw,HiDemTar,h,1,0.6849224468605826,,,,,,,,,,,,,,,,,,,,303,2023-11-16_15h27.49.986,leap3,2022.2.5,59.98924423594591,
,,,,,,,,,,,,,,,,,,,,9,0,9,0,5,0,5,0,,,,,,addma,nw,h,lower,,,,,,,1,nw,HiDemTar,h,1,0.6482297794136684,,,,,,,,,,,,,,,,,,,,303,2023-11-16_15h27.49.986,leap3,2022.2.5,59.98924423594591,
,,,,,,,,,,,,,,,,,,,,9,0,9,0,6,0,6,0,,,,,,handle,w,g,lower,,,,,,,1,w,HiDemTar,g,1,0.6449270107259508,,,,,,,,,,,,,,,,,,,,303,2023-11-16_15h27.49.986,leap3,2022.2.5,59.98924423594591,
,,,,,,,,,,,,,,,,,,,,9,0,9,0,7,0,7,0,,,,,,relaying,w,g,lower,,,,,,,1,w,HiDemTar,g,1,0.5855001144373091,,,,,,,,,,,,,,,,,,,,303,2023-11-16_15h27.49.986,leap3,2022.2.5,59.98924423594591,
,,,,,,,,,,,,,,,,,,,,9,0,9,0,8,0,8,0,,,,,,welayed,nw,h,lower,,,,,,,1,nw,HiDemTar,h,1,0.6648067080823239,,,,,,,,,,,,,,,,,,,,303,2023-11-16_15h27.49.986,leap3,2022.2.5,59.98924423594591,
,,,,,,,,,,,,,,,,,,,,9,0,9,0,9,0,9,0,,,,,,surfaced,w,g,lower,,,,,,,1,w,HiDemTar,g,1,0.5488536290213233,,,,,,,,,,,,,,,,,,,,303,2023-11-16_15h27.49.986,leap3,2022.2.5,59.98924423594591,
,,,,,,,,,,,,,,,,,,,,9,0,9,0,10,0,10,0,,,,,,gewer,nw,h,lower,,,,,,,1,nw,HiDemTar,h,1,0.4685639319504844,,,,,,,,,,,,,,,,,,,,303,2023-11-16_15h27.49.986,leap3,2022.2.5,59.98924423594591,
,,,,,,,,,,,,,,,,,,,,9,0,9,0,11,0,11,0,,,,,,fivalve,nw,h,lower,,,,,,,1,nw,HiDemTar,h,1,0.5285308257880388,,,,,,,,,,,,,,,,,,,,303,2023-11-16_15h27.49.986,leap3,2022.2.5,59.98924423594591,
,,,,,,,,,,,,,,,,,,,,9,0,9,0,12,0,12,0,,,,,,potter,w,g,lower,,,,,,,1,w,HiDemTar,g,1,0.5457929386029718,,,,,,,,,,,,,,,,,,,,303,2023-11-16_15h27.49.986,leap3,2022.2.5,59.98924423594591,
,,,,,,,,,,,,,,,,,,,,9,0,9,0,13,0,13,0,,,,,,comply,w,g,lower,,,,,,,1,w,HiDemTar,g,1,0.7385059599328088,,,,,,,,,,,,,,,,,,,,303,2023-11-16_15h27.49.986,leap3,2022.2.5,59.98924423594591,
,,,,,,,,,,,,,,,,,,,,9,0,9,0,14,0,14,0,,,,,,schides,nw,h,lower,,,,,,,1,nw,HiDemTar,h,1,0.6257418546592817,,,,,,,,,,,,,,,,,,,,303,2023-11-16_15h27.49.986,leap3,2022.2.5,59.98924423594591,
,,,,,,,,,,,,,,,,,,,,9,0,9,0,15,0,15,0,,,,,,pripend,nw,h,lower,,,,,,,1,nw,HiDemTar,h,1,0.5193732038460439,,,,,,,,,,,,,,,,,,,,303,2023-11-16_15h27.49.986,leap3,2022.2.5,59.98924423594591,
,,,,,,,,,,,,,,,,,,,,9,0,9,0,16,0,16,0,,,,,,chone,nw,h,lower,,,,,,,1,nw,HiDemTar,h,1,0.5771236627915641,,,,,,,,,,,,,,,,,,,,303,2023-11-16_15h27.49.986,leap3,2022.2.5,59.98924423594591,
,,,,,,,,,,,,,,,,,,,,9,0,9,0,17,0,17,0,,,,,,neliefs,nw,h,lower,,,,,,,1,nw,HiDemTar,h,1,0.5770952895400114,,,,,,,,,,,,,,,,,,,,303,2023-11-16_15h27.49.986,leap3,2022.2.5,59.98924423594591,
,,,,,,,,,,,,,,,,,,,,9,0,9,0,18,0,18,0,,,,,,squirrel,target,q,lower,,,,,,,1,target,HiDemTar,g,0,0.6002961680351291,,,,,,,,,,,,,,,,,,,,303,2023-11-16_15h27.49.986,leap3,2022.2.5,59.98924423594591,
,,,,,,,,,,,,,,,,,,,,9,0,9,0,19,0,19,0,,,,,,borrent,nw,h,lower,,,,,,,1,aftertar1,HiDemTar,q,0,0.062077683018287644,,,1,,,,,,,,,,,,,,,,,303,2023-11-16_15h27.49.986,leap3,2022.2.5,59.98924423594591,
,,,,,,,,,,,,,,,,,,,,9,0,9,0,20,0,20,0,,,,,,tycoon,w,g,lower,,,,,,,1,aftertar2,HiDemTar,q,0,0.6179141540196724,,,1,,,,,,,,,,,,,,,,,303,2023-11-16_15h27.49.986,leap3,2022.2.5,59.98924423594591,
,,,,,,,,,,,,,,,,,,,,9,0,9,0,21,0,21,0,,,,,,ofsters,nw,h,lower,,,,,,,1,aftertar3,HiDemTar,h,1,0.8078022245172178,,,,,,,,,,,,,,,,,,,,303,2023-11-16_15h27.49.986,leap3,2022.2.5,59.98924423594591,
,,,,,,,,,,,,,,,,,,,,9,0,9,0,22,0,22,0,,,,,,picnic,w,g,lower,,,,,,,1,nw,HiDemTar,g,1,0.5658099746215157,,,,,,,,,,,,,,,,,,,,303,2023-11-16_15h27.49.986,leap3,2022.2.5,59.98924423594591,
,,,,,,,,,,,,,,,,,,,,9,0,9,0,23,0,23,0,,,,,,capobly,nw,h,lower,,,,,,,1,w,HiDemTar,h,1,0.7897885220299941,,,,,,,,,,,,,,,,,,,,303,2023-11-16_15h27.49.986,leap3,2022.2.5,59.98924423594591,
,,,,,,,,,,,,,,,,,,,,9,0,9,0,24,0,24,0,,,,,,arcients,nw,h,lower,,,,,,,1,nw,HiDemTar,h,1,0.6844823594146874,,,,,,,,,,,,,,,,,,,,303,2023-11-16_15h27.49.986,leap3,2022.2.5,59.98924423594591,
,,,,,,,,,,,,,,,,,,,,9,0,9,0,25,0,25,0,,,,,,splatter,w,g,lower,,,,,,,1,nw,HiDemTar,g,1,1.3757555885240436,,,,,,,,,,,,,,,,,,,,303,2023-11-16_15h27.49.986,leap3,2022.2.5,59.98924423594591,
,,,,,,,,,,,,,,,,,,,,9,0,9,0,26,0,26,0,,,,,,official,w,g,lower,,,,,,,1,w,HiDemTar,g,1,0.8791332143300679,,,,,,,,,,,,,,,,,,,,303,2023-11-16_15h27.49.986,leap3,2022.2.5,59.98924423594591,
,,,,,,,,,,,,,,,,,,,,9,0,9,0,27,0,27,0,,,,,,daining,nw,h,lower,,,,,,,1,w,HiDemTar,h,1,0.8094789636816131,,,,,,,,,,,,,,,,,,,,303,2023-11-16_15h27.49.986,leap3,2022.2.5,59.98924423594591,
,,,,,,,,,,,,,,,,,,,,9,0,9,0,28,0,28,0,,,,,,cheathe,nw,h,lower,,,,,,,1,nw,HiDemTar,h,1,0.7443571910553146,,,,,,,,,,,,,,,,,,,,303,2023-11-16_15h27.49.986,leap3,2022.2.5,59.98924423594591,
,,,,,,,,,,,,,,,,,,,,9,0,9,0,29,0,29,0,,,,,,forgive,w,g,lower,,,,,,,1,nw,HiDemTar,g,1,0.6479439338727389,,,,,,,,,,,,,,,,,,,,303,2023-11-16_15h27.49.986,leap3,2022.2.5,59.98924423594591,
,,,,,,,,,,,,,,,,,,,,9,0,9,0,,,,,,,,,,,,,,,,,,,,,,,,,,,1,,,,,,,,,,,,,,,,,,303,2023-11-16_15h27.49.986,leap3,2022.2.5,59.98924423594591,
,,,,,,,,,,,,,,,,,,,,10,0,10,0,0,0,0,0,,,,,,vibrate,w,g,lower,,,,,,,1,w,HiDemTar,g,1,0.6212090747867478,,,,,,,,,,,,,,,,,,,,303,2023-11-16_15h27.49.986,leap3,2022.2.5,59.98924423594591,
,,,,,,,,,,,,,,,,,,,,10,0,10,0,1,0,1,0,,,,,,gontracts,nw,h,lower,,,,,,,1,nw,HiDemTar,h,1,0.4824979212426115,,,,,,,,,,,,,,,,,,,,303,2023-11-16_15h27.49.986,leap3,2022.2.5,59.98924423594591,
,,,,,,,,,,,,,,,,,,,,10,0,10,0,2,0,2,0,,,,,,define,w,g,lower,,,,,,,1,w,HiDemTar,g,1,0.5578944376175059,,,,,,,,,,,,,,,,,,,,303,2023-11-16_15h27.49.986,leap3,2022.2.5,59.98924423594591,
,,,,,,,,,,,,,,,,,,,,10,0,10,0,3,0,3,0,,,,,,attrove,nw,h,lower,,,,,,,1,nw,HiDemTar,h,1,0.5257891836808994,,,,,,,,,,,,,,,,,,,,303,2023-11-16_15h27.49.986,leap3,2022.2.5,59.98924423594591,
,,,,,,,,,,,,,,,,,,,,10,0,10,0,4,0,4,0,,,,,,butler,w,g,lower,,,,,,,1,w,HiDemTar,h,0,0.5010679208062356,,,,,,,,,,,,,,,,,,,,303,2023-11-16_15h27.49.986,leap3,2022.2.5,59.98924423594591,
,,,,,,,,,,,,,,,,,,,,10,0,10,0,5,0,5,0,,,,,,dominion,w,g,lower,,,,,,,1,w,HiDemTar,g,1,0.743498748895945,,,,,,,,,,,,,,,,,,,,303,2023-11-16_15h27.49.986,leap3,2022.2.5,59.98924423594591,
,,,,,,,,,,,,,,,,,,,,10,0,10,0,6,0,6,0,,,,,,revising,w,g,lower,,,,,,,1,w,HiDemTar,g,1,0.46501153890858404,,,,,,,,,,,,,,,,,,,,303,2023-11-16_15h27.49.986,leap3,2022.2.5,59.98924423594591,
,,,,,,,,,,,,,,,,,,,,10,0,10,0,7,0,7,0,,,,,,explosion,w,g,lower,,,,,,,1,w,HiDemTar,g,1,0.4688340816501295,,,,,,,,,,,,,,,,,,,,303,2023-11-16_15h27.49.986,leap3,2022.2.5,59.98924423594591,
,,,,,,,,,,,,,,,,,,,,10,0,10,0,8,0,8,0,,,,,,latirizes,nw,h,lower,,,,,,,1,nw,HiDemTar,h,1,0.5686319070518948,,,,,,,,,,,,,,,,,,,,303,2023-11-16_15h27.49.986,leap3,2022.2.5,59.98924423594591,
,,,,,,,,,,,,,,,,,,,,10,0,10,0,9,0,9,0,,,,,,contund,nw,h,lower,,,,,,,1,nw,HiDemTar,h,1,0.6086231173831038,,,,,,,,,,,,,,,,,,,,303,2023-11-16_15h27.49.986,leap3,2022.2.5,59.98924423594591,
,,,,,,,,,,,,,,,,,,,,10,0,10,0,10,0,10,0,,,,,,patio,w,g,lower,,,,,,,1,w,HiDemTar,g,1,0.5745827464415925,,,,,,,,,,,,,,,,,,,,303,2023-11-16_15h27.49.986,leap3,2022.2.5,59.98924423594591,
,,,,,,,,,,,,,,,,,,,,10,0,10,0,11,0,11,0,,,,,,mitten,w,g,lower,,,,,,,1,w,HiDemTar,g,1,0.621906634492916,,,,,,,,,,,,,,,,,,,,303,2023-11-16_15h27.49.986,leap3,2022.2.5,59.98924423594591,
,,,,,,,,,,,,,,,,,,,,10,0,10,0,12,0,12,0,,,,,,analysis,w,g,lower,,,,,,,1,w,HiDemTar,g,1,0.5870241209486267,,,,,,,,,,,,,,,,,,,,303,2023-11-16_15h27.49.986,leap3,2022.2.5,59.98924423594591,
,,,,,,,,,,,,,,,,,,,,10,0,10,0,13,0,13,0,,,,,,quickel,nw,h,lower,,,,,,,1,nw,HiDemTar,g,0,0.6009022692451254,,,,,,,,,,,,,,,,,,,,303,2023-11-16_15h27.49.986,leap3,2022.2.5,59.98924423594591,
,,,,,,,,,,,,,,,,,,,,10,0,10,0,14,0,14,0,,,,,,command,w,g,lower,,,,,,,1,w,HiDemTar,g,1,0.5674749419122236,,,,,,,,,,,,,,,,,,,,303,2023-11-16_15h27.49.986,leap3,2022.2.5,59.98924423594591,
,,,,,,,,,,,,,,,,,,,,10,0,10,0,15,0,15,0,,,,,,appain,nw,h,lower,,,,,,,1,nw,HiDemTar,h,1,0.9674528469913639,,,,,,,,,,,,,,,,,,,,303,2023-11-16_15h27.49.986,leap3,2022.2.5,59.98924423594591,
,,,,,,,,,,,,,,,,,,,,10,0,10,0,16,0,16,0,,,,,,provide,w,g,lower,,,,,,,1,w,HiDemTar,g,1,0.5914035644382238,,,,,,,,,,,,,,,,,,,,303,2023-11-16_15h27.49.986,leap3,2022.2.5,59.98924423594591,
,,,,,,,,,,,,,,,,,,,,10,0,10,0,17,0,17,0,,,,,,crundle,nw,h,lower,,,,,,,1,nw,HiDemTar,h,1,0.6220608763978817,,,,,,,,,,,,,,,,,,,,303,2023-11-16_15h27.49.986,leap3,2022.2.5,59.98924423594591,
,,,,,,,,,,,,,,,,,,,,10,0,10,0,18,0,18,0,,,,,,insertion,w,g,lower,,,,,,,1,w,HiDemTar,h,0,0.5153927970968653,,,,,,,,,,,,,,,,,,,,303,2023-11-16_15h27.49.986,leap3,2022.2.5,59.98924423594591,
,,,,,,,,,,,,,,,,,,,,10,0,10,0,19,0,19,0,,,,,,require,w,g,lower,,,,,,,1,w,HiDemTar,g,1,0.5013329391658772,,,,,,,,,,,,,,,,,,,,303,2023-11-16_15h27.49.986,leap3,2022.2.5,59.98924423594591,
,,,,,,,,,,,,,,,,,,,,10,0,10,0,20,0,20,0,,,,,,neuran,nw,h,lower,,,,,,,1,nw,HiDemTar,h,1,0.6239757698785979,,,,,,,,,,,,,,,,,,,,303,2023-11-16_15h27.49.986,leap3,2022.2.5,59.98924423594591,
,,,,,,,,,,,,,,,,,,,,10,0,10,0,21,0,21,0,,,,,,gorilla,target,q,lower,,,,,,,1,target,HiDemTar,g,0,0.5804774429998361,,,,,,,,,,,,,,,,,,,,303,2023-11-16_15h27.49.986,leap3,2022.2.5,59.98924423594591,
,,,,,,,,,,,,,,,,,,,,10,0,10,0,22,0,22,0,,,,,,dounger,nw,h,lower,,,,,,,1,aftertar1,HiDemTar,h,1,1.4919519532413688,,,,,,,,,,,,,,,,,,,,303,2023-11-16_15h27.49.986,leap3,2022.2.5,59.98924423594591,
,,,,,,,,,,,,,,,,,,,,10,0,10,0,23,0,23,0,,,,,,peanimate,nw,h,lower,,,,,,,1,aftertar2,HiDemTar,h,1,0.8455416842916748,,,,,,,,,,,,,,,,,,,,303,2023-11-16_15h27.49.986,leap3,2022.2.5,59.98924423594591,
,,,,,,,,,,,,,,,,,,,,10,0,10,0,24,0,24,0,,,,,,mandlers,nw,h,lower,,,,,,,1,aftertar3,HiDemTar,h,1,0.5622123050998198,,,,,,,,,,,,,,,,,,,,303,2023-11-16_15h27.49.986,leap3,2022.2.5,59.98924423594591,
,,,,,,,,,,,,,,,,,,,,10,0,10,0,25,0,25,0,,,,,,collute,nw,h,lower,,,,,,,1,nw,HiDemTar,h,1,0.6581646476843162,,,,,,,,,,,,,,,,,,,,303,2023-11-16_15h27.49.986,leap3,2022.2.5,59.98924423594591,
,,,,,,,,,,,,,,,,,,,,10,0,10,0,26,0,26,0,,,,,,galashes,nw,h,lower,,,,,,,1,nw,HiDemTar,h,1,0.5901738551037852,,,,,,,,,,,,,,,,,,,,303,2023-11-16_15h27.49.986,leap3,2022.2.5,59.98924423594591,
,,,,,,,,,,,,,,,,,,,,10,0,10,0,27,0,27,0,,,,,,treenery,nw,h,lower,,,,,,,1,nw,HiDemTar,h,1,0.6447932941809995,,,,,,,,,,,,,,,,,,,,303,2023-11-16_15h27.49.986,leap3,2022.2.5,59.98924423594591,
,,,,,,,,,,,,,,,,,,,,10,0,10,0,28,0,28,0,,,,,,planofoad,nw,h,lower,,,,,,,1,nw,HiDemTar,h,1,0.7123156260349788,,,,,,,,,,,,,,,,,,,,303,2023-11-16_15h27.49.986,leap3,2022.2.5,59.98924423594591,
,,,,,,,,,,,,,,,,,,,,10,0,10,0,29,0,29,0,,,,,,arrive,w,g,lower,,,,,,,1,nw,HiDemTar,g,1,0.45814490714110434,,,,,,,,,,,,,,,,,,,,303,2023-11-16_15h27.49.986,leap3,2022.2.5,59.98924423594591,
,,,,,,,,,,,,,,,,,,,,10,0,10,0,,,,,,,,,,,,,,,,,,,,,,,,,,,0,,,,,,,,,,,,,,,,,,303,2023-11-16_15h27.49.986,leap3,2022.2.5,59.98924423594591,
,,,,,,,,,,,,,,,,,,,,11,0,11,0,0,0,0,0,,,,,,yash,nw,h,upper,,,,,,,4,nw,LoDemTar,h,1,0.638204056333052,,,,,,,,,,,,,,,,,,,,303,2023-11-16_15h27.49.986,leap3,2022.2.5,59.98924423594591,
,,,,,,,,,,,,,,,,,,,,11,0,11,0,1,0,1,0,,,,,,reconcile,w,g,upper,,,,,,,4,w,LoDemTar,g,1,0.7069159524107818,,,,,,,,,,,,,,,,,,,,303,2023-11-16_15h27.49.986,leap3,2022.2.5,59.98924423594591,
,,,,,,,,,,,,,,,,,,,,11,0,11,0,2,0,2,0,,,,,,praiged,nw,h,upper,,,,,,,4,nw,LoDemTar,h,1,0.6288798169407528,,,,,,,,,,,,,,,,,,,,303,2023-11-16_15h27.49.986,leap3,2022.2.5,59.98924423594591,
,,,,,,,,,,,,,,,,,,,,11,0,11,0,3,0,3,0,,,,,,geissue,nw,h,upper,,,,,,,4,nw,LoDemTar,h,1,0.4582043702394003,,,,,,,,,,,,,,,,,,,,303,2023-11-16_15h27.49.986,leap3,2022.2.5,59.98924423594591,
,,,,,,,,,,,,,,,,,,,,11,0,11,0,4,0,4,0,,,,,,louches,nw,h,upper,,,,,,,4,nw,LoDemTar,h,1,0.5901684219279559,,,,,,,,,,,,,,,,,,,,303,2023-11-16_15h27.49.986,leap3,2022.2.5,59.98924423594591,
,,,,,,,,,,,,,,,,,,,,11,0,11,0,5,0,5,0,,,,,,leuter,nw,h,upper,,,,,,,4,nw,LoDemTar,h,1,0.4847336740931496,,,,,,,,,,,,,,,,,,,,303,2023-11-16_15h27.49.986,leap3,2022.2.5,59.98924423594591,
,,,,,,,,,,,,,,,,,,,,11,0,11,0,6,0,6,0,,,,,,saucer,w,g,upper,,,,,,,4,w,LoDemTar,h,0,0.6320497745909961,,,,,,,,,,,,,,,,,,,,303,2023-11-16_15h27.49.986,leap3,2022.2.5,59.98924423594591,
,,,,,,,,,,,,,,,,,,,,11,0,11,0,7,0,7,0,,,,,,chemical,w,g,upper,,,,,,,4,w,LoDemTar,g,1,1.0604347502958262,,,,,,,,,,,,,,,,,,,,303,2023-11-16_15h27.49.986,leap3,2022.2.5,59.98924423594591,
,,,,,,,,,,,,,,,,,,,,11,0,11,0,8,0,8,0,,,,,,nostril,w,g,upper,,,,,,,4,w,LoDemTar,g,1,0.5603390659816796,,,,,,,,,,,,,,,,,,,,303,2023-11-16_15h27.49.986,leap3,2022.2.5,59.98924423594591,
,,,,,,,,,,,,,,,,,,,,11,0,11,0,9,0,9,0,,,,,,efcorted,nw,h,upper,,,,,,,4,nw,LoDemTar,h,1,0.4883391915500397,,,,,,,,,,,,,,,,,,,,303,2023-11-16_15h27.49.986,leap3,2022.2.5,59.98924423594591,
,,,,,,,,,,,,,,,,,,,,11,0,11,0,10,0,10,0,,,,,,noblin,nw,h,upper,,,,,,,4,nw,LoDemTar,h,1,0.5549771227379097,,,,,,,,,,,,,,,,,,,,303,2023-11-16_15h27.49.986,leap3,2022.2.5,59.98924423594591,
,,,,,,,,,,,,,,,,,,,,11,0,11,0,11,0,11,0,,,,,,elvisages,nw,h,upper,,,,,,,4,nw,LoDemTar,h,1,0.5949991210800363,,,,,,,,,,,,,,,,,,,,303,2023-11-16_15h27.49.986,leap3,2022.2.5,59.98924423594591,
,,,,,,,,,,,,,,,,,,,,11,0,11,0,12,0,12,0,,,,,,porcupine,target,q,upper,,,,,,,4,target,LoDemTar,g,0,1.2335077377938433,,,,,,,,,,,,,,,,,,,,303,2023-11-16_15h27.49.986,leap3,2022.2.5,59.98924423594591,
,,,,,,,,,,,,,,,,,,,,11,0,11,0,13,0,13,0,,,,,,maximized,w,g,upper,,,,,,,4,aftertar1,LoDemTar,g,1,0.6790075268072542,,,,,,,,,,,,,,,,,,,,303,2023-11-16_15h27.49.986,leap3,2022.2.5,59.98924423594591,
,,,,,,,,,,,,,,,,,,,,11,0,11,0,14,0,14,0,,,,,,brighten,w,g,upper,,,,,,,4,aftertar2,LoDemTar,g,1,0.5781964136549504,,,,,,,,,,,,,,,,,,,,303,2023-11-16_15h27.49.986,leap3,2022.2.5,59.98924423594591,
,,,,,,,,,,,,,,,,,,,,11,0,11,0,15,0,15,0,,,,,,country,w,g,upper,,,,,,,4,aftertar3,LoDemTar,g,1,0.6013719373149797,,,,,,,,,,,,,,,,,,,,303,2023-11-16_15h27.49.986,leap3,2022.2.5,59.98924423594591,
,,,,,,,,,,,,,,,,,,,,11,0,11,0,16,0,16,0,,,,,,oppose,w,g,upper,,,,,,,4,w,LoDemTar,g,1,0.6229362217709422,,,,,,,,,,,,,,,,,,,,303,2023-11-16_15h27.49.986,leap3,2022.2.5,59.98924423594591,
,,,,,,,,,,,,,,,,,,,,11,0,11,0,17,0,17,0,,,,,,fatho,nw,h,upper,,,,,,,4,w,LoDemTar,h,1,0.5321737718040822,,,,,,,,,,,,,,,,,,,,303,2023-11-16_15h27.49.986,leap3,2022.2.5,59.98924423594591,
,,,,,,,,,,,,,,,,,,,,11,0,11,0,18,0,18,0,,,,,,clume,nw,h,upper,,,,,,,4,nw,LoDemTar,h,1,0.5721933553868439,,,,,,,,,,,,,,,,,,,,303,2023-11-16_15h27.49.986,leap3,2022.2.5,59.98924423594591,
,,,,,,,,,,,,,,,,,,,,11,0,11,0,19,0,19,0,,,,,,joadbed,nw,h,upper,,,,,,,4,nw,LoDemTar,h,1,0.5557471248321235,,,,,,,,,,,,,,,,,,,,303,2023-11-16_15h27.49.986,leap3,2022.2.5,59.98924423594591,
,,,,,,,,,,,,,,,,,,,,11,0,11,0,20,0,20,0,,,,,,throttle,w,g,upper,,,,,,,4,nw,LoDemTar,h,0,0.7803864070883719,,,,,,,,,,,,,,,,,,,,303,2023-11-16_15h27.49.986,leap3,2022.2.5,59.98924423594591,
,,,,,,,,,,,,,,,,,,,,11,0,11,0,21,0,21,0,,,,,,unbridled,w,g,upper,,,,,,,4,w,LoDemTar,h,0,0.5877766161283944,,,,,,,,,,,,,,,,,,,,303,2023-11-16_15h27.49.986,leap3,2022.2.5,59.98924423594591,
,,,,,,,,,,,,,,,,,,,,11,0,11,0,22,0,22,0,,,,,,elpousal,nw,h,upper,,,,,,,4,w,LoDemTar,h,1,0.5383841963775922,,,,,,,,,,,,,,,,,,,,303,2023-11-16_15h27.49.986,leap3,2022.2.5,59.98924423594591,
,,,,,,,,,,,,,,,,,,,,11,0,11,0,23,0,23,0,,,,,,poyride,nw,h,upper,,,,,,,4,nw,LoDemTar,h,1,0.522464682260761,,,,,,,,,,,,,,,,,,,,303,2023-11-16_15h27.49.986,leap3,2022.2.5,59.98924423594591,
,,,,,,,,,,,,,,,,,,,,11,0,11,0,24,0,24,0,,,,,,dingly,nw,h,upper,,,,,,,4,nw,LoDemTar,h,1,0.4589897663536249,,,,,,,,,,,,,,,,,,,,303,2023-11-16_15h27.49.986,leap3,2022.2.5,59.98924423594591,
,,,,,,,,,,,,,,,,,,,,11,0,11,0,25,0,25,0,,,,,,pariah,w,g,upper,,,,,,,4,nw,LoDemTar,h,0,0.4558264492370654,,,,,,,,,,,,,,,,,,,,303,2023-11-16_15h27.49.986,leap3,2022.2.5,59.98924423594591,
,,,,,,,,,,,,,,,,,,,,11,0,11,0,26,0,26,0,,,,,,tucker,w,g,upper,,,,,,,4,w,LoDemTar,h,0,0.7385590843477985,,,,,,,,,,,,,,,,,,,,303,2023-11-16_15h27.49.986,leap3,2022.2.5,59.98924423594591,
,,,,,,,,,,,,,,,,,,,,11,0,11,0,27,0,27,0,,,,,,clarms,nw,h,upper,,,,,,,4,w,LoDemTar,h,1,0.6909614244796103,,,,,,,,,,,,,,,,,,,,303,2023-11-16_15h27.49.986,leap3,2022.2.5,59.98924423594591,
,,,,,,,,,,,,,,,,,,,,11,0,11,0,28,0,28,0,,,,,,pressing,w,g,upper,,,,,,,4,nw,LoDemTar,g,1,0.557543997609173,,,,,,,,,,,,,,,,,,,,303,2023-11-16_15h27.49.986,leap3,2022.2.5,59.98924423594591,
,,,,,,,,,,,,,,,,,,,,11,0,11,0,29,0,29,0,,,,,,jiggling,w,g,upper,,,,,,,4,w,LoDemTar,g,1,0.8215436378086451,,,,,,,,,,,,,,,,,,,,303,2023-11-16_15h27.49.986,leap3,2022.2.5,59.98924423594591,
,,,,,,,,,,,,,,,,,,,,11,0,11,0,,,,,,,,,,,,,,,,,,,,,,,,,,,0,,,,,,,,,,,,,,,,,,303,2023-11-16_15h27.49.986,leap3,2022.2.5,59.98924423594591,
,,,,,,,,,,,,,,,,,,,,12,0,12,0,0,0,0,0,,,,,,subpoena,w,g,lower,,,,,,,2,w,HiDemNoTar,g,1,1.1073399817832978,,,,,,,,,,,,,,,,,,,,303,2023-11-16_15h27.49.986,leap3,2022.2.5,59.98924423594591,
,,,,,,,,,,,,,,,,,,,,12,0,12,0,1,0,1,0,,,,,,roodies,nw,h,lower,,,,,,,2,nw,HiDemNoTar,h,1,0.764301482879091,,,,,,,,,,,,,,,,,,,,303,2023-11-16_15h27.49.986,leap3,2022.2.5,59.98924423594591,
,,,,,,,,,,,,,,,,,,,,12,0,12,0,2,0,2,0,,,,,,bropic,nw,h,lower,,,,,,,2,nw,HiDemNoTar,h,1,0.5562469772412442,,,,,,,,,,,,,,,,,,,,303,2023-11-16_15h27.49.986,leap3,2022.2.5,59.98924423594591,
,,,,,,,,,,,,,,,,,,,,12,0,12,0,3,0,3,0,,,,,,efficient,w,g,lower,,,,,,,2,w,HiDemNoTar,g,1,0.5642292216070928,,,,,,,,,,,,,,,,,,,,303,2023-11-16_15h27.49.986,leap3,2022.2.5,59.98924423594591,
,,,,,,,,,,,,,,,,,,,,12,0,12,0,4,0,4,0,,,,,,scabry,nw,h,lower,,,,,,,2,nw,HiDemNoTar,h,1,0.5481370531779248,,,,,,,,,,,,,,,,,,,,303,2023-11-16_15h27.49.986,leap3,2022.2.5,59.98924423594591,
,,,,,,,,,,,,,,,,,,,,12,0,12,0,5,0,5,0,,,,,,tharcely,nw,h,lower,,,,,,,2,nw,HiDemNoTar,h,1,0.4207622260582866,,,,,,,,,,,,,,,,,,,,303,2023-11-16_15h27.49.986,leap3,2022.2.5,59.98924423594591,
,,,,,,,,,,,,,,,,,,,,12,0,12,0,6,0,6,0,,,,,,showdown,w,g,lower,,,,,,,2,w,HiDemNoTar,h,0,0.39285712073615286,,,,,,,,,,,,,,,,,,,,303,2023-11-16_15h27.49.986,leap3,2022.2.5,59.98924423594591,
,,,,,,,,,,,,,,,,,,,,12,0,12,0,7,0,7,0,,,,,,mustled,nw,h,lower,,,,,,,2,nw,HiDemNoTar,h,1,0.7595779380790191,,,,,,,,,,,,,,,,,,,,303,2023-11-16_15h27.49.986,leap3,2022.2.5,59.98924423594591,
,,,,,,,,,,,,,,,,,,,,12,0,12,0,8,0,8,0,,,,,,thorifies,nw,h,lower,,,,,,,2,nw,HiDemNoTar,h,1,0.8563485776685411,,,,,,,,,,,,,,,,,,,,303,2023-11-16_15h27.49.986,leap3,2022.2.5,59.98924423594591,
,,,,,,,,,,,,,,,,,,,,12,0,12,0,9,0,9,0,,,,,,upstairs,w,g,lower,,,,,,,2,w,HiDemNoTar,g,1,0.540787774065393,,,,,,,,,,,,,,,,,,,,303,2023-11-16_15h27.49.986,leap3,2022.2.5,59.98924423594591,
,,,,,,,,,,,,,,,,,,,,12,0,12,0,10,0,10,0,,,,,,angry,w,g,lower,,,,,,,2,w,HiDemNoTar,g,1,0.5083628681313712,,,,,,,,,,,,,,,,,,,,303,2023-11-16_15h27.49.986,leap3,2022.2.5,59.98924423594591,
,,,,,,,,,,,,,,,,,,,,12,0,12,0,11,0,11,0,,,,,,listless,w,g,lower,,,,,,,2,w,HiDemNoTar,g,1,0.8862872008612612,,,,,,,,,,,,,,,,,,,,303,2023-11-16_15h27.49.986,leap3,2022.2.5,59.98924423594591,
,,,,,,,,,,,,,,,,,,,,12,0,12,0,12,0,12,0,,,,,,chrik,nw,h,lower,,,,,,,2,nw,HiDemNoTar,h,1,0.5849386860209052,,,,,,,,,,,,,,,,,,,,303,2023-11-16_15h27.49.986,leap3,2022.2.5,59.98924423594591,
,,,,,,,,,,,,,,,,,,,,12,0,12,0,13,0,13,0,,,,,,ronic,nw,h,lower,,,,,,,2,nw,HiDemNoTar,h,1,0.5841499696398387,,,,,,,,,,,,,,,,,,,,303,2023-11-16_15h27.49.986,leap3,2022.2.5,59.98924423594591,
,,,,,,,,,,,,,,,,,,,,12,0,12,0,14,0,14,0,,,,,,expensive,w,g,lower,,,,,,,2,w,HiDemNoTar,g,1,0.5030688396218466,,,,,,,,,,,,,,,,,,,,303,2023-11-16_15h27.49.986,leap3,2022.2.5,59.98924423594591,
,,,,,,,,,,,,,,,,,,,,12,0,12,0,15,0,15,0,,,,,,venturous,w,g,lower,,,,,,,2,w,HiDemNoTar,h,0,1.225522776832804,,,,,,,,,,,,,,,,,,,,303,2023-11-16_15h27.49.986,leap3,2022.2.5,59.98924423594591,
,,,,,,,,,,,,,,,,,,,,12,0,12,0,16,0,16,0,,,,,,uncounted,w,g,lower,,,,,,,2,w,HiDemNoTar,g,1,0.92683199167368,,,,,,,,,,,,,,,,,,,,303,2023-11-16_15h27.49.986,leap3,2022.2.5,59.98924423594591,
,,,,,,,,,,,,,,,,,,,,12,0,12,0,17,0,17,0,,,,,,sength,nw,h,lower,,,,,,,2,nw,HiDemNoTar,h,1,0.7360263177542947,,,,,,,,,,,,,,,,,,,,303,2023-11-16_15h27.49.986,leap3,2022.2.5,59.98924423594591,
,,,,,,,,,,,,,,,,,,,,12,0,12,0,18,0,18,0,,,,,,seasoning,w,g,lower,,,,,,,2,w,HiDemNoTar,g,1,0.6247014010150451,,,,,,,,,,,,,,,,,,,,303,2023-11-16_15h27.49.986,leap3,2022.2.5,59.98924423594591,
,,,,,,,,,,,,,,,,,,,,12,0,12,0,19,0,19,0,,,,,,pircus,nw,h,lower,,,,,,,2,nw,HiDemNoTar,h,1,0.6290974459116114,,,,,,,,,,,,,,,,,,,,303,2023-11-16_15h27.49.986,leap3,2022.2.5,59.98924423594591,
,,,,,,,,,,,,,,,,,,,,12,0,12,0,20,0,20,0,,,,,,childhood,w,g,lower,,,,,,,2,w,HiDemNoTar,g,1,0.6503607926570112,,,,,,,,,,,,,,,,,,,,303,2023-11-16_15h27.49.986,leap3,2022.2.5,59.98924423594591,
,,,,,,,,,,,,,,,,,,,,12,0,12,0,21,0,21,0,,,,,,emotion,w,g,lower,,,,,,,2,w,HiDemNoTar,g,1,0.6869915822462644,,,,,,,,,,,,,,,,,,,,303,2023-11-16_15h27.49.986,leap3,2022.2.5,59.98924423594591,
,,,,,,,,,,,,,,,,,,,,12,0,12,0,22,0,22,0,,,,,,cabinet,w,g,lower,,,,,,,2,w,HiDemNoTar,g,1,0.4976371705852216,,,,,,,,,,,,,,,,,,,,303,2023-11-16_15h27.49.986,leap3,2022.2.5,59.98924423594591,
,,,,,,,,,,,,,,,,,,,,12,0,12,0,23,0,23,0,,,,,,egect,nw,h,lower,,,,,,,2,nw,HiDemNoTar,h,1,0.6844174631260103,,,,,,,,,,,,,,,,,,,,303,2023-11-16_15h27.49.986,leap3,2022.2.5,59.98924423594591,
,,,,,,,,,,,,,,,,,,,,12,0,12,0,24,0,24,0,,,,,,joses,nw,h,lower,,,,,,,2,nw,HiDemNoTar,h,1,0.6075720992375864,,,,,,,,,,,,,,,,,,,,303,2023-11-16_15h27.49.986,leap3,2022.2.5,59.98924423594591,
,,,,,,,,,,,,,,,,,,,,12,0,12,0,25,0,25,0,,,,,,lightels,nw,h,lower,,,,,,,2,nw,HiDemNoTar,h,1,0.7735478467220673,,,,,,,,,,,,,,,,,,,,303,2023-11-16_15h27.49.986,leap3,2022.2.5,59.98924423594591,
,,,,,,,,,,,,,,,,,,,,12,0,12,0,26,0,26,0,,,,,,glaims,nw,h,lower,,,,,,,2,nw,HiDemNoTar,h,1,0.6208888191031292,,,,,,,,,,,,,,,,,,,,303,2023-11-16_15h27.49.986,leap3,2022.2.5,59.98924423594591,
,,,,,,,,,,,,,,,,,,,,12,0,12,0,27,0,27,0,,,,,,amms,nw,h,lower,,,,,,,2,nw,HiDemNoTar,h,1,0.4892697742470773,,,,,,,,,,,,,,,,,,,,303,2023-11-16_15h27.49.986,leap3,2022.2.5,59.98924423594591,
,,,,,,,,,,,,,,,,,,,,12,0,12,0,28,0,28,0,,,,,,twenties,w,g,lower,,,,,,,2,w,HiDemNoTar,g,1,0.5878801483631833,,,,,,,,,,,,,,,,,,,,303,2023-11-16_15h27.49.986,leap3,2022.2.5,59.98924423594591,
,,,,,,,,,,,,,,,,,,,,12,0,12,0,29,0,29,0,,,,,,acidic,w,g,lower,,,,,,,2,w,HiDemNoTar,g,1,0.5784490564547013,,,,,,,,,,,,,,,,,,,,303,2023-11-16_15h27.49.986,leap3,2022.2.5,59.98924423594591,
,,,,,,,,,,,,,,,,,,,,12,0,12,0,,,,,,,,,,,,,,,,,,,,,,,,,,,NA,,,,,,,,,,,,,,,,,,303,2023-11-16_15h27.49.986,leap3,2022.2.5,59.98924423594591,
,,,,,,,,,,,,,,,,,,,,13,0,13,0,0,0,0,0,,,,,,abstain,w,g,lower,,,,,,,1,w,HiDemTar,g,1,0.7056316094240174,,,,,,,,,,,,,,,,,,,,303,2023-11-16_15h27.49.986,leap3,2022.2.5,59.98924423594591,
,,,,,,,,,,,,,,,,,,,,13,0,13,0,1,0,1,0,,,,,,vorm,nw,h,lower,,,,,,,1,nw,HiDemTar,h,1,0.5555563599045854,,,,,,,,,,,,,,,,,,,,303,2023-11-16_15h27.49.986,leap3,2022.2.5,59.98924423594591,
,,,,,,,,,,,,,,,,,,,,13,0,13,0,2,0,2,0,,,,,,fards,nw,h,lower,,,,,,,1,nw,HiDemTar,h,1,0.5066535298828967,,,,,,,,,,,,,,,,,,,,303,2023-11-16_15h27.49.986,leap3,2022.2.5,59.98924423594591,
,,,,,,,,,,,,,,,,,,,,13,0,13,0,3,0,3,0,,,,,,whirlpool,w,g,lower,,,,,,,1,w,HiDemTar,g,1,0.6845955506287282,,,,,,,,,,,,,,,,,,,,303,2023-11-16_15h27.49.986,leap3,2022.2.5,59.98924423594591,
,,,,,,,,,,,,,,,,,,,,13,0,13,0,4,0,4,0,,,,,,mamps,nw,h,lower,,,,,,,1,nw,HiDemTar,h,1,0.5598938472103328,,,,,,,,,,,,,,,,,,,,303,2023-11-16_15h27.49.986,leap3,2022.2.5,59.98924423594591,
,,,,,,,,,,,,,,,,,,,,13,0,13,0,5,0,5,0,,,,,,painter,w,g,lower,,,,,,,1,w,HiDemTar,g,1,0.9598325126571581,,,,,,,,,,,,,,,,,,,,303,2023-11-16_15h27.49.986,leap3,2022.2.5,59.98924423594591,
,,,,,,,,,,,,,,,,,,,,13,0,13,0,6,0,6,0,,,,,,tracing,w,g,lower,,,,,,,1,w,HiDemTar,g,1,0.7118335824052338,,,,,,,,,,,,,,,,,,,,303,2023-11-16_15h27.49.986,leap3,2022.2.5,59.98924423594591,
,,,,,,,,,,,,,,,,,,,,13,0,13,0,7,0,7,0,,,,,,bentler,nw,h,lower,,,,,,,1,nw,HiDemTar,h,1,0.5857243839709554,,,,,,,,,,,,,,,,,,,,303,2023-11-16_15h27.49.986,leap3,2022.2.5,59.98924423594591,
,,,,,,,,,,,,,,,,,,,,13,0,13,0,8,0,8,0,,,,,,ausht,nw,h,lower,,,,,,,1,nw,HiDemTar,h,1,0.4811287603370147,,,,,,,,,,,,,,,,,,,,303,2023-11-16_15h27.49.986,leap3,2022.2.5,59.98924423594591,
,,,,,,,,,,,,,,,,,,,,13,0,13,0,9,0,9,0,,,,,,kangaroo,target,q,lower,,,,,,,1,target,HiDemTar,g,0,0.4844064760254696,1,,,1,,,,,,,,,,,,,,,,303,2023-11-16_15h27.49.986,leap3,2022.2.5,59.98924423594591,
,,,,,,,,,,,,,,,,,,,,13,0,13,0,10,0,10,0,,,,,,mandate,w,g,lower,,,,,,,1,aftertar1,HiDemTar,g,1,0.9996767253323924,,,,,,,,,,,,,,,,,,,,303,2023-11-16_15h27.49.986,leap3,2022.2.5,59.98924423594591,
,,,,,,,,,,,,,,,,,,,,13,0,13,0,11,0,11,0,,,,,,ragtam,nw,h,lower,,,,,,,1,aftertar2,HiDemTar,h,1,0.686326319744694,,,,,,,,,,,,,,,,,,,,303,2023-11-16_15h27.49.986,leap3,2022.2.5,59.98924423594591,
,,,,,,,,,,,,,,,,,,,,13,0,13,0,12,0,12,0,,,,,,trake,nw,h,lower,,,,,,,1,aftertar3,HiDemTar,h,1,0.8159827798808692,,,,,,,,,,,,,,,,,,,,303,2023-11-16_15h27.49.986,leap3,2022.2.5,59.98924423594591,
,,,,,,,,,,,,,,,,,,,,13,0,13,0,13,0,13,0,,,,,,glating,nw,h,lower,,,,,,,1,nw,HiDemTar,h,1,0.7739574480074225,,,,,,,,,,,,,,,,,,,,303,2023-11-16_15h27.49.986,leap3,2022.2.5,59.98924423594591,
,,,,,,,,,,,,,,,,,,,,13,0,13,0,14,0,14,0,,,,,,scrib,nw,h,lower,,,,,,,1,nw,HiDemTar,g,0,0.9332799668918597,,,,,,,,,,,,,,,,,,,,303,2023-11-16_15h27.49.986,leap3,2022.2.5,59.98924423594591,
,,,,,,,,,,,,,,,,,,,,13,0,13,0,15,0,15,0,,,,,,enabled,w,g,lower,,,,,,,1,nw,HiDemTar,g,1,0.7586044936469989,,,,,,,,,,,,,,,,,,,,303,2023-11-16_15h27.49.986,leap3,2022.2.5,59.98924423594591,
,,,,,,,,,,,,,,,,,,,,13,0,13,0,16,0,16,0,,,,,,shurk,nw,h,lower,,,,,,,1,w,HiDemTar,h,1,0.5745323386217933,,,,,,,,,,,,,,,,,,,,303,2023-11-16_15h27.49.986,leap3,2022.2.5,59.98924423594591,
,,,,,,,,,,,,,,,,,,,,13,0,13,0,17,0,17,0,,,,,,passet,nw,h,lower,,,,,,,1,nw,HiDemTar,h,1,0.5658410644828109,,,,,,,,,,,,,,,,,,,,303,2023-11-16_15h27.49.986,leap3,2022.2.5,59.98924423594591,
,,,,,,,,,,,,,,,,,,,,13,0,13,0,18,0,18,0,,,,,,volume,w,g,lower,,,,,,,1,nw,HiDemTar,g,1,0.493754561044625,,,,,,,,,,,,,,,,,,,,303,2023-11-16_15h27.49.986,leap3,2022.2.5,59.98924423594591,
,,,,,,,,,,,,,,,,,,,,13,0,13,0,19,0,19,0,,,,,,organize,w,g,lower,,,,,,,1,w,HiDemTar,g,1,0.5032746967044659,,,,,,,,,,,,,,,,,,,,303,2023-11-16_15h27.49.986,leap3,2022.2.5,59.98924423594591,
,,,,,,,,,,,,,,,,,,,,13,0,13,0,20,0,20,0,,,,,,derisury,nw,h,lower,,,,,,,1,w,HiDemTar,h,1,0.6242806315422058,,,,,,,,,,,,,,,,,,,,303,2023-11-16_15h27.49.986,leap3,2022.2.5,59.98924423594591,
,,,,,,,,,,,,,,,,,,,,13,0,13,0,21,0,21,0,,,,,,formation,w,g,lower,,,,,,,1,nw,HiDemTar,g,1,1.2540409257635474,,,,,,,,,,,,,,,,,,,,303,2023-11-16_15h27.49.986,leap3,2022.2.5,59.98924423594591,
,,,,,,,,,,,,,,,,,,,,13,0,13,0,22,0,22,0,,,,,,smabled,nw,h,lower,,,,,,,1,w,HiDemTar,h,1,0.730572010477772,,,,,,,,,,,,,,,,,,,,303,2023-11-16_15h27.49.986,leap3,2022.2.5,59.98924423594591,
,,,,,,,,,,,,,,,,,,,,13,0,13,0,23,0,23,0,,,,,,talent,w,g,lower,,,,,,,1,nw,HiDemTar,g,1,0.9237568128010025,,,,,,,,,,,,,,,,,,,,303,2023-11-16_15h27.49.986,leap3,2022.2.5,59.98924423594591,
,,,,,,,,,,,,,,,,,,,,13,0,13,0,24,0,24,0,,,,,,incorrect,w,g,lower,,,,,,,1,w,HiDemTar,g,1,0.6531606905045919,,,,,,,,,,,,,,,,,,,,303,2023-11-16_15h27.49.986,leap3,2022.2.5,59.98924423594591,
,,,,,,,,,,,,,,,,,,,,13,0,13,0,25,0,25,0,,,,,,shockwave,w,g,lower,,,,,,,1,w,HiDemTar,g,1,1.1531187343061902,,,,,,,,,,,,,,,,,,,,303,2023-11-16_15h27.49.986,leap3,2022.2.5,59.98924423594591,
,,,,,,,,,,,,,,,,,,,,13,0,13,0,26,0,26,0,,,,,,tragedy,w,g,lower,,,,,,,1,w,HiDemTar,g,1,0.5370612174738199,,,,,,,,,,,,,,,,,,,,303,2023-11-16_15h27.49.986,leap3,2022.2.5,59.98924423594591,
,,,,,,,,,,,,,,,,,,,,13,0,13,0,27,0,27,0,,,,,,hotplate,w,g,lower,,,,,,,1,w,HiDemTar,g,1,0.7296854969026754,,,,,,,,,,,,,,,,,,,,303,2023-11-16_15h27.49.986,leap3,2022.2.5,59.98924423594591,
,,,,,,,,,,,,,,,,,,,,13,0,13,0,28,0,28,0,,,,,,actively,w,g,lower,,,,,,,1,w,HiDemTar,g,1,0.49807423960010055,,,,,,,,,,,,,,,,,,,,303,2023-11-16_15h27.49.986,leap3,2022.2.5,59.98924423594591,
,,,,,,,,,,,,,,,,,,,,13,0,13,0,29,0,29,0,,,,,,adok,nw,h,lower,,,,,,,1,w,HiDemTar,h,1,0.5655211106641218,,,,,,,,,,,,,,,,,,,,303,2023-11-16_15h27.49.986,leap3,2022.2.5,59.98924423594591,
,,,,,,,,,,,,,,,,,,,,13,0,13,0,,,,,,,,,,,,,,,,,,,,,,,,,,,1,,,,,,,,,,,,,,,,,,303,2023-11-16_15h27.49.986,leap3,2022.2.5,59.98924423594591,
,,,,,,,,,,,,,,,,,,,,14,0,14,0,0,0,0,0,,,,,,levels,w,g,upper,,,,,,,3,w,LoDemNoTar,g,1,0.5410512832022505,,,,,,,,,,,,,,,,,,,,303,2023-11-16_15h27.49.986,leap3,2022.2.5,59.98924423594591,
,,,,,,,,,,,,,,,,,,,,14,0,14,0,1,0,1,0,,,,,,design,w,g,upper,,,,,,,3,w,LoDemNoTar,g,1,0.41372686391696334,,,,,,,,,,,,,,,,,,,,303,2023-11-16_15h27.49.986,leap3,2022.2.5,59.98924423594591,
,,,,,,,,,,,,,,,,,,,,14,0,14,0,2,0,2,0,,,,,,stretches,w,g,upper,,,,,,,3,w,LoDemNoTar,g,1,0.38769650693575386,,,,,,,,,,,,,,,,,,,,303,2023-11-16_15h27.49.986,leap3,2022.2.5,59.98924423594591,
,,,,,,,,,,,,,,,,,,,,14,0,14,0,3,0,3,0,,,,,,forbid,w,g,upper,,,,,,,3,w,LoDemNoTar,g,1,0.6183014188864036,,,,,,,,,,,,,,,,,,,,303,2023-11-16_15h27.49.986,leap3,2022.2.5,59.98924423594591,
,,,,,,,,,,,,,,,,,,,,14,0,14,0,4,0,4,0,,,,,,target,w,g,upper,,,,,,,3,w,LoDemNoTar,g,1,0.4316077553667128,,,,,,,,,,,,,,,,,,,,303,2023-11-16_15h27.49.986,leap3,2022.2.5,59.98924423594591,
,,,,,,,,,,,,,,,,,,,,14,0,14,0,5,0,5,0,,,,,,afternoon,w,g,upper,,,,,,,3,w,LoDemNoTar,g,1,0.3961134055716684,,,,,,,,,,,,,,,,,,,,303,2023-11-16_15h27.49.986,leap3,2022.2.5,59.98924423594591,
,,,,,,,,,,,,,,,,,,,,14,0,14,0,6,0,6,0,,,,,,undertake,w,g,upper,,,,,,,3,w,LoDemNoTar,g,1,0.8265980028081685,,,,,,,,,,,,,,,,,,,,303,2023-11-16_15h27.49.986,leap3,2022.2.5,59.98924423594591,
,,,,,,,,,,,,,,,,,,,,14,0,14,0,7,0,7,0,,,,,,cayward,nw,h,upper,,,,,,,3,nw,LoDemNoTar,h,1,0.6318264106084825,,,,,,,,,,,,,,,,,,,,303,2023-11-16_15h27.49.986,leap3,2022.2.5,59.98924423594591,
,,,,,,,,,,,,,,,,,,,,14,0,14,0,8,0,8,0,,,,,,lindo,nw,h,upper,,,,,,,3,nw,LoDemNoTar,h,1,0.5021892684308114,,,,,,,,,,,,,,,,,,,,303,2023-11-16_15h27.49.986,leap3,2022.2.5,59.98924423594591,
,,,,,,,,,,,,,,,,,,,,14,0,14,0,9,0,9,0,,,,,,railroad,w,g,upper,,,,,,,3,w,LoDemNoTar,g,1,1.1500553273072,,,,,,,,,,,,,,,,,,,,303,2023-11-16_15h27.49.986,leap3,2022.2.5,59.98924423594591,
,,,,,,,,,,,,,,,,,,,,14,0,14,0,10,0,10,0,,,,,,vintnel,nw,h,upper,,,,,,,3,nw,LoDemNoTar,h,1,0.6789133517158916,,,,,,,,,,,,,,,,,,,,303,2023-11-16_15h27.49.986,leap3,2022.2.5,59.98924423594591,
,,,,,,,,,,,,,,,,,,,,14,0,14,0,11,0,11,0,,,,,,insole,w,g,upper,,,,,,,3,w,LoDemNoTar,h,0,0.6028379899071297,,,,,,,,,,,,,,,,,,,,303,2023-11-16_15h27.49.986,leap3,2022.2.5,59.98924423594591,
,,,,,,,,,,,,,,,,,,,,14,0,14,0,12,0,12,0,,,,,,chraps,nw,h,upper,,,,,,,3,nw,LoDemNoTar,h,1,0.5771393586474005,,,,,,,,,,,,,,,,,,,,303,2023-11-16_15h27.49.986,leap3,2022.2.5,59.98924423594591,
,,,,,,,,,,,,,,,,,,,,14,0,14,0,13,0,13,0,,,,,,sording,nw,h,upper,,,,,,,3,nw,LoDemNoTar,h,1,0.7524248570698546,,,,,,,,,,,,,,,,,,,,303,2023-11-16_15h27.49.986,leap3,2022.2.5,59.98924423594591,
,,,,,,,,,,,,,,,,,,,,14,0,14,0,14,0,14,0,,,,,,smolvers,nw,h,upper,,,,,,,3,nw,LoDemNoTar,h,1,0.5363923328695819,,,,,,,,,,,,,,,,,,,,303,2023-11-16_15h27.49.986,leap3,2022.2.5,59.98924423594591,
,,,,,,,,,,,,,,,,,,,,14,0,14,0,15,0,15,0,,,,,,peadgear,nw,h,upper,,,,,,,3,nw,LoDemNoTar,h,1,0.5519846488896292,,,,,,,,,,,,,,,,,,,,303,2023-11-16_15h27.49.986,leap3,2022.2.5,59.98924423594591,
,,,,,,,,,,,,,,,,,,,,14,0,14,0,16,0,16,0,,,,,,hemoter,nw,h,upper,,,,,,,3,nw,LoDemNoTar,h,1,0.5440211187960813,,,,,,,,,,,,,,,,,,,,303,2023-11-16_15h27.49.986,leap3,2022.2.5,59.98924423594591,
,,,,,,,,,,,,,,,,,,,,14,0,14,0,17,0,17,0,,,,,,spaceship,w,g,upper,,,,,,,3,w,LoDemNoTar,g,1,0.5606357778742677,,,,,,,,,,,,,,,,,,,,303,2023-11-16_15h27.49.986,leap3,2022.2.5,59.98924423594591,
,,,,,,,,,,,,,,,,,,,,14,0,14,0,18,0,18,0,,,,,,moisture,w,g,upper,,,,,,,3,w,LoDemNoTar,g,1,0.5366633880912559,,,,,,,,,,,,,,,,,,,,303,2023-11-16_15h27.49.986,leap3,2022.2.5,59.98924423594591,
,,,,,,,,,,,,,,,,,,,,14,0,14,0,19,0,19,0,,,,,,unsmilung,nw,h,upper,,,,,,,3,nw,LoDemNoTar,h,1,0.6972832292085513,,,,,,,,,,,,,,,,,,,,303,2023-11-16_15h27.49.986,leap3,2022.2.5,59.98924423594591,
,,,,,,,,,,,,,,,,,,,,14,0,14,0,20,0,20,0,,,,,,smallash,nw,h,upper,,,,,,,3,nw,LoDemNoTar,h,1,0.6038491647486808,,,,,,,,,,,,,,,,,,,,303,2023-11-16_15h27.49.986,leap3,2022.2.5,59.98924423594591,
,,,,,,,,,,,,,,,,,,,,14,0,14,0,21,0,21,0,,,,,,fuhrek,nw,h,upper,,,,,,,3,nw,LoDemNoTar,h,1,0.4737966862885514,,,,,,,,,,,,,,,,,,,,303,2023-11-16_15h27.49.986,leap3,2022.2.5,59.98924423594591,
,,,,,,,,,,,,,,,,,,,,14,0,14,0,22,0,22,0,,,,,,enacted,w,g,upper,,,,,,,3,w,LoDemNoTar,g,1,0.7251219290192239,,,,,,,,,,,,,,,,,,,,303,2023-11-16_15h27.49.986,leap3,2022.2.5,59.98924423594591,
,,,,,,,,,,,,,,,,,,,,14,0,14,0,23,0,23,0,,,,,,rewrite,w,g,upper,,,,,,,3,w,LoDemNoTar,g,1,0.4055623062304221,,,,,,,,,,,,,,,,,,,,303,2023-11-16_15h27.49.986,leap3,2022.2.5,59.98924423594591,
,,,,,,,,,,,,,,,,,,,,14,0,14,0,24,0,24,0,,,,,,tuckel,nw,h,upper,,,,,,,3,nw,LoDemNoTar,h,1,0.7804048195102951,,,,,,,,,,,,,,,,,,,,303,2023-11-16_15h27.49.986,leap3,2022.2.5,59.98924423594591,
,,,,,,,,,,,,,,,,,,,,14,0,14,0,25,0,25,0,,,,,,inforl,nw,h,upper,,,,,,,3,nw,LoDemNoTar,h,1,0.5546692426287336,,,,,,,,,,,,,,,,,,,,303,2023-11-16_15h27.49.986,leap3,2022.2.5,59.98924423594591,
,,,,,,,,,,,,,,,,,,,,14,0,14,0,26,0,26,0,,,,,,intended,w,g,upper,,,,,,,3,w,LoDemNoTar,g,1,0.626737635495374,,,,,,,,,,,,,,,,,,,,303,2023-11-16_15h27.49.986,leap3,2022.2.5,59.98924423594591,
,,,,,,,,,,,,,,,,,,,,14,0,14,0,27,0,27,0,,,,,,daylight,w,g,upper,,,,,,,3,w,LoDemNoTar,g,1,0.45601902522321325,,,,,,,,,,,,,,,,,,,,303,2023-11-16_15h27.49.986,leap3,2022.2.5,59.98924423594591,
,,,,,,,,,,,,,,,,,,,,14,0,14,0,28,0,28,0,,,,,,sopes,nw,h,upper,,,,,,,3,nw,LoDemNoTar,h,1,0.5320642026927089,,,,,,,,,,,,,,,,,,,,303,2023-11-16_15h27.49.986,leap3,2022.2.5,59.98924423594591,
,,,,,,,,,,,,,,,,,,,,14,0,14,0,29,0,29,0,,,,,,temelity,nw,h,upper,,,,,,,3,nw,LoDemNoTar,h,1,0.5572771681909217,,,,,,,,,,,,,,,,,,,,303,2023-11-16_15h27.49.986,leap3,2022.2.5,59.98924423594591,
,,,,,,,,,,,,,,,,,,,,14,0,14,0,,,,,,,,,,,,,,,,,,,,,,,,,,,NA,,,,,,,,,,,,,,,,,,303,2023-11-16_15h27.49.986,leap3,2022.2.5,59.98924423594591,
,,,,,,,,,,,,,,,,,,,,15,0,15,0,0,0,0,0,,,,,,bickering,w,g,upper,,,,,,,3,w,LoDemNoTar,g,1,0.7555428977066185,,,,,,,,,,,,,,,,,,,,303,2023-11-16_15h27.49.986,leap3,2022.2.5,59.98924423594591,
,,,,,,,,,,,,,,,,,,,,15,0,15,0,1,0,1,0,,,,,,rocket,w,g,upper,,,,,,,3,w,LoDemNoTar,g,1,0.4041765439324081,,,,,,,,,,,,,,,,,,,,303,2023-11-16_15h27.49.986,leap3,2022.2.5,59.98924423594591,
,,,,,,,,,,,,,,,,,,,,15,0,15,0,2,0,2,0,,,,,,befriend,w,g,upper,,,,,,,3,w,LoDemNoTar,g,1,0.5707837474765256,,,,,,,,,,,,,,,,,,,,303,2023-11-16_15h27.49.986,leap3,2022.2.5,59.98924423594591,
,,,,,,,,,,,,,,,,,,,,15,0,15,0,3,0,3,0,,,,,,rillains,nw,h,upper,,,,,,,3,nw,LoDemNoTar,h,1,0.6340766519278986,,,,,,,,,,,,,,,,,,,,303,2023-11-16_15h27.49.986,leap3,2022.2.5,59.98924423594591,
,,,,,,,,,,,,,,,,,,,,15,0,15,0,4,0,4,0,,,,,,sorping,nw,h,upper,,,,,,,3,nw,LoDemNoTar,h,1,0.5906266199599486,,,,,,,,,,,,,,,,,,,,303,2023-11-16_15h27.49.986,leap3,2022.2.5,59.98924423594591,
,,,,,,,,,,,,,,,,,,,,15,0,15,0,5,0,5,0,,,,,,prawls,nw,h,upper,,,,,,,3,nw,LoDemNoTar,h,1,0.5012387640890665,,,,,,,,,,,,,,,,,,,,303,2023-11-16_15h27.49.986,leap3,2022.2.5,59.98924423594591,
,,,,,,,,,,,,,,,,,,,,15,0,15,0,6,0,6,0,,,,,,fudden,nw,h,upper,,,,,,,3,nw,LoDemNoTar,h,1,0.607274179943488,,,,,,,,,,,,,,,,,,,,303,2023-11-16_15h27.49.986,leap3,2022.2.5,59.98924423594591,
,,,,,,,,,,,,,,,,,,,,15,0,15,0,7,0,7,0,,,,,,endgume,nw,h,upper,,,,,,,3,nw,LoDemNoTar,h,1,0.7011145254073199,,,,,,,,,,,,,,,,,,,,303,2023-11-16_15h27.49.986,leap3,2022.2.5,59.98924423594591,
,,,,,,,,,,,,,,,,,,,,15,0,15,0,8,0,8,0,,,,,,result,w,g,upper,,,,,,,3,w,LoDemNoTar,g,1,0.5271311786927981,,,,,,,,,,,,,,,,,,,,303,2023-11-16_15h27.49.986,leap3,2022.2.5,59.98924423594591,
,,,,,,,,,,,,,,,,,,,,15,0,15,0,9,0,9,0,,,,,,bureaug,nw,h,upper,,,,,,,3,nw,LoDemNoTar,h,1,0.5515430522355018,,,,,,,,,,,,,,,,,,,,303,2023-11-16_15h27.49.986,leap3,2022.2.5,59.98924423594591,
,,,,,,,,,,,,,,,,,,,,15,0,15,0,10,0,10,0,,,,,,thacked,nw,h,upper,,,,,,,3,nw,LoDemNoTar,h,1,0.4874662609072402,,,,,,,,,,,,,,,,,,,,303,2023-11-16_15h27.49.986,leap3,2022.2.5,59.98924423594591,
,,,,,,,,,,,,,,,,,,,,15,0,15,0,11,0,11,0,,,,,,charcoal,w,g,upper,,,,,,,3,w,LoDemNoTar,g,1,0.7220639551815111,,,,,,,,,,,,,,,,,,,,303,2023-11-16_15h27.49.986,leap3,2022.2.5,59.98924423594591,
,,,,,,,,,,,,,,,,,,,,15,0,15,0,12,0,12,0,,,,,,mullet,w,g,upper,,,,,,,3,w,LoDemNoTar,g,1,1.1633856301341439,,,,,,,,,,,,,,,,,,,,303,2023-11-16_15h27.49.986,leap3,2022.2.5,59.98924423594591,
,,,,,,,,,,,,,,,,,,,,15,0,15,0,13,0,13,0,,,,,,eggays,nw,h,upper,,,,,,,3,nw,LoDemNoTar,h,1,0.683360709954286,,,,,,,,,,,,,,,,,,,,303,2023-11-16_15h27.49.986,leap3,2022.2.5,59.98924423594591,
,,,,,,,,,,,,,,,,,,,,15,0,15,0,14,0,14,0,,,,,,sazer,nw,h,upper,,,,,,,3,nw,LoDemNoTar,h,1,0.47864760892116465,,,,,,,,,,,,,,,,,,,,303,2023-11-16_15h27.49.986,leap3,2022.2.5,59.98924423594591,
,,,,,,,,,,,,,,,,,,,,15,0,15,0,15,0,15,0,,,,,,nelvet,nw,h,upper,,,,,,,3,nw,LoDemNoTar,h,1,0.45799066523613874,,,,,,,,,,,,,,,,,,,,303,2023-11-16_15h27.49.986,leap3,2022.2.5,59.98924423594591,
,,,,,,,,,,,,,,,,,,,,15,0,15,0,16,0,16,0,,,,,,inverted,w,g,upper,,,,,,,3,w,LoDemNoTar,g,1,0.5179792917770101,,,,,,,,,,,,,,,,,,,,303,2023-11-16_15h27.49.986,leap3,2022.2.5,59.98924423594591,
,,,,,,,,,,,,,,,,,,,,15,0,15,0,17,0,17,0,,,,,,inversion,w,g,upper,,,,,,,3,w,LoDemNoTar,g,1,0.4223632025823463,,,,,,,,,,,,,,,,,,,,303,2023-11-16_15h27.49.986,leap3,2022.2.5,59.98924423594591,
,,,,,,,,,,,,,,,,,,,,15,0,15,0,18,0,18,0,,,,,,destroy,w,g,upper,,,,,,,3,w,LoDemNoTar,g,1,0.4516130194970174,,,,,,,,,,,,,,,,,,,,303,2023-11-16_15h27.49.986,leap3,2022.2.5,59.98924423594591,
,,,,,,,,,,,,,,,,,,,,15,0,15,0,19,0,19,0,,,,,,recollect,w,g,upper,,,,,,,3,w,LoDemNoTar,g,1,0.615589659253601,,,,,,,,,,,,,,,,,,,,303,2023-11-16_15h27.49.986,leap3,2022.2.5,59.98924423594591,
,,,,,,,,,,,,,,,,,,,,15,0,15,0,20,0,20,0,,,,,,warden,w,g,upper,,,,,,,3,w,LoDemNoTar,g,1,0.5654954539786559,,,,,,,,,,,,,,,,,,,,303,2023-11-16_15h27.49.986,leap3,2022.2.5,59.98924423594591,
,,,,,,,,,,,,,,,,,,,,15,0,15,0,21,0,21,0,,,,,,distrust,w,g,upper,,,,,,,3,w,LoDemNoTar,g,1,0.4695168510370422,,,,,,,,,,,,,,,,,,,,303,2023-11-16_15h27.49.986,leap3,2022.2.5,59.98924423594591,
,,,,,,,,,,,,,,,,,,,,15,0,15,0,22,0,22,0,,,,,,mubby,nw,h,upper,,,,,,,3,nw,LoDemNoTar,h,1,0.6968395196454367,,,,,,,,,,,,,,,,,,,,303,2023-11-16_15h27.49.986,leap3,2022.2.5,59.98924423594591,
,,,,,,,,,,,,,,,,,,,,15,0,15,0,23,0,23,0,,,,,,divider,w,g,upper,,,,,,,3,w,LoDemNoTar,g,1,1.5154721818689723,,,,,,,,,,,,,,,,,,,,303,2023-11-16_15h27.49.986,leap3,2022.2.5,59.98924423594591,
,,,,,,,,,,,,,,,,,,,,15,0,15,0,24,0,24,0,,,,,,disease,w,g,upper,,,,,,,3,w,LoDemNoTar,g,1,0.5002251744881505,,,,,,,,,,,,,,,,,,,,303,2023-11-16_15h27.49.986,leap3,2022.2.5,59.98924423594591,
,,,,,,,,,,,,,,,,,,,,15,0,15,0,25,0,25,0,,,,,,alticles,nw,h,upper,,,,,,,3,nw,LoDemNoTar,h,1,0.6712127270875499,,,,,,,,,,,,,,,,,,,,303,2023-11-16_15h27.49.986,leap3,2022.2.5,59.98924423594591,
,,,,,,,,,,,,,,,,,,,,15,0,15,0,26,0,26,0,,,,,,olerates,nw,h,upper,,,,,,,3,nw,LoDemNoTar,h,1,0.7782309445319697,,,,,,,,,,,,,,,,,,,,303,2023-11-16_15h27.49.986,leap3,2022.2.5,59.98924423594591,
,,,,,,,,,,,,,,,,,,,,15,0,15,0,27,0,27,0,,,,,,spigat,nw,h,upper,,,,,,,3,nw,LoDemNoTar,h,1,0.5066242510947632,,,,,,,,,,,,,,,,,,,,303,2023-11-16_15h27.49.986,leap3,2022.2.5,59.98924423594591,
,,,,,,,,,,,,,,,,,,,,15,0,15,0,28,0,28,0,,,,,,booster,w,g,upper,,,,,,,3,w,LoDemNoTar,g,1,0.6676853870303603,,,,,,,,,,,,,,,,,,,,303,2023-11-16_15h27.49.986,leap3,2022.2.5,59.98924423594591,
,,,,,,,,,,,,,,,,,,,,15,0,15,0,29,0,29,0,,,,,,farochial,nw,h,upper,,,,,,,3,nw,LoDemNoTar,h,1,0.6629464482248295,,,,,,,,,,,,,,,,,,,,303,2023-11-16_15h27.49.986,leap3,2022.2.5,59.98924423594591,
,,,,,,,,,,,,,,,,,,,,15,0,15,0,,,,,,,,,,,,,,,,,,,,,,,,,,,NA,,,,,,,,,,,,,,,,,,303,2023-11-16_15h27.49.986,leap3,2022.2.5,59.98924423594591,
,,,,,,,,,,,,,,,,,,,,16,0,16,0,0,0,0,0,,,,,,cogantly,nw,h,upper,,,,,,,3,nw,LoDemNoTar,h,1,0.5713835099886637,,,,,,,,,,,,,,,,,,,,303,2023-11-16_15h27.49.986,leap3,2022.2.5,59.98924423594591,
,,,,,,,,,,,,,,,,,,,,16,0,16,0,1,0,1,0,,,,,,garment,w,g,upper,,,,,,,3,w,LoDemNoTar,g,1,0.7297742388036568,,,,,,,,,,,,,,,,,,,,303,2023-11-16_15h27.49.986,leap3,2022.2.5,59.98924423594591,
,,,,,,,,,,,,,,,,,,,,16,0,16,0,2,0,2,0,,,,,,miability,nw,h,upper,,,,,,,3,nw,LoDemNoTar,h,1,0.564023666374851,,,,,,,,,,,,,,,,,,,,303,2023-11-16_15h27.49.986,leap3,2022.2.5,59.98924423594591,
,,,,,,,,,,,,,,,,,,,,16,0,16,0,3,0,3,0,,,,,,stalemate,w,g,upper,,,,,,,3,w,LoDemNoTar,g,1,0.5789652084058616,,,,,,,,,,,,,,,,,,,,303,2023-11-16_15h27.49.986,leap3,2022.2.5,59.98924423594591,
,,,,,,,,,,,,,,,,,,,,16,0,16,0,4,0,4,0,,,,,,gepealed,nw,h,upper,,,,,,,3,nw,LoDemNoTar,h,1,0.56229229355813,,,,,,,,,,,,,,,,,,,,303,2023-11-16_15h27.49.986,leap3,2022.2.5,59.98924423594591,
