demoRace_loop.thisRepN,demoRace_loop.thisTrialN,demoRace_loop.thisN,demoRace_loop.thisIndex,LDTunderstand.thisRepN,LDTunderstand.thisTrialN,LDTunderstand.thisN,LDTunderstand.thisIndex,pracBlocks.thisRepN,pracBlocks.thisTrialN,pracBlocks.thisN,pracBlocks.thisIndex,pracTrial.thisRepN,pracTrial.thisTrialN,pracTrial.thisN,pracTrial.thisIndex,PMunderstand.thisRepN,PMunderstand.thisTrialN,PMunderstand.thisN,PMunderstand.thisIndex,LDT_block.thisRepN,LDT_block.thisTrialN,LDT_block.thisN,LDT_block.thisIndex,LDT_trial.thisRepN,LDT_trial.thisTrialN,LDT_trial.thisN,LDT_trial.thisIndex,ageTextbox.text,genderTextbox.text,race,raceResp,LDTunderstand,stim,word_type,corr_key,stim_location,LDTpracKey.keys,LDTpracKey.corr,LDTpracKey.rt,PMunderstand,cueTextbox.text,intentionTextbox.text,block_type,role,block_desc,LDTResp.keys,LDTResp.corr,LDTResp.rt,pressedQ,PM_accuracy,postQ1,Q2Textbox.text,Q3Textbox.text,Q4,Q5,Q6Key.keys,Q6Key.rt,postQ7_correct,postQ7,Q8Textbox.text,education,medTextbox.text,health,healthLimit,psych,participant,date,expName,psychopyVersion,frameRate,
0,0,0,0,,,,,,,,,,,,,,,,,,,,,,,,,"
18", Female,American Indian or Alaska Native,n,,,,,,,,,,,,,,,,,,,,,,,,,,,,,,,,,,,304,2023-11-16_16h27.20.073,leap3,2022.2.5,60.020544437665095,
1,0,1,0,,,,,,,,,,,,,,,,,,,,,,,,,,,Asian,n,,,,,,,,,,,,,,,,,,,,,,,,,,,,,,,,,,,304,2023-11-16_16h27.20.073,leap3,2022.2.5,60.020544437665095,
2,0,2,0,,,,,,,,,,,,,,,,,,,,,,,,,,,Black or African American,n,,,,,,,,,,,,,,,,,,,,,,,,,,,,,,,,,,,304,2023-11-16_16h27.20.073,leap3,2022.2.5,60.020544437665095,
3,0,3,0,,,,,,,,,,,,,,,,,,,,,,,,,,,Native Hawaiian or other Pacific Islander,n,,,,,,,,,,,,,,,,,,,,,,,,,,,,,,,,,,,304,2023-11-16_16h27.20.073,leap3,2022.2.5,60.020544437665095,
4,0,4,0,,,,,,,,,,,,,,,,,,,,,,,,,,,White,n,,,,,,,,,,,,,,,,,,,,,,,,,,,,,,,,,,,304,2023-11-16_16h27.20.073,leap3,2022.2.5,60.020544437665095,
,,,,0,0,0,0,,,,,,,,,,,,,,,,,,,,,,,,,y,,,,,,,,,,,,,,,,,,,,,,,,,,,,,,,,,,304,2023-11-16_16h27.20.073,leap3,2022.2.5,60.020544437665095,
,,,,,,,,0,0,0,0,0,0,0,0,,,,,,,,,,,,,,,,,,grocus,nw,h,upper,h,1,1.0462479319539852,,,,,,,,,,,,,,,,,,,,,,,,,,,304,2023-11-16_16h27.20.073,leap3,2022.2.5,60.020544437665095,
,,,,,,,,0,0,0,0,1,0,1,0,,,,,,,,,,,,,,,,,,lumbigo,nw,h,upper,h,1,0.92968754429603,,,,,,,,,,,,,,,,,,,,,,,,,,,304,2023-11-16_16h27.20.073,leap3,2022.2.5,60.020544437665095,
,,,,,,,,0,0,0,0,2,0,2,0,,,,,,,,,,,,,,,,,,raestro,nw,h,upper,g,0,0.6596525486093014,,,,,,,,,,,,,,,,,,,,,,,,,,,304,2023-11-16_16h27.20.073,leap3,2022.2.5,60.020544437665095,
,,,,,,,,0,0,0,0,3,0,3,0,,,,,,,,,,,,,,,,,,grimace,w,g,upper,g,1,0.6000747306679841,,,,,,,,,,,,,,,,,,,,,,,,,,,304,2023-11-16_16h27.20.073,leap3,2022.2.5,60.020544437665095,
,,,,,,,,0,0,0,0,4,0,4,0,,,,,,,,,,,,,,,,,,tricycle,w,g,upper,g,1,0.5098489579686429,,,,,,,,,,,,,,,,,,,,,,,,,,,304,2023-11-16_16h27.20.073,leap3,2022.2.5,60.020544437665095,
,,,,,,,,0,0,0,0,5,0,5,0,,,,,,,,,,,,,,,,,,hasking,nw,h,upper,g,0,0.5985362357168924,,,,,,,,,,,,,,,,,,,,,,,,,,,304,2023-11-16_16h27.20.073,leap3,2022.2.5,60.020544437665095,
,,,,,,,,0,0,0,0,6,0,6,0,,,,,,,,,,,,,,,,,,alolition,nw,h,upper,h,1,0.9023613743192982,,,,,,,,,,,,,,,,,,,,,,,,,,,304,2023-11-16_16h27.20.073,leap3,2022.2.5,60.020544437665095,
,,,,,,,,0,0,0,0,7,0,7,0,,,,,,,,,,,,,,,,,,treeps,nw,h,upper,h,1,0.7585258281615097,,,,,,,,,,,,,,,,,,,,,,,,,,,304,2023-11-16_16h27.20.073,leap3,2022.2.5,60.020544437665095,
,,,,,,,,0,0,0,0,8,0,8,0,,,,,,,,,,,,,,,,,,overshoot,w,g,upper,g,1,0.6138686647173017,,,,,,,,,,,,,,,,,,,,,,,,,,,304,2023-11-16_16h27.20.073,leap3,2022.2.5,60.020544437665095,
,,,,,,,,0,0,0,0,9,0,9,0,,,,,,,,,,,,,,,,,,revival,w,g,upper,g,1,0.5102941767836455,,,,,,,,,,,,,,,,,,,,,,,,,,,304,2023-11-16_16h27.20.073,leap3,2022.2.5,60.020544437665095,
,,,,,,,,0,0,0,0,10,0,10,0,,,,,,,,,,,,,,,,,,picture,w,g,upper,g,1,0.472198541945545,,,,,,,,,,,,,,,,,,,,,,,,,,,304,2023-11-16_16h27.20.073,leap3,2022.2.5,60.020544437665095,
,,,,,,,,0,0,0,0,11,0,11,0,,,,,,,,,,,,,,,,,,curlecs,nw,h,upper,h,1,0.6344670508406125,,,,,,,,,,,,,,,,,,,,,,,,,,,304,2023-11-16_16h27.20.073,leap3,2022.2.5,60.020544437665095,
,,,,,,,,0,0,0,0,12,0,12,0,,,,,,,,,,,,,,,,,,infinity,w,g,upper,g,1,0.4861255888536107,,,,,,,,,,,,,,,,,,,,,,,,,,,304,2023-11-16_16h27.20.073,leap3,2022.2.5,60.020544437665095,
,,,,,,,,0,0,0,0,13,0,13,0,,,,,,,,,,,,,,,,,,summary,w,g,upper,g,1,0.4337059832760133,,,,,,,,,,,,,,,,,,,,,,,,,,,304,2023-11-16_16h27.20.073,leap3,2022.2.5,60.020544437665095,
,,,,,,,,0,0,0,0,,,,,,,,,,,,,,,,,,,,,,,,,,,,,,,,,,,,,,,,,,,,,,,,,,,,,,,304,2023-11-16_16h27.20.073,leap3,2022.2.5,60.020544437665095,
,,,,,,,,1,0,1,0,0,0,0,0,,,,,,,,,,,,,,,,,,crinklo,nw,h,lower,h,1,0.4875481760245748,,,,,,,,,,,,,,,,,,,,,,,,,,,304,2023-11-16_16h27.20.073,leap3,2022.2.5,60.020544437665095,
,,,,,,,,1,0,1,0,1,0,1,0,,,,,,,,,,,,,,,,,,trotch,nw,h,lower,h,1,0.6011652903107461,,,,,,,,,,,,,,,,,,,,,,,,,,,304,2023-11-16_16h27.20.073,leap3,2022.2.5,60.020544437665095,
,,,,,,,,1,0,1,0,2,0,2,0,,,,,,,,,,,,,,,,,,grutch,nw,h,lower,g,0,0.495157040306367,,,,,,,,,,,,,,,,,,,,,,,,,,,304,2023-11-16_16h27.20.073,leap3,2022.2.5,60.020544437665095,
,,,,,,,,1,0,1,0,3,0,3,0,,,,,,,,,,,,,,,,,,slumber,w,g,lower,g,1,0.4898258851026185,,,,,,,,,,,,,,,,,,,,,,,,,,,304,2023-11-16_16h27.20.073,leap3,2022.2.5,60.020544437665095,
,,,,,,,,1,0,1,0,4,0,4,0,,,,,,,,,,,,,,,,,,umpire,w,g,lower,g,1,0.5005057024827693,,,,,,,,,,,,,,,,,,,,,,,,,,,304,2023-11-16_16h27.20.073,leap3,2022.2.5,60.020544437665095,
,,,,,,,,1,0,1,0,5,0,5,0,,,,,,,,,,,,,,,,,,turative,nw,h,lower,g,0,0.8144205549033359,,,,,,,,,,,,,,,,,,,,,,,,,,,304,2023-11-16_16h27.20.073,leap3,2022.2.5,60.020544437665095,
,,,,,,,,1,0,1,0,6,0,6,0,,,,,,,,,,,,,,,,,,julled,nw,h,lower,h,1,0.5995498253032565,,,,,,,,,,,,,,,,,,,,,,,,,,,304,2023-11-16_16h27.20.073,leap3,2022.2.5,60.020544437665095,
,,,,,,,,1,0,1,0,7,0,7,0,,,,,,,,,,,,,,,,,,lurshing,nw,h,lower,h,1,0.6802038471505512,,,,,,,,,,,,,,,,,,,,,,,,,,,304,2023-11-16_16h27.20.073,leap3,2022.2.5,60.020544437665095,
,,,,,,,,1,0,1,0,8,0,8,0,,,,,,,,,,,,,,,,,,unscrew,w,g,lower,g,1,0.49166863804566674,,,,,,,,,,,,,,,,,,,,,,,,,,,304,2023-11-16_16h27.20.073,leap3,2022.2.5,60.020544437665095,
,,,,,,,,1,0,1,0,9,0,9,0,,,,,,,,,,,,,,,,,,busted,w,g,lower,g,1,0.5192079093540087,,,,,,,,,,,,,,,,,,,,,,,,,,,304,2023-11-16_16h27.20.073,leap3,2022.2.5,60.020544437665095,
,,,,,,,,1,0,1,0,10,0,10,0,,,,,,,,,,,,,,,,,,reputable,w,g,lower,g,1,0.4645386661577504,,,,,,,,,,,,,,,,,,,,,,,,,,,304,2023-11-16_16h27.20.073,leap3,2022.2.5,60.020544437665095,
,,,,,,,,1,0,1,0,11,0,11,0,,,,,,,,,,,,,,,,,,latador,nw,h,lower,h,1,0.5805207222001627,,,,,,,,,,,,,,,,,,,,,,,,,,,304,2023-11-16_16h27.20.073,leap3,2022.2.5,60.020544437665095,
,,,,,,,,1,0,1,0,12,0,12,0,,,,,,,,,,,,,,,,,,sponsor,w,g,lower,g,1,0.47490939605631866,,,,,,,,,,,,,,,,,,,,,,,,,,,304,2023-11-16_16h27.20.073,leap3,2022.2.5,60.020544437665095,
,,,,,,,,1,0,1,0,13,0,13,0,,,,,,,,,,,,,,,,,,hiring,w,g,lower,g,1,0.4542352473072242,,,,,,,,,,,,,,,,,,,,,,,,,,,304,2023-11-16_16h27.20.073,leap3,2022.2.5,60.020544437665095,
,,,,,,,,1,0,1,0,,,,,,,,,,,,,,,,,,,,,,,,,,,,,,,,,,,,,,,,,,,,,,,,,,,,,,,304,2023-11-16_16h27.20.073,leap3,2022.2.5,60.020544437665095,
,,,,,,,,,,,,,,,,0,0,0,0,,,,,,,,,,,,,,,,,,,,,y,,,,,,,,,,,,,,,,,,,,,,,,,,304,2023-11-16_16h27.20.073,leap3,2022.2.5,60.020544437665095,
,,,,,,,,,,,,,,,,,,,,0,0,0,0,0,0,0,0,,,,,,digested,w,g,upper,,,,,animal,"
q",1,w,HiDemTar,g,1,0.7704779147752561,,,,,,,,,,,,,,,,,,304,2023-11-16_16h27.20.073,leap3,2022.2.5,60.020544437665095,
,,,,,,,,,,,,,,,,,,,,0,0,0,0,1,0,1,0,,,,,,nimono,nw,h,upper,,,,,,,1,nw,HiDemTar,h,1,0.6823031668609474,,,,,,,,,,,,,,,,,,304,2023-11-16_16h27.20.073,leap3,2022.2.5,60.020544437665095,
,,,,,,,,,,,,,,,,,,,,0,0,0,0,2,0,2,0,,,,,,fillings,w,g,upper,,,,,,,1,w,HiDemTar,g,1,0.6463137941609602,,,,,,,,,,,,,,,,,,304,2023-11-16_16h27.20.073,leap3,2022.2.5,60.020544437665095,
,,,,,,,,,,,,,,,,,,,,0,0,0,0,3,0,3,0,,,,,,irfirm,nw,h,upper,,,,,,,1,nw,HiDemTar,h,1,0.8115762860688847,,,,,,,,,,,,,,,,,,304,2023-11-16_16h27.20.073,leap3,2022.2.5,60.020544437665095,
,,,,,,,,,,,,,,,,,,,,0,0,0,0,4,0,4,0,,,,,,neuran,nw,h,upper,,,,,,,1,nw,HiDemTar,h,1,0.8573363243485801,,,,,,,,,,,,,,,,,,304,2023-11-16_16h27.20.073,leap3,2022.2.5,60.020544437665095,
,,,,,,,,,,,,,,,,,,,,0,0,0,0,5,0,5,0,,,,,,bellicove,nw,h,upper,,,,,,,1,nw,HiDemTar,h,1,0.8939538327977061,,,,,,,,,,,,,,,,,,304,2023-11-16_16h27.20.073,leap3,2022.2.5,60.020544437665095,
,,,,,,,,,,,,,,,,,,,,0,0,0,0,6,0,6,0,,,,,,become,w,g,upper,,,,,,,1,w,HiDemTar,g,1,0.57717237516772,,,,,,,,,,,,,,,,,,304,2023-11-16_16h27.20.073,leap3,2022.2.5,60.020544437665095,
,,,,,,,,,,,,,,,,,,,,0,0,0,0,7,0,7,0,,,,,,even,w,g,upper,,,,,,,1,w,HiDemTar,g,1,0.5931525597698055,,,,,,,,,,,,,,,,,,304,2023-11-16_16h27.20.073,leap3,2022.2.5,60.020544437665095,
,,,,,,,,,,,,,,,,,,,,0,0,0,0,8,0,8,0,,,,,,filny,nw,h,upper,,,,,,,1,nw,HiDemTar,h,1,0.7204736587882508,,,,,,,,,,,,,,,,,,304,2023-11-16_16h27.20.073,leap3,2022.2.5,60.020544437665095,
,,,,,,,,,,,,,,,,,,,,0,0,0,0,9,0,9,0,,,,,,acorn,w,g,upper,,,,,,,1,w,HiDemTar,g,1,0.7464626632572617,,,,,,,,,,,,,,,,,,304,2023-11-16_16h27.20.073,leap3,2022.2.5,60.020544437665095,
,,,,,,,,,,,,,,,,,,,,0,0,0,0,10,0,10,0,,,,,,porcupine,target,q,upper,,,,,,,1,target,HiDemTar,q,1,0.5958323240047321,1,,,,,,,,,,,,,,,,,304,2023-11-16_16h27.20.073,leap3,2022.2.5,60.020544437665095,
,,,,,,,,,,,,,,,,,,,,0,0,0,0,11,0,11,0,,,,,,legalize,w,g,upper,,,,,,,1,aftertar1,HiDemTar,g,1,0.625615497934632,,,,,,,,,,,,,,,,,,304,2023-11-16_16h27.20.073,leap3,2022.2.5,60.020544437665095,
,,,,,,,,,,,,,,,,,,,,0,0,0,0,12,0,12,0,,,,,,olgies,nw,h,upper,,,,,,,1,aftertar2,HiDemTar,h,1,0.6810894552327227,,,,,,,,,,,,,,,,,,304,2023-11-16_16h27.20.073,leap3,2022.2.5,60.020544437665095,
,,,,,,,,,,,,,,,,,,,,0,0,0,0,13,0,13,0,,,,,,gaioty,nw,h,upper,,,,,,,1,aftertar3,HiDemTar,h,1,0.7241138881945517,,,,,,,,,,,,,,,,,,304,2023-11-16_16h27.20.073,leap3,2022.2.5,60.020544437665095,
,,,,,,,,,,,,,,,,,,,,0,0,0,0,14,0,14,0,,,,,,blocking,w,g,upper,,,,,,,1,nw,HiDemTar,g,1,0.4702033581852447,,,,,,,,,,,,,,,,,,304,2023-11-16_16h27.20.073,leap3,2022.2.5,60.020544437665095,
,,,,,,,,,,,,,,,,,,,,0,0,0,0,15,0,15,0,,,,,,asclibed,nw,h,upper,,,,,,,1,w,HiDemTar,h,1,0.7380385203869082,,,,,,,,,,,,,,,,,,304,2023-11-16_16h27.20.073,leap3,2022.2.5,60.020544437665095,
,,,,,,,,,,,,,,,,,,,,0,0,0,0,16,0,16,0,,,,,,atabaster,nw,h,upper,,,,,,,1,nw,HiDemTar,h,1,0.6513494448445272,,,,,,,,,,,,,,,,,,304,2023-11-16_16h27.20.073,leap3,2022.2.5,60.020544437665095,
,,,,,,,,,,,,,,,,,,,,0,0,0,0,17,0,17,0,,,,,,subber,nw,h,upper,,,,,,,1,nw,HiDemTar,h,1,0.7759778003674,,,,,,,,,,,,,,,,,,304,2023-11-16_16h27.20.073,leap3,2022.2.5,60.020544437665095,
,,,,,,,,,,,,,,,,,,,,0,0,0,0,18,0,18,0,,,,,,drine,nw,h,upper,,,,,,,1,nw,HiDemTar,h,1,0.7199566013296135,,,,,,,,,,,,,,,,,,304,2023-11-16_16h27.20.073,leap3,2022.2.5,60.020544437665095,
,,,,,,,,,,,,,,,,,,,,0,0,0,0,19,0,19,0,,,,,,mandate,w,g,upper,,,,,,,1,nw,HiDemTar,g,1,0.6739315447339322,,,,,,,,,,,,,,,,,,304,2023-11-16_16h27.20.073,leap3,2022.2.5,60.020544437665095,
,,,,,,,,,,,,,,,,,,,,0,0,0,0,20,0,20,0,,,,,,earterner,nw,h,upper,,,,,,,1,w,HiDemTar,h,1,0.9659002810076345,,,,,,,,,,,,,,,,,,304,2023-11-16_16h27.20.073,leap3,2022.2.5,60.020544437665095,
,,,,,,,,,,,,,,,,,,,,0,0,0,0,21,0,21,0,,,,,,system,w,g,upper,,,,,,,1,nw,HiDemTar,g,1,0.6453998128417879,,,,,,,,,,,,,,,,,,304,2023-11-16_16h27.20.073,leap3,2022.2.5,60.020544437665095,
,,,,,,,,,,,,,,,,,,,,0,0,0,0,22,0,22,0,,,,,,disuse,w,g,upper,,,,,,,1,w,HiDemTar,h,0,0.6820423743047286,,,,,,,,,,,,,,,,,,304,2023-11-16_16h27.20.073,leap3,2022.2.5,60.020544437665095,
,,,,,,,,,,,,,,,,,,,,0,0,0,0,23,0,23,0,,,,,,dominion,w,g,upper,,,,,,,1,w,HiDemTar,g,1,0.8786295535683166,,,,,,,,,,,,,,,,,,304,2023-11-16_16h27.20.073,leap3,2022.2.5,60.020544437665095,
,,,,,,,,,,,,,,,,,,,,0,0,0,0,24,0,24,0,,,,,,trake,nw,h,upper,,,,,,,1,w,HiDemTar,h,1,0.7947029473725706,,,,,,,,,,,,,,,,,,304,2023-11-16_16h27.20.073,leap3,2022.2.5,60.020544437665095,
,,,,,,,,,,,,,,,,,,,,0,0,0,0,25,0,25,0,,,,,,female,w,g,upper,,,,,,,1,nw,HiDemTar,g,1,0.7380161839828361,,,,,,,,,,,,,,,,,,304,2023-11-16_16h27.20.073,leap3,2022.2.5,60.020544437665095,
,,,,,,,,,,,,,,,,,,,,0,0,0,0,26,0,26,0,,,,,,menarthe,nw,h,upper,,,,,,,1,w,HiDemTar,h,1,0.7313397134130355,,,,,,,,,,,,,,,,,,304,2023-11-16_16h27.20.073,leap3,2022.2.5,60.020544437665095,
,,,,,,,,,,,,,,,,,,,,0,0,0,0,27,0,27,0,,,,,,ipiocy,nw,h,upper,,,,,,,1,nw,HiDemTar,h,1,0.7253719708241988,,,,,,,,,,,,,,,,,,304,2023-11-16_16h27.20.073,leap3,2022.2.5,60.020544437665095,
,,,,,,,,,,,,,,,,,,,,0,0,0,0,28,0,28,0,,,,,,remain,w,g,upper,,,,,,,1,nw,HiDemTar,g,1,0.6953147232416086,,,,,,,,,,,,,,,,,,304,2023-11-16_16h27.20.073,leap3,2022.2.5,60.020544437665095,
,,,,,,,,,,,,,,,,,,,,0,0,0,0,29,0,29,0,,,,,,overflow,w,g,upper,,,,,,,1,w,HiDemTar,g,1,0.6186471449909732,,,,,,,,,,,,,,,,,,304,2023-11-16_16h27.20.073,leap3,2022.2.5,60.020544437665095,
,,,,,,,,,,,,,,,,,,,,0,0,0,0,,,,,,,,,,,,,,,,,,,,,,,,,,,1,,,,,,,,,,,,,,,,304,2023-11-16_16h27.20.073,leap3,2022.2.5,60.020544437665095,
,,,,,,,,,,,,,,,,,,,,1,0,1,0,0,0,0,0,,,,,,gestalion,nw,h,upper,,,,,,,1,nw,HiDemTar,h,1,0.9034742703370284,,,,,,,,,,,,,,,,,,304,2023-11-16_16h27.20.073,leap3,2022.2.5,60.020544437665095,
,,,,,,,,,,,,,,,,,,,,1,0,1,0,1,0,1,0,,,,,,movie,w,g,upper,,,,,,,1,w,HiDemTar,g,1,0.5379804457479622,,,,,,,,,,,,,,,,,,304,2023-11-16_16h27.20.073,leap3,2022.2.5,60.020544437665095,
,,,,,,,,,,,,,,,,,,,,1,0,1,0,2,0,2,0,,,,,,fonducts,nw,h,upper,,,,,,,1,nw,HiDemTar,h,1,0.6193259904393926,,,,,,,,,,,,,,,,,,304,2023-11-16_16h27.20.073,leap3,2022.2.5,60.020544437665095,
,,,,,,,,,,,,,,,,,,,,1,0,1,0,3,0,3,0,,,,,,forfeit,w,g,upper,,,,,,,1,w,HiDemTar,g,1,0.6012869331461843,,,,,,,,,,,,,,,,,,304,2023-11-16_16h27.20.073,leap3,2022.2.5,60.020544437665095,
,,,,,,,,,,,,,,,,,,,,1,0,1,0,4,0,4,0,,,,,,presence,w,g,upper,,,,,,,1,w,HiDemTar,g,1,0.5439693173684645,,,,,,,,,,,,,,,,,,304,2023-11-16_16h27.20.073,leap3,2022.2.5,60.020544437665095,
,,,,,,,,,,,,,,,,,,,,1,0,1,0,5,0,5,0,,,,,,forecast,w,g,upper,,,,,,,1,w,HiDemTar,g,1,0.4972883554000873,,,,,,,,,,,,,,,,,,304,2023-11-16_16h27.20.073,leap3,2022.2.5,60.020544437665095,
,,,,,,,,,,,,,,,,,,,,1,0,1,0,6,0,6,0,,,,,,eyesight,w,g,upper,,,,,,,1,w,HiDemTar,g,1,0.4285586506011896,,,,,,,,,,,,,,,,,,304,2023-11-16_16h27.20.073,leap3,2022.2.5,60.020544437665095,
,,,,,,,,,,,,,,,,,,,,1,0,1,0,7,0,7,0,,,,,,ufionize,nw,h,upper,,,,,,,1,nw,HiDemTar,h,1,0.6336436225101352,,,,,,,,,,,,,,,,,,304,2023-11-16_16h27.20.073,leap3,2022.2.5,60.020544437665095,
,,,,,,,,,,,,,,,,,,,,1,0,1,0,8,0,8,0,,,,,,burrowing,w,g,upper,,,,,,,1,w,HiDemTar,g,1,0.4795097887981683,,,,,,,,,,,,,,,,,,304,2023-11-16_16h27.20.073,leap3,2022.2.5,60.020544437665095,
,,,,,,,,,,,,,,,,,,,,1,0,1,0,9,0,9,0,,,,,,nauling,nw,h,upper,,,,,,,1,nw,HiDemTar,h,1,0.6595173228415661,,,,,,,,,,,,,,,,,,304,2023-11-16_16h27.20.073,leap3,2022.2.5,60.020544437665095,
,,,,,,,,,,,,,,,,,,,,1,0,1,0,10,0,10,0,,,,,,jinds,nw,h,upper,,,,,,,1,nw,HiDemTar,h,1,0.6161705212434754,,,,,,,,,,,,,,,,,,304,2023-11-16_16h27.20.073,leap3,2022.2.5,60.020544437665095,
,,,,,,,,,,,,,,,,,,,,1,0,1,0,11,0,11,0,,,,,,envelop,w,g,upper,,,,,,,1,w,HiDemTar,g,1,0.5815421596926171,,,,,,,,,,,,,,,,,,304,2023-11-16_16h27.20.073,leap3,2022.2.5,60.020544437665095,
,,,,,,,,,,,,,,,,,,,,1,0,1,0,12,0,12,0,,,,,,flamingo,target,q,upper,,,,,,,1,target,HiDemTar,q,1,0.5017894417396747,1,,,,,,,,,,,,,,,,,304,2023-11-16_16h27.20.073,leap3,2022.2.5,60.020544437665095,
,,,,,,,,,,,,,,,,,,,,1,0,1,0,13,0,13,0,,,,,,curricula,w,g,upper,,,,,,,1,aftertar1,HiDemTar,h,0,0.7770312332722824,,,,,,,,,,,,,,,,,,304,2023-11-16_16h27.20.073,leap3,2022.2.5,60.020544437665095,
,,,,,,,,,,,,,,,,,,,,1,0,1,0,14,0,14,0,,,,,,surround,w,g,upper,,,,,,,1,aftertar2,HiDemTar,g,1,0.5934082209714688,,,,,,,,,,,,,,,,,,304,2023-11-16_16h27.20.073,leap3,2022.2.5,60.020544437665095,
,,,,,,,,,,,,,,,,,,,,1,0,1,0,15,0,15,0,,,,,,frigs,nw,h,upper,,,,,,,1,aftertar3,HiDemTar,h,1,0.6726837247842923,,,,,,,,,,,,,,,,,,304,2023-11-16_16h27.20.073,leap3,2022.2.5,60.020544437665095,
,,,,,,,,,,,,,,,,,,,,1,0,1,0,16,0,16,0,,,,,,mortgage,w,g,upper,,,,,,,1,nw,HiDemTar,g,1,0.8197966847801581,,,,,,,,,,,,,,,,,,304,2023-11-16_16h27.20.073,leap3,2022.2.5,60.020544437665095,
,,,,,,,,,,,,,,,,,,,,1,0,1,0,17,0,17,0,,,,,,bamps,nw,h,upper,,,,,,,1,w,HiDemTar,h,1,0.8177667890267912,,,,,,,,,,,,,,,,,,304,2023-11-16_16h27.20.073,leap3,2022.2.5,60.020544437665095,
,,,,,,,,,,,,,,,,,,,,1,0,1,0,18,0,18,0,,,,,,trooper,w,g,upper,,,,,,,1,nw,HiDemTar,g,1,0.5596126449236181,,,,,,,,,,,,,,,,,,304,2023-11-16_16h27.20.073,leap3,2022.2.5,60.020544437665095,
,,,,,,,,,,,,,,,,,,,,1,0,1,0,19,0,19,0,,,,,,overcoat,w,g,upper,,,,,,,1,w,HiDemTar,g,1,0.6562691877770703,,,,,,,,,,,,,,,,,,304,2023-11-16_16h27.20.073,leap3,2022.2.5,60.020544437665095,
,,,,,,,,,,,,,,,,,,,,1,0,1,0,20,0,20,0,,,,,,geborn,nw,h,upper,,,,,,,1,w,HiDemTar,h,1,0.5649190490075853,,,,,,,,,,,,,,,,,,304,2023-11-16_16h27.20.073,leap3,2022.2.5,60.020544437665095,
,,,,,,,,,,,,,,,,,,,,1,0,1,0,21,0,21,0,,,,,,lofty,w,g,upper,,,,,,,1,nw,HiDemTar,g,1,0.861533756396966,,,,,,,,,,,,,,,,,,304,2023-11-16_16h27.20.073,leap3,2022.2.5,60.020544437665095,
,,,,,,,,,,,,,,,,,,,,1,0,1,0,22,0,22,0,,,,,,farochial,nw,h,upper,,,,,,,1,w,HiDemTar,h,1,0.7381441655161325,,,,,,,,,,,,,,,,,,304,2023-11-16_16h27.20.073,leap3,2022.2.5,60.020544437665095,
,,,,,,,,,,,,,,,,,,,,1,0,1,0,23,0,23,0,,,,,,atch,nw,h,upper,,,,,,,1,nw,HiDemTar,h,1,0.643478278798284,,,,,,,,,,,,,,,,,,304,2023-11-16_16h27.20.073,leap3,2022.2.5,60.020544437665095,
,,,,,,,,,,,,,,,,,,,,1,0,1,0,24,0,24,0,,,,,,fatho,nw,h,upper,,,,,,,1,nw,HiDemTar,h,1,0.6009536982164718,,,,,,,,,,,,,,,,,,304,2023-11-16_16h27.20.073,leap3,2022.2.5,60.020544437665095,
,,,,,,,,,,,,,,,,,,,,1,0,1,0,25,0,25,0,,,,,,lignpost,nw,h,upper,,,,,,,1,nw,HiDemTar,h,1,0.7344604706740938,,,,,,,,,,,,,,,,,,304,2023-11-16_16h27.20.073,leap3,2022.2.5,60.020544437665095,
,,,,,,,,,,,,,,,,,,,,1,0,1,0,26,0,26,0,,,,,,tucker,w,g,upper,,,,,,,1,nw,HiDemTar,g,1,0.791743374458747,,,,,,,,,,,,,,,,,,304,2023-11-16_16h27.20.073,leap3,2022.2.5,60.020544437665095,
,,,,,,,,,,,,,,,,,,,,1,0,1,0,27,0,27,0,,,,,,otoist,nw,h,upper,,,,,,,1,w,HiDemTar,h,1,0.6150150653556921,,,,,,,,,,,,,,,,,,304,2023-11-16_16h27.20.073,leap3,2022.2.5,60.020544437665095,
,,,,,,,,,,,,,,,,,,,,1,0,1,0,28,0,28,0,,,,,,pripend,nw,h,upper,,,,,,,1,nw,HiDemTar,h,1,0.7097069105657283,,,,,,,,,,,,,,,,,,304,2023-11-16_16h27.20.073,leap3,2022.2.5,60.020544437665095,
,,,,,,,,,,,,,,,,,,,,1,0,1,0,29,0,29,0,,,,,,inverted,w,g,upper,,,,,,,1,nw,HiDemTar,g,1,0.7443452329316642,,,,,,,,,,,,,,,,,,304,2023-11-16_16h27.20.073,leap3,2022.2.5,60.020544437665095,
,,,,,,,,,,,,,,,,,,,,1,0,1,0,,,,,,,,,,,,,,,,,,,,,,,,,,,1,,,,,,,,,,,,,,,,304,2023-11-16_16h27.20.073,leap3,2022.2.5,60.020544437665095,
,,,,,,,,,,,,,,,,,,,,2,0,2,0,0,0,0,0,,,,,,fomrade,nw,h,upper,,,,,,,2,nw,HiDemNoTar,h,1,0.791302381461719,,,,,,,,,,,,,,,,,,304,2023-11-16_16h27.20.073,leap3,2022.2.5,60.020544437665095,
,,,,,,,,,,,,,,,,,,,,2,0,2,0,1,0,1,0,,,,,,lindo,nw,h,upper,,,,,,,2,nw,HiDemNoTar,h,1,0.6465012388071045,,,,,,,,,,,,,,,,,,304,2023-11-16_16h27.20.073,leap3,2022.2.5,60.020544437665095,
,,,,,,,,,,,,,,,,,,,,2,0,2,0,2,0,2,0,,,,,,kettle,w,g,upper,,,,,,,2,w,HiDemNoTar,g,1,0.5004887992399745,,,,,,,,,,,,,,,,,,304,2023-11-16_16h27.20.073,leap3,2022.2.5,60.020544437665095,
,,,,,,,,,,,,,,,,,,,,2,0,2,0,3,0,3,0,,,,,,party,w,g,upper,,,,,,,2,w,HiDemNoTar,g,1,0.44753281824523583,,,,,,,,,,,,,,,,,,304,2023-11-16_16h27.20.073,leap3,2022.2.5,60.020544437665095,
,,,,,,,,,,,,,,,,,,,,2,0,2,0,4,0,4,0,,,,,,bypassed,w,g,upper,,,,,,,2,w,HiDemNoTar,g,1,0.5810154432547279,,,,,,,,,,,,,,,,,,304,2023-11-16_16h27.20.073,leap3,2022.2.5,60.020544437665095,
,,,,,,,,,,,,,,,,,,,,2,0,2,0,5,0,5,0,,,,,,border,w,g,upper,,,,,,,2,w,HiDemNoTar,g,1,0.46896942300372757,,,,,,,,,,,,,,,,,,304,2023-11-16_16h27.20.073,leap3,2022.2.5,60.020544437665095,
,,,,,,,,,,,,,,,,,,,,2,0,2,0,6,0,6,0,,,,,,afternoon,w,g,upper,,,,,,,2,w,HiDemNoTar,g,1,0.4806981456349604,,,,,,,,,,,,,,,,,,304,2023-11-16_16h27.20.073,leap3,2022.2.5,60.020544437665095,
,,,,,,,,,,,,,,,,,,,,2,0,2,0,7,0,7,0,,,,,,disperse,w,g,upper,,,,,,,2,w,HiDemNoTar,g,1,0.5010737714474089,,,,,,,,,,,,,,,,,,304,2023-11-16_16h27.20.073,leap3,2022.2.5,60.020544437665095,
,,,,,,,,,,,,,,,,,,,,2,0,2,0,8,0,8,0,,,,,,rasuals,nw,h,upper,,,,,,,2,nw,HiDemNoTar,h,1,0.6636036765703466,,,,,,,,,,,,,,,,,,304,2023-11-16_16h27.20.073,leap3,2022.2.5,60.020544437665095,
,,,,,,,,,,,,,,,,,,,,2,0,2,0,9,0,9,0,,,,,,professor,w,g,upper,,,,,,,2,w,HiDemNoTar,g,1,0.5073711268778425,,,,,,,,,,,,,,,,,,304,2023-11-16_16h27.20.073,leap3,2022.2.5,60.020544437665095,
,,,,,,,,,,,,,,,,,,,,2,0,2,0,10,0,10,0,,,,,,remover,w,g,upper,,,,,,,2,w,HiDemNoTar,g,1,0.49489111645380035,,,,,,,,,,,,,,,,,,304,2023-11-16_16h27.20.073,leap3,2022.2.5,60.020544437665095,
,,,,,,,,,,,,,,,,,,,,2,0,2,0,11,0,11,0,,,,,,felevance,nw,h,upper,,,,,,,2,nw,HiDemNoTar,h,1,0.7451710760360584,,,,,,,,,,,,,,,,,,304,2023-11-16_16h27.20.073,leap3,2022.2.5,60.020544437665095,
,,,,,,,,,,,,,,,,,,,,2,0,2,0,12,0,12,0,,,,,,wrestle,w,g,upper,,,,,,,2,w,HiDemNoTar,g,1,0.5224765697785188,,,,,,,,,,,,,,,,,,304,2023-11-16_16h27.20.073,leap3,2022.2.5,60.020544437665095,
,,,,,,,,,,,,,,,,,,,,2,0,2,0,13,0,13,0,,,,,,walsams,nw,h,upper,,,,,,,2,nw,HiDemNoTar,h,1,0.6364477461611386,,,,,,,,,,,,,,,,,,304,2023-11-16_16h27.20.073,leap3,2022.2.5,60.020544437665095,
,,,,,,,,,,,,,,,,,,,,2,0,2,0,14,0,14,0,,,,,,fraft,nw,h,upper,,,,,,,2,nw,HiDemNoTar,h,1,0.5857643428898882,,,,,,,,,,,,,,,,,,304,2023-11-16_16h27.20.073,leap3,2022.2.5,60.020544437665095,
,,,,,,,,,,,,,,,,,,,,2,0,2,0,15,0,15,0,,,,,,suspect,w,g,upper,,,,,,,2,w,HiDemNoTar,g,1,0.6410152379830834,,,,,,,,,,,,,,,,,,304,2023-11-16_16h27.20.073,leap3,2022.2.5,60.020544437665095,
,,,,,,,,,,,,,,,,,,,,2,0,2,0,16,0,16,0,,,,,,cobalt,w,g,upper,,,,,,,2,w,HiDemNoTar,g,1,0.646364503831137,,,,,,,,,,,,,,,,,,304,2023-11-16_16h27.20.073,leap3,2022.2.5,60.020544437665095,
,,,,,,,,,,,,,,,,,,,,2,0,2,0,17,0,17,0,,,,,,facienda,nw,h,upper,,,,,,,2,nw,HiDemNoTar,h,1,0.7716363891377114,,,,,,,,,,,,,,,,,,304,2023-11-16_16h27.20.073,leap3,2022.2.5,60.020544437665095,
,,,,,,,,,,,,,,,,,,,,2,0,2,0,18,0,18,0,,,,,,veranpah,nw,h,upper,,,,,,,2,nw,HiDemNoTar,h,1,0.6036615338816773,,,,,,,,,,,,,,,,,,304,2023-11-16_16h27.20.073,leap3,2022.2.5,60.020544437665095,
,,,,,,,,,,,,,,,,,,,,2,0,2,0,19,0,19,0,,,,,,deceit,w,g,upper,,,,,,,2,w,HiDemNoTar,g,1,0.5853456863260362,,,,,,,,,,,,,,,,,,304,2023-11-16_16h27.20.073,leap3,2022.2.5,60.020544437665095,
,,,,,,,,,,,,,,,,,,,,2,0,2,0,20,0,20,0,,,,,,gund,nw,h,upper,,,,,,,2,nw,HiDemNoTar,h,1,0.656607855897164,,,,,,,,,,,,,,,,,,304,2023-11-16_16h27.20.073,leap3,2022.2.5,60.020544437665095,
,,,,,,,,,,,,,,,,,,,,2,0,2,0,21,0,21,0,,,,,,ebuating,nw,h,upper,,,,,,,2,nw,HiDemNoTar,h,1,0.9332559350295924,,,,,,,,,,,,,,,,,,304,2023-11-16_16h27.20.073,leap3,2022.2.5,60.020544437665095,
,,,,,,,,,,,,,,,,,,,,2,0,2,0,22,0,22,0,,,,,,dislokes,nw,h,upper,,,,,,,2,nw,HiDemNoTar,h,1,0.759220067615388,,,,,,,,,,,,,,,,,,304,2023-11-16_16h27.20.073,leap3,2022.2.5,60.020544437665095,
,,,,,,,,,,,,,,,,,,,,2,0,2,0,23,0,23,0,,,,,,undertake,w,g,upper,,,,,,,2,w,HiDemNoTar,g,1,0.6238629961153492,,,,,,,,,,,,,,,,,,304,2023-11-16_16h27.20.073,leap3,2022.2.5,60.020544437665095,
,,,,,,,,,,,,,,,,,,,,2,0,2,0,24,0,24,0,,,,,,acoustic,w,g,upper,,,,,,,2,w,HiDemNoTar,g,1,0.4938588125514798,,,,,,,,,,,,,,,,,,304,2023-11-16_16h27.20.073,leap3,2022.2.5,60.020544437665095,
,,,,,,,,,,,,,,,,,,,,2,0,2,0,25,0,25,0,,,,,,legalosm,nw,h,upper,,,,,,,2,nw,HiDemNoTar,h,1,0.6719019507872872,,,,,,,,,,,,,,,,,,304,2023-11-16_16h27.20.073,leap3,2022.2.5,60.020544437665095,
,,,,,,,,,,,,,,,,,,,,2,0,2,0,26,0,26,0,,,,,,befin,nw,h,upper,,,,,,,2,nw,HiDemNoTar,h,1,0.5958839391823858,,,,,,,,,,,,,,,,,,304,2023-11-16_16h27.20.073,leap3,2022.2.5,60.020544437665095,
,,,,,,,,,,,,,,,,,,,,2,0,2,0,27,0,27,0,,,,,,column,w,g,upper,,,,,,,2,w,HiDemNoTar,g,1,0.6437903846963309,,,,,,,,,,,,,,,,,,304,2023-11-16_16h27.20.073,leap3,2022.2.5,60.020544437665095,
,,,,,,,,,,,,,,,,,,,,2,0,2,0,28,0,28,0,,,,,,doads,nw,h,upper,,,,,,,2,nw,HiDemNoTar,h,1,0.5767461725044996,,,,,,,,,,,,,,,,,,304,2023-11-16_16h27.20.073,leap3,2022.2.5,60.020544437665095,
,,,,,,,,,,,,,,,,,,,,2,0,2,0,29,0,29,0,,,,,,fuhrek,nw,h,upper,,,,,,,2,nw,HiDemNoTar,h,1,0.5287950542406179,,,,,,,,,,,,,,,,,,304,2023-11-16_16h27.20.073,leap3,2022.2.5,60.020544437665095,
,,,,,,,,,,,,,,,,,,,,2,0,2,0,,,,,,,,,,,,,,,,,,,,,,,,,,,NA,,,,,,,,,,,,,,,,304,2023-11-16_16h27.20.073,leap3,2022.2.5,60.020544437665095,
,,,,,,,,,,,,,,,,,,,,3,0,3,0,0,0,0,0,,,,,,alomalous,nw,h,lower,,,,,,,3,nw,LoDemNoTar,h,1,0.698549577180529,,,,,,,,,,,,,,,,,,304,2023-11-16_16h27.20.073,leap3,2022.2.5,60.020544437665095,
,,,,,,,,,,,,,,,,,,,,3,0,3,0,1,0,1,0,,,,,,odacles,nw,h,lower,,,,,,,3,nw,LoDemNoTar,h,1,0.6379026305512525,,,,,,,,,,,,,,,,,,304,2023-11-16_16h27.20.073,leap3,2022.2.5,60.020544437665095,
,,,,,,,,,,,,,,,,,,,,3,0,3,0,2,0,2,0,,,,,,partner,w,g,lower,,,,,,,3,w,LoDemNoTar,g,1,0.5551933581009507,,,,,,,,,,,,,,,,,,304,2023-11-16_16h27.20.073,leap3,2022.2.5,60.020544437665095,
,,,,,,,,,,,,,,,,,,,,3,0,3,0,3,0,3,0,,,,,,rocket,w,g,lower,,,,,,,3,w,LoDemNoTar,g,1,1.258888040058082,,,,,,,,,,,,,,,,,,304,2023-11-16_16h27.20.073,leap3,2022.2.5,60.020544437665095,
,,,,,,,,,,,,,,,,,,,,3,0,3,0,4,0,4,0,,,,,,throttle,w,g,lower,,,,,,,3,w,LoDemNoTar,g,1,0.8714230463374406,,,,,,,,,,,,,,,,,,304,2023-11-16_16h27.20.073,leap3,2022.2.5,60.020544437665095,
,,,,,,,,,,,,,,,,,,,,3,0,3,0,5,0,5,0,,,,,,attrove,nw,h,lower,,,,,,,3,nw,LoDemNoTar,h,1,0.6114089442125987,,,,,,,,,,,,,,,,,,304,2023-11-16_16h27.20.073,leap3,2022.2.5,60.020544437665095,
,,,,,,,,,,,,,,,,,,,,3,0,3,0,6,0,6,0,,,,,,servant,w,g,lower,,,,,,,3,w,LoDemNoTar,g,1,0.5060212839161977,,,,,,,,,,,,,,,,,,304,2023-11-16_16h27.20.073,leap3,2022.2.5,60.020544437665095,
,,,,,,,,,,,,,,,,,,,,3,0,3,0,7,0,7,0,,,,,,vibrate,w,g,lower,,,,,,,3,w,LoDemNoTar,g,1,0.5006638683262281,,,,,,,,,,,,,,,,,,304,2023-11-16_16h27.20.073,leap3,2022.2.5,60.020544437665095,
,,,,,,,,,,,,,,,,,,,,3,0,3,0,8,0,8,0,,,,,,kilotin,nw,h,lower,,,,,,,3,nw,LoDemNoTar,h,1,0.6393158605787903,,,,,,,,,,,,,,,,,,304,2023-11-16_16h27.20.073,leap3,2022.2.5,60.020544437665095,
,,,,,,,,,,,,,,,,,,,,3,0,3,0,9,0,9,0,,,,,,abhorrent,w,g,lower,,,,,,,3,w,LoDemNoTar,g,1,0.836713187105488,,,,,,,,,,,,,,,,,,304,2023-11-16_16h27.20.073,leap3,2022.2.5,60.020544437665095,
,,,,,,,,,,,,,,,,,,,,3,0,3,0,10,0,10,0,,,,,,blipover,nw,h,lower,,,,,,,3,nw,LoDemNoTar,h,1,0.7300097921397537,,,,,,,,,,,,,,,,,,304,2023-11-16_16h27.20.073,leap3,2022.2.5,60.020544437665095,
,,,,,,,,,,,,,,,,,,,,3,0,3,0,11,0,11,0,,,,,,dumult,nw,h,lower,,,,,,,3,nw,LoDemNoTar,h,1,0.6919265329197515,,,,,,,,,,,,,,,,,,304,2023-11-16_16h27.20.073,leap3,2022.2.5,60.020544437665095,
,,,,,,,,,,,,,,,,,,,,3,0,3,0,12,0,12,0,,,,,,hindsight,w,g,lower,,,,,,,3,w,LoDemNoTar,g,1,0.5024365936405957,,,,,,,,,,,,,,,,,,304,2023-11-16_16h27.20.073,leap3,2022.2.5,60.020544437665095,
,,,,,,,,,,,,,,,,,,,,3,0,3,0,13,0,13,0,,,,,,cabinet,w,g,lower,,,,,,,3,w,LoDemNoTar,g,1,0.4729966154845897,,,,,,,,,,,,,,,,,,304,2023-11-16_16h27.20.073,leap3,2022.2.5,60.020544437665095,
,,,,,,,,,,,,,,,,,,,,3,0,3,0,14,0,14,0,,,,,,etuip,nw,h,lower,,,,,,,3,nw,LoDemNoTar,h,1,0.596841989638051,,,,,,,,,,,,,,,,,,304,2023-11-16_16h27.20.073,leap3,2022.2.5,60.020544437665095,
,,,,,,,,,,,,,,,,,,,,3,0,3,0,15,0,15,0,,,,,,sorping,nw,h,lower,,,,,,,3,nw,LoDemNoTar,h,1,0.6590014727262314,,,,,,,,,,,,,,,,,,304,2023-11-16_16h27.20.073,leap3,2022.2.5,60.020544437665095,
,,,,,,,,,,,,,,,,,,,,3,0,3,0,16,0,16,0,,,,,,ements,nw,h,lower,,,,,,,3,nw,LoDemNoTar,h,1,0.5836589863174595,,,,,,,,,,,,,,,,,,304,2023-11-16_16h27.20.073,leap3,2022.2.5,60.020544437665095,
,,,,,,,,,,,,,,,,,,,,3,0,3,0,17,0,17,0,,,,,,ignoble,w,g,lower,,,,,,,3,w,LoDemNoTar,g,1,0.7680559246509802,,,,,,,,,,,,,,,,,,304,2023-11-16_16h27.20.073,leap3,2022.2.5,60.020544437665095,
,,,,,,,,,,,,,,,,,,,,3,0,3,0,18,0,18,0,,,,,,embrace,w,g,lower,,,,,,,3,w,LoDemNoTar,g,1,0.48063958805869333,,,,,,,,,,,,,,,,,,304,2023-11-16_16h27.20.073,leap3,2022.2.5,60.020544437665095,
,,,,,,,,,,,,,,,,,,,,3,0,3,0,19,0,19,0,,,,,,religious,w,g,lower,,,,,,,3,w,LoDemNoTar,g,1,0.48469847402884625,,,,,,,,,,,,,,,,,,304,2023-11-16_16h27.20.073,leap3,2022.2.5,60.020544437665095,
,,,,,,,,,,,,,,,,,,,,3,0,3,0,20,0,20,0,,,,,,geissue,nw,h,lower,,,,,,,3,nw,LoDemNoTar,h,1,0.5760105805529747,,,,,,,,,,,,,,,,,,304,2023-11-16_16h27.20.073,leap3,2022.2.5,60.020544437665095,
,,,,,,,,,,,,,,,,,,,,3,0,3,0,21,0,21,0,,,,,,pollute,w,g,lower,,,,,,,3,w,LoDemNoTar,g,1,0.5591610874398611,,,,,,,,,,,,,,,,,,304,2023-11-16_16h27.20.073,leap3,2022.2.5,60.020544437665095,
,,,,,,,,,,,,,,,,,,,,3,0,3,0,22,0,22,0,,,,,,kickoff,w,g,lower,,,,,,,3,w,LoDemNoTar,g,1,0.4957948350638617,,,,,,,,,,,,,,,,,,304,2023-11-16_16h27.20.073,leap3,2022.2.5,60.020544437665095,
,,,,,,,,,,,,,,,,,,,,3,0,3,0,23,0,23,0,,,,,,nearsipe,nw,h,lower,,,,,,,3,nw,LoDemNoTar,h,1,0.8990148383600172,,,,,,,,,,,,,,,,,,304,2023-11-16_16h27.20.073,leap3,2022.2.5,60.020544437665095,
,,,,,,,,,,,,,,,,,,,,3,0,3,0,24,0,24,0,,,,,,burning,w,g,lower,,,,,,,3,w,LoDemNoTar,g,1,0.44632001212448813,,,,,,,,,,,,,,,,,,304,2023-11-16_16h27.20.073,leap3,2022.2.5,60.020544437665095,
,,,,,,,,,,,,,,,,,,,,3,0,3,0,25,0,25,0,,,,,,tyena,nw,h,lower,,,,,,,3,nw,LoDemNoTar,h,1,0.675681631808402,,,,,,,,,,,,,,,,,,304,2023-11-16_16h27.20.073,leap3,2022.2.5,60.020544437665095,
,,,,,,,,,,,,,,,,,,,,3,0,3,0,26,0,26,0,,,,,,latirizes,nw,h,lower,,,,,,,3,nw,LoDemNoTar,h,1,0.9195573834585957,,,,,,,,,,,,,,,,,,304,2023-11-16_16h27.20.073,leap3,2022.2.5,60.020544437665095,
,,,,,,,,,,,,,,,,,,,,3,0,3,0,27,0,27,0,,,,,,joses,nw,h,lower,,,,,,,3,nw,LoDemNoTar,h,1,0.5455612385994755,,,,,,,,,,,,,,,,,,304,2023-11-16_16h27.20.073,leap3,2022.2.5,60.020544437665095,
,,,,,,,,,,,,,,,,,,,,3,0,3,0,28,0,28,0,,,,,,terrify,w,g,lower,,,,,,,3,w,LoDemNoTar,g,1,0.5708267248119228,,,,,,,,,,,,,,,,,,304,2023-11-16_16h27.20.073,leap3,2022.2.5,60.020544437665095,
,,,,,,,,,,,,,,,,,,,,3,0,3,0,29,0,29,0,,,,,,fashing,nw,h,lower,,,,,,,3,nw,LoDemNoTar,h,1,0.7307861329172738,,,,,,,,,,,,,,,,,,304,2023-11-16_16h27.20.073,leap3,2022.2.5,60.020544437665095,
,,,,,,,,,,,,,,,,,,,,3,0,3,0,,,,,,,,,,,,,,,,,,,,,,,,,,,NA,,,,,,,,,,,,,,,,304,2023-11-16_16h27.20.073,leap3,2022.2.5,60.020544437665095,
,,,,,,,,,,,,,,,,,,,,4,0,4,0,0,0,0,0,,,,,,sequence,w,g,lower,,,,,,,3,w,LoDemNoTar,g,1,0.6012229423504323,,,,,,,,,,,,,,,,,,304,2023-11-16_16h27.20.073,leap3,2022.2.5,60.020544437665095,
,,,,,,,,,,,,,,,,,,,,4,0,4,0,1,0,1,0,,,,,,butled,nw,h,lower,,,,,,,3,nw,LoDemNoTar,h,1,0.7062722363916691,,,,,,,,,,,,,,,,,,304,2023-11-16_16h27.20.073,leap3,2022.2.5,60.020544437665095,
,,,,,,,,,,,,,,,,,,,,4,0,4,0,2,0,2,0,,,,,,ciping,nw,h,lower,,,,,,,3,nw,LoDemNoTar,h,1,0.6689203433052171,,,,,,,,,,,,,,,,,,304,2023-11-16_16h27.20.073,leap3,2022.2.5,60.020544437665095,
,,,,,,,,,,,,,,,,,,,,4,0,4,0,3,0,3,0,,,,,,prama,nw,h,lower,,,,,,,3,nw,LoDemNoTar,h,1,0.7049332597816829,,,,,,,,,,,,,,,,,,304,2023-11-16_16h27.20.073,leap3,2022.2.5,60.020544437665095,
,,,,,,,,,,,,,,,,,,,,4,0,4,0,4,0,4,0,,,,,,oldest,w,g,lower,,,,,,,3,w,LoDemNoTar,g,1,0.5715795218420681,,,,,,,,,,,,,,,,,,304,2023-11-16_16h27.20.073,leap3,2022.2.5,60.020544437665095,
,,,,,,,,,,,,,,,,,,,,4,0,4,0,5,0,5,0,,,,,,emission,w,g,lower,,,,,,,3,w,LoDemNoTar,g,1,1.2035710412601475,,,,,,,,,,,,,,,,,,304,2023-11-16_16h27.20.073,leap3,2022.2.5,60.020544437665095,
,,,,,,,,,,,,,,,,,,,,4,0,4,0,6,0,6,0,,,,,,monopoly,w,g,lower,,,,,,,3,w,LoDemNoTar,g,1,1.4240980112808757,,,,,,,,,,,,,,,,,,304,2023-11-16_16h27.20.073,leap3,2022.2.5,60.020544437665095,
,,,,,,,,,,,,,,,,,,,,4,0,4,0,7,0,7,0,,,,,,efficient,w,g,lower,,,,,,,3,w,LoDemNoTar,g,1,0.5587457511282992,,,,,,,,,,,,,,,,,,304,2023-11-16_16h27.20.073,leap3,2022.2.5,60.020544437665095,
,,,,,,,,,,,,,,,,,,,,4,0,4,0,8,0,8,0,,,,,,egect,nw,h,lower,,,,,,,3,nw,LoDemNoTar,h,1,0.6239233647647779,,,,,,,,,,,,,,,,,,304,2023-11-16_16h27.20.073,leap3,2022.2.5,60.020544437665095,
,,,,,,,,,,,,,,,,,,,,4,0,4,0,9,0,9,0,,,,,,fallacy,w,g,lower,,,,,,,3,w,LoDemNoTar,g,1,0.5818261941603851,,,,,,,,,,,,,,,,,,304,2023-11-16_16h27.20.073,leap3,2022.2.5,60.020544437665095,
,,,,,,,,,,,,,,,,,,,,4,0,4,0,10,0,10,0,,,,,,plashed,nw,h,lower,,,,,,,3,nw,LoDemNoTar,h,1,0.6217938607442193,,,,,,,,,,,,,,,,,,304,2023-11-16_16h27.20.073,leap3,2022.2.5,60.020544437665095,
,,,,,,,,,,,,,,,,,,,,4,0,4,0,11,0,11,0,,,,,,tharcely,nw,h,lower,,,,,,,3,nw,LoDemNoTar,h,1,0.6118209602136631,,,,,,,,,,,,,,,,,,304,2023-11-16_16h27.20.073,leap3,2022.2.5,60.020544437665095,
,,,,,,,,,,,,,,,,,,,,4,0,4,0,12,0,12,0,,,,,,showdown,w,g,lower,,,,,,,3,w,LoDemNoTar,g,1,0.5144236940832343,,,,,,,,,,,,,,,,,,304,2023-11-16_16h27.20.073,leap3,2022.2.5,60.020544437665095,
,,,,,,,,,,,,,,,,,,,,4,0,4,0,13,0,13,0,,,,,,harder,w,g,lower,,,,,,,3,w,LoDemNoTar,g,1,0.5250666865613312,,,,,,,,,,,,,,,,,,304,2023-11-16_16h27.20.073,leap3,2022.2.5,60.020544437665095,
,,,,,,,,,,,,,,,,,,,,4,0,4,0,14,0,14,0,,,,,,dazid,nw,h,lower,,,,,,,3,nw,LoDemNoTar,h,1,0.5669528687139973,,,,,,,,,,,,,,,,,,304,2023-11-16_16h27.20.073,leap3,2022.2.5,60.020544437665095,
,,,,,,,,,,,,,,,,,,,,4,0,4,0,15,0,15,0,,,,,,gigglod,nw,h,lower,,,,,,,3,nw,LoDemNoTar,h,1,0.8147453382262029,,,,,,,,,,,,,,,,,,304,2023-11-16_16h27.20.073,leap3,2022.2.5,60.020544437665095,
,,,,,,,,,,,,,,,,,,,,4,0,4,0,16,0,16,0,,,,,,landing,w,g,lower,,,,,,,3,w,LoDemNoTar,g,1,0.6533956401690375,,,,,,,,,,,,,,,,,,304,2023-11-16_16h27.20.073,leap3,2022.2.5,60.020544437665095,
,,,,,,,,,,,,,,,,,,,,4,0,4,0,17,0,17,0,,,,,,hostade,nw,h,lower,,,,,,,3,nw,LoDemNoTar,h,1,0.7858356986253057,,,,,,,,,,,,,,,,,,304,2023-11-16_16h27.20.073,leap3,2022.2.5,60.020544437665095,
,,,,,,,,,,,,,,,,,,,,4,0,4,0,18,0,18,0,,,,,,lonnote,nw,h,lower,,,,,,,3,nw,LoDemNoTar,h,1,0.7532079540251289,,,,,,,,,,,,,,,,,,304,2023-11-16_16h27.20.073,leap3,2022.2.5,60.020544437665095,
,,,,,,,,,,,,,,,,,,,,4,0,4,0,19,0,19,0,,,,,,ahead,w,g,lower,,,,,,,3,w,LoDemNoTar,g,1,0.681817501084879,,,,,,,,,,,,,,,,,,304,2023-11-16_16h27.20.073,leap3,2022.2.5,60.020544437665095,
,,,,,,,,,,,,,,,,,,,,4,0,4,0,20,0,20,0,,,,,,amplifier,w,g,lower,,,,,,,3,w,LoDemNoTar,g,1,0.5738122562761419,,,,,,,,,,,,,,,,,,304,2023-11-16_16h27.20.073,leap3,2022.2.5,60.020544437665095,
,,,,,,,,,,,,,,,,,,,,4,0,4,0,21,0,21,0,,,,,,grested,nw,h,lower,,,,,,,3,nw,LoDemNoTar,h,1,0.565794998081401,,,,,,,,,,,,,,,,,,304,2023-11-16_16h27.20.073,leap3,2022.2.5,60.020544437665095,
,,,,,,,,,,,,,,,,,,,,4,0,4,0,22,0,22,0,,,,,,germeated,nw,h,lower,,,,,,,3,nw,LoDemNoTar,h,1,0.8464099010452628,,,,,,,,,,,,,,,,,,304,2023-11-16_16h27.20.073,leap3,2022.2.5,60.020544437665095,
,,,,,,,,,,,,,,,,,,,,4,0,4,0,23,0,23,0,,,,,,hegacy,nw,h,lower,,,,,,,3,nw,LoDemNoTar,h,1,0.6277099881554022,,,,,,,,,,,,,,,,,,304,2023-11-16_16h27.20.073,leap3,2022.2.5,60.020544437665095,
,,,,,,,,,,,,,,,,,,,,4,0,4,0,24,0,24,0,,,,,,armada,w,g,lower,,,,,,,3,w,LoDemNoTar,g,1,0.904814756126143,,,,,,,,,,,,,,,,,,304,2023-11-16_16h27.20.073,leap3,2022.2.5,60.020544437665095,
,,,,,,,,,,,,,,,,,,,,4,0,4,0,25,0,25,0,,,,,,fisco,nw,h,lower,,,,,,,3,nw,LoDemNoTar,h,1,0.6273749421525281,,,,,,,,,,,,,,,,,,304,2023-11-16_16h27.20.073,leap3,2022.2.5,60.020544437665095,
,,,,,,,,,,,,,,,,,,,,4,0,4,0,26,0,26,0,,,,,,mennel,nw,h,lower,,,,,,,3,nw,LoDemNoTar,h,1,0.7132861676509492,,,,,,,,,,,,,,,,,,304,2023-11-16_16h27.20.073,leap3,2022.2.5,60.020544437665095,
,,,,,,,,,,,,,,,,,,,,4,0,4,0,27,0,27,0,,,,,,retain,w,g,lower,,,,,,,3,w,LoDemNoTar,g,1,0.5399246180313639,,,,,,,,,,,,,,,,,,304,2023-11-16_16h27.20.073,leap3,2022.2.5,60.020544437665095,
,,,,,,,,,,,,,,,,,,,,4,0,4,0,28,0,28,0,,,,,,amidst,w,g,lower,,,,,,,3,w,LoDemNoTar,g,1,0.6452654926106334,,,,,,,,,,,,,,,,,,304,2023-11-16_16h27.20.073,leap3,2022.2.5,60.020544437665095,
,,,,,,,,,,,,,,,,,,,,4,0,4,0,29,0,29,0,,,,,,suddenly,w,g,lower,,,,,,,3,w,LoDemNoTar,g,1,0.521385708329035,,,,,,,,,,,,,,,,,,304,2023-11-16_16h27.20.073,leap3,2022.2.5,60.020544437665095,
,,,,,,,,,,,,,,,,,,,,4,0,4,0,,,,,,,,,,,,,,,,,,,,,,,,,,,NA,,,,,,,,,,,,,,,,304,2023-11-16_16h27.20.073,leap3,2022.2.5,60.020544437665095,
,,,,,,,,,,,,,,,,,,,,5,0,5,0,0,0,0,0,,,,,,reprint,w,g,lower,,,,,,,4,w,LoDemTar,g,1,0.5876076995336916,,,,,,,,,,,,,,,,,,304,2023-11-16_16h27.20.073,leap3,2022.2.5,60.020544437665095,
,,,,,,,,,,,,,,,,,,,,5,0,5,0,1,0,1,0,,,,,,gepealed,nw,h,lower,,,,,,,4,nw,LoDemTar,h,1,0.6988719457876869,,,,,,,,,,,,,,,,,,304,2023-11-16_16h27.20.073,leap3,2022.2.5,60.020544437665095,
,,,,,,,,,,,,,,,,,,,,5,0,5,0,2,0,2,0,,,,,,grieving,w,g,lower,,,,,,,4,w,LoDemTar,g,1,0.4699742591474205,,,,,,,,,,,,,,,,,,304,2023-11-16_16h27.20.073,leap3,2022.2.5,60.020544437665095,
,,,,,,,,,,,,,,,,,,,,5,0,5,0,3,0,3,0,,,,,,attract,w,g,lower,,,,,,,4,w,LoDemTar,g,1,0.46588035934837535,,,,,,,,,,,,,,,,,,304,2023-11-16_16h27.20.073,leap3,2022.2.5,60.020544437665095,
,,,,,,,,,,,,,,,,,,,,5,0,5,0,4,0,4,0,,,,,,arrive,w,g,lower,,,,,,,4,w,LoDemTar,g,1,0.6705747460946441,,,,,,,,,,,,,,,,,,304,2023-11-16_16h27.20.073,leap3,2022.2.5,60.020544437665095,
,,,,,,,,,,,,,,,,,,,,5,0,5,0,5,0,5,0,,,,,,podes,nw,h,lower,,,,,,,4,nw,LoDemTar,h,1,0.6105245435319375,,,,,,,,,,,,,,,,,,304,2023-11-16_16h27.20.073,leap3,2022.2.5,60.020544437665095,
,,,,,,,,,,,,,,,,,,,,5,0,5,0,6,0,6,0,,,,,,mandlers,nw,h,lower,,,,,,,4,nw,LoDemTar,g,0,0.5291530403192155,,,,,,,,,,,,,,,,,,304,2023-11-16_16h27.20.073,leap3,2022.2.5,60.020544437665095,
,,,,,,,,,,,,,,,,,,,,5,0,5,0,7,0,7,0,,,,,,midday,w,g,lower,,,,,,,4,w,LoDemTar,g,1,0.6270948316669092,,,,,,,,,,,,,,,,,,304,2023-11-16_16h27.20.073,leap3,2022.2.5,60.020544437665095,
,,,,,,,,,,,,,,,,,,,,5,0,5,0,8,0,8,0,,,,,,pracking,nw,h,lower,,,,,,,4,nw,LoDemTar,h,1,0.7602671617933083,,,,,,,,,,,,,,,,,,304,2023-11-16_16h27.20.073,leap3,2022.2.5,60.020544437665095,
,,,,,,,,,,,,,,,,,,,,5,0,5,0,9,0,9,0,,,,,,parent,w,g,lower,,,,,,,4,w,LoDemTar,g,1,0.5048078740946949,,,,,,,,,,,,,,,,,,304,2023-11-16_16h27.20.073,leap3,2022.2.5,60.020544437665095,
,,,,,,,,,,,,,,,,,,,,5,0,5,0,10,0,10,0,,,,,,jungle,w,g,lower,,,,,,,4,w,LoDemTar,g,1,0.6434544331859797,,,,,,,,,,,,,,,,,,304,2023-11-16_16h27.20.073,leap3,2022.2.5,60.020544437665095,
,,,,,,,,,,,,,,,,,,,,5,0,5,0,11,0,11,0,,,,,,puggers,nw,h,lower,,,,,,,4,nw,LoDemTar,h,1,0.5767111587047111,,,,,,,,,,,,,,,,,,304,2023-11-16_16h27.20.073,leap3,2022.2.5,60.020544437665095,
,,,,,,,,,,,,,,,,,,,,5,0,5,0,12,0,12,0,,,,,,caterpillar,target,q,lower,,,,,,,4,target,LoDemTar,q,1,0.7767315029341262,1,,,,,,,,,,,,,,,,,304,2023-11-16_16h27.20.073,leap3,2022.2.5,60.020544437665095,
,,,,,,,,,,,,,,,,,,,,5,0,5,0,13,0,13,0,,,,,,bedding,w,g,lower,,,,,,,4,aftertar1,LoDemTar,g,1,0.6166546778113116,,,,,,,,,,,,,,,,,,304,2023-11-16_16h27.20.073,leap3,2022.2.5,60.020544437665095,
,,,,,,,,,,,,,,,,,,,,5,0,5,0,14,0,14,0,,,,,,module,w,g,lower,,,,,,,4,aftertar2,LoDemTar,g,1,0.7113136221014429,,,,,,,,,,,,,,,,,,304,2023-11-16_16h27.20.073,leap3,2022.2.5,60.020544437665095,
,,,,,,,,,,,,,,,,,,,,5,0,5,0,15,0,15,0,,,,,,bengths,nw,h,lower,,,,,,,4,aftertar3,LoDemTar,h,1,0.8019339039165061,,,,,,,,,,,,,,,,,,304,2023-11-16_16h27.20.073,leap3,2022.2.5,60.020544437665095,
,,,,,,,,,,,,,,,,,,,,5,0,5,0,16,0,16,0,,,,,,bluads,nw,h,lower,,,,,,,4,nw,LoDemTar,h,1,0.5926128640712705,,,,,,,,,,,,,,,,,,304,2023-11-16_16h27.20.073,leap3,2022.2.5,60.020544437665095,
,,,,,,,,,,,,,,,,,,,,5,0,5,0,17,0,17,0,,,,,,brimitive,nw,h,lower,,,,,,,4,nw,LoDemTar,h,1,0.6950744560163002,,,,,,,,,,,,,,,,,,304,2023-11-16_16h27.20.073,leap3,2022.2.5,60.020544437665095,
,,,,,,,,,,,,,,,,,,,,5,0,5,0,18,0,18,0,,,,,,stooping,w,g,lower,,,,,,,4,nw,LoDemTar,g,1,0.7784329932474066,,,,,,,,,,,,,,,,,,304,2023-11-16_16h27.20.073,leap3,2022.2.5,60.020544437665095,
,,,,,,,,,,,,,,,,,,,,5,0,5,0,19,0,19,0,,,,,,withep,nw,h,lower,,,,,,,4,w,LoDemTar,h,1,0.5849668730515987,,,,,,,,,,,,,,,,,,304,2023-11-16_16h27.20.073,leap3,2022.2.5,60.020544437665095,
,,,,,,,,,,,,,,,,,,,,5,0,5,0,20,0,20,0,,,,,,renown,w,g,lower,,,,,,,4,nw,LoDemTar,g,1,1.3682367891306058,,,,,,,,,,,,,,,,,,304,2023-11-16_16h27.20.073,leap3,2022.2.5,60.020544437665095,
,,,,,,,,,,,,,,,,,,,,5,0,5,0,21,0,21,0,,,,,,relaying,w,g,lower,,,,,,,4,w,LoDemTar,g,1,0.5369704782497138,,,,,,,,,,,,,,,,,,304,2023-11-16_16h27.20.073,leap3,2022.2.5,60.020544437665095,
,,,,,,,,,,,,,,,,,,,,5,0,5,0,22,0,22,0,,,,,,theery,nw,h,lower,,,,,,,4,w,LoDemTar,h,1,0.6427807190630119,,,,,,,,,,,,,,,,,,304,2023-11-16_16h27.20.073,leap3,2022.2.5,60.020544437665095,
,,,,,,,,,,,,,,,,,,,,5,0,5,0,23,0,23,0,,,,,,require,w,g,lower,,,,,,,4,nw,LoDemTar,g,1,0.6480934618739411,,,,,,,,,,,,,,,,,,304,2023-11-16_16h27.20.073,leap3,2022.2.5,60.020544437665095,
,,,,,,,,,,,,,,,,,,,,5,0,5,0,24,0,24,0,,,,,,phraining,nw,h,lower,,,,,,,4,w,LoDemTar,h,1,0.5733848462405149,,,,,,,,,,,,,,,,,,304,2023-11-16_16h27.20.073,leap3,2022.2.5,60.020544437665095,
,,,,,,,,,,,,,,,,,,,,5,0,5,0,25,0,25,0,,,,,,galashes,nw,h,lower,,,,,,,4,nw,LoDemTar,h,1,0.6453246538876556,,,,,,,,,,,,,,,,,,304,2023-11-16_16h27.20.073,leap3,2022.2.5,60.020544437665095,
,,,,,,,,,,,,,,,,,,,,5,0,5,0,26,0,26,0,,,,,,elpired,nw,h,lower,,,,,,,4,nw,LoDemTar,h,1,0.6259082858741749,,,,,,,,,,,,,,,,,,304,2023-11-16_16h27.20.073,leap3,2022.2.5,60.020544437665095,
,,,,,,,,,,,,,,,,,,,,5,0,5,0,27,0,27,0,,,,,,frogmy,nw,h,lower,,,,,,,4,nw,LoDemTar,h,1,0.6796994670876302,,,,,,,,,,,,,,,,,,304,2023-11-16_16h27.20.073,leap3,2022.2.5,60.020544437665095,
,,,,,,,,,,,,,,,,,,,,5,0,5,0,28,0,28,0,,,,,,correct,w,g,lower,,,,,,,4,nw,LoDemTar,g,1,0.49959745616069995,,,,,,,,,,,,,,,,,,304,2023-11-16_16h27.20.073,leap3,2022.2.5,60.020544437665095,
,,,,,,,,,,,,,,,,,,,,5,0,5,0,29,0,29,0,,,,,,expected,w,g,lower,,,,,,,4,w,LoDemTar,g,1,0.7006661019695457,,,,,,,,,,,,,,,,,,304,2023-11-16_16h27.20.073,leap3,2022.2.5,60.020544437665095,
,,,,,,,,,,,,,,,,,,,,5,0,5,0,,,,,,,,,,,,,,,,,,,,,,,,,,,1,,,,,,,,,,,,,,,,304,2023-11-16_16h27.20.073,leap3,2022.2.5,60.020544437665095,
,,,,,,,,,,,,,,,,,,,,6,0,6,0,0,0,0,0,,,,,,upstairs,w,g,lower,,,,,,,3,w,LoDemNoTar,g,1,0.5693419579474721,,,,,,,,,,,,,,,,,,304,2023-11-16_16h27.20.073,leap3,2022.2.5,60.020544437665095,
,,,,,,,,,,,,,,,,,,,,6,0,6,0,1,0,1,0,,,,,,coupling,w,g,lower,,,,,,,3,w,LoDemNoTar,g,1,0.5853813038265798,,,,,,,,,,,,,,,,,,304,2023-11-16_16h27.20.073,leap3,2022.2.5,60.020544437665095,
,,,,,,,,,,,,,,,,,,,,6,0,6,0,2,0,2,0,,,,,,tenpince,nw,h,lower,,,,,,,3,nw,LoDemNoTar,h,1,0.6557340197032318,,,,,,,,,,,,,,,,,,304,2023-11-16_16h27.20.073,leap3,2022.2.5,60.020544437665095,
,,,,,,,,,,,,,,,,,,,,6,0,6,0,3,0,3,0,,,,,,fards,nw,h,lower,,,,,,,3,nw,LoDemNoTar,h,1,0.6522836496878881,,,,,,,,,,,,,,,,,,304,2023-11-16_16h27.20.073,leap3,2022.2.5,60.020544437665095,
,,,,,,,,,,,,,,,,,,,,6,0,6,0,4,0,4,0,,,,,,pretzel,w,g,lower,,,,,,,3,w,LoDemNoTar,g,1,0.46493438264587894,,,,,,,,,,,,,,,,,,304,2023-11-16_16h27.20.073,leap3,2022.2.5,60.020544437665095,
,,,,,,,,,,,,,,,,,,,,6,0,6,0,5,0,5,0,,,,,,distrust,w,g,lower,,,,,,,3,w,LoDemNoTar,g,1,0.901566017389996,,,,,,,,,,,,,,,,,,304,2023-11-16_16h27.20.073,leap3,2022.2.5,60.020544437665095,
,,,,,,,,,,,,,,,,,,,,6,0,6,0,6,0,6,0,,,,,,incorrect,w,g,lower,,,,,,,3,w,LoDemNoTar,g,1,0.4962409593863413,,,,,,,,,,,,,,,,,,304,2023-11-16_16h27.20.073,leap3,2022.2.5,60.020544437665095,
,,,,,,,,,,,,,,,,,,,,6,0,6,0,7,0,7,0,,,,,,mustled,nw,h,lower,,,,,,,3,nw,LoDemNoTar,g,0,0.7315292709972709,,,,,,,,,,,,,,,,,,304,2023-11-16_16h27.20.073,leap3,2022.2.5,60.020544437665095,
,,,,,,,,,,,,,,,,,,,,6,0,6,0,8,0,8,0,,,,,,gumdrep,nw,h,lower,,,,,,,3,nw,LoDemNoTar,h,1,0.6215083170100115,,,,,,,,,,,,,,,,,,304,2023-11-16_16h27.20.073,leap3,2022.2.5,60.020544437665095,
,,,,,,,,,,,,,,,,,,,,6,0,6,0,9,0,9,0,,,,,,pepperoni,w,g,lower,,,,,,,3,w,LoDemNoTar,g,1,0.7860617792175617,,,,,,,,,,,,,,,,,,304,2023-11-16_16h27.20.073,leap3,2022.2.5,60.020544437665095,
,,,,,,,,,,,,,,,,,,,,6,0,6,0,10,0,10,0,,,,,,unspoken,w,g,lower,,,,,,,3,w,LoDemNoTar,g,1,0.48963783678482287,,,,,,,,,,,,,,,,,,304,2023-11-16_16h27.20.073,leap3,2022.2.5,60.020544437665095,
,,,,,,,,,,,,,,,,,,,,6,0,6,0,11,0,11,0,,,,,,antwers,nw,h,lower,,,,,,,3,nw,LoDemNoTar,h,1,0.9477601062098984,,,,,,,,,,,,,,,,,,304,2023-11-16_16h27.20.073,leap3,2022.2.5,60.020544437665095,
,,,,,,,,,,,,,,,,,,,,6,0,6,0,12,0,12,0,,,,,,binder,w,g,lower,,,,,,,3,w,LoDemNoTar,g,1,0.5810782266489696,,,,,,,,,,,,,,,,,,304,2023-11-16_16h27.20.073,leap3,2022.2.5,60.020544437665095,
,,,,,,,,,,,,,,,,,,,,6,0,6,0,13,0,13,0,,,,,,veclors,nw,h,lower,,,,,,,3,nw,LoDemNoTar,h,1,0.6210591743001714,,,,,,,,,,,,,,,,,,304,2023-11-16_16h27.20.073,leap3,2022.2.5,60.020544437665095,
,,,,,,,,,,,,,,,,,,,,6,0,6,0,14,0,14,0,,,,,,greakable,nw,h,lower,,,,,,,3,nw,LoDemNoTar,h,1,0.7543320182303432,,,,,,,,,,,,,,,,,,304,2023-11-16_16h27.20.073,leap3,2022.2.5,60.020544437665095,
,,,,,,,,,,,,,,,,,,,,6,0,6,0,15,0,15,0,,,,,,huzzles,nw,h,lower,,,,,,,3,nw,LoDemNoTar,h,1,0.5709939459920861,,,,,,,,,,,,,,,,,,304,2023-11-16_16h27.20.073,leap3,2022.2.5,60.020544437665095,
,,,,,,,,,,,,,,,,,,,,6,0,6,0,16,0,16,0,,,,,,brouhuha,nw,h,lower,,,,,,,3,nw,LoDemNoTar,h,1,0.6263948571868241,,,,,,,,,,,,,,,,,,304,2023-11-16_16h27.20.073,leap3,2022.2.5,60.020544437665095,
,,,,,,,,,,,,,,,,,,,,6,0,6,0,17,0,17,0,,,,,,sludding,nw,h,lower,,,,,,,3,nw,LoDemNoTar,h,1,0.7036772900901269,,,,,,,,,,,,,,,,,,304,2023-11-16_16h27.20.073,leap3,2022.2.5,60.020544437665095,
,,,,,,,,,,,,,,,,,,,,6,0,6,0,18,0,18,0,,,,,,hackal,nw,h,lower,,,,,,,3,nw,LoDemNoTar,h,1,0.586219220655039,,,,,,,,,,,,,,,,,,304,2023-11-16_16h27.20.073,leap3,2022.2.5,60.020544437665095,
,,,,,,,,,,,,,,,,,,,,6,0,6,0,19,0,19,0,,,,,,olerates,nw,h,lower,,,,,,,3,nw,LoDemNoTar,h,1,1.1616166425228585,,,,,,,,,,,,,,,,,,304,2023-11-16_16h27.20.073,leap3,2022.2.5,60.020544437665095,
,,,,,,,,,,,,,,,,,,,,6,0,6,0,20,0,20,0,,,,,,railway,w,g,lower,,,,,,,3,w,LoDemNoTar,g,1,0.641283274802845,,,,,,,,,,,,,,,,,,304,2023-11-16_16h27.20.073,leap3,2022.2.5,60.020544437665095,
,,,,,,,,,,,,,,,,,,,,6,0,6,0,21,0,21,0,,,,,,ilterfere,nw,h,lower,,,,,,,3,nw,LoDemNoTar,h,1,0.6385546119126957,,,,,,,,,,,,,,,,,,304,2023-11-16_16h27.20.073,leap3,2022.2.5,60.020544437665095,
,,,,,,,,,,,,,,,,,,,,6,0,6,0,22,0,22,0,,,,,,fetching,w,g,lower,,,,,,,3,w,LoDemNoTar,g,1,0.771753806155175,,,,,,,,,,,,,,,,,,304,2023-11-16_16h27.20.073,leap3,2022.2.5,60.020544437665095,
,,,,,,,,,,,,,,,,,,,,6,0,6,0,23,0,23,0,,,,,,reloant,nw,h,lower,,,,,,,3,nw,LoDemNoTar,h,1,0.7157467937213369,,,,,,,,,,,,,,,,,,304,2023-11-16_16h27.20.073,leap3,2022.2.5,60.020544437665095,
,,,,,,,,,,,,,,,,,,,,6,0,6,0,24,0,24,0,,,,,,chyme,nw,h,lower,,,,,,,3,nw,LoDemNoTar,h,1,1.2704350530402735,,,,,,,,,,,,,,,,,,304,2023-11-16_16h27.20.073,leap3,2022.2.5,60.020544437665095,
,,,,,,,,,,,,,,,,,,,,6,0,6,0,25,0,25,0,,,,,,violate,w,g,lower,,,,,,,3,w,LoDemNoTar,g,1,0.5783839739160612,,,,,,,,,,,,,,,,,,304,2023-11-16_16h27.20.073,leap3,2022.2.5,60.020544437665095,
,,,,,,,,,,,,,,,,,,,,6,0,6,0,26,0,26,0,,,,,,martial,w,g,lower,,,,,,,3,w,LoDemNoTar,g,1,0.6344199632876553,,,,,,,,,,,,,,,,,,304,2023-11-16_16h27.20.073,leap3,2022.2.5,60.020544437665095,
,,,,,,,,,,,,,,,,,,,,6,0,6,0,27,0,27,0,,,,,,couple,w,g,lower,,,,,,,3,w,LoDemNoTar,g,1,0.5916394196101464,,,,,,,,,,,,,,,,,,304,2023-11-16_16h27.20.073,leap3,2022.2.5,60.020544437665095,
,,,,,,,,,,,,,,,,,,,,6,0,6,0,28,0,28,0,,,,,,persona,w,g,lower,,,,,,,3,w,LoDemNoTar,g,1,0.5989739084034227,,,,,,,,,,,,,,,,,,304,2023-11-16_16h27.20.073,leap3,2022.2.5,60.020544437665095,
,,,,,,,,,,,,,,,,,,,,6,0,6,0,29,0,29,0,,,,,,submit,w,g,lower,,,,,,,3,w,LoDemNoTar,g,1,0.5173606287571602,,,,,,,,,,,,,,,,,,304,2023-11-16_16h27.20.073,leap3,2022.2.5,60.020544437665095,
,,,,,,,,,,,,,,,,,,,,6,0,6,0,,,,,,,,,,,,,,,,,,,,,,,,,,,NA,,,,,,,,,,,,,,,,304,2023-11-16_16h27.20.073,leap3,2022.2.5,60.020544437665095,
,,,,,,,,,,,,,,,,,,,,7,0,7,0,0,0,0,0,,,,,,ifling,nw,h,lower,,,,,,,3,nw,LoDemNoTar,h,1,0.6226661876717117,,,,,,,,,,,,,,,,,,304,2023-11-16_16h27.20.073,leap3,2022.2.5,60.020544437665095,
,,,,,,,,,,,,,,,,,,,,7,0,7,0,1,0,1,0,,,,,,lecked,nw,h,lower,,,,,,,3,nw,LoDemNoTar,h,1,0.8207704310771078,,,,,,,,,,,,,,,,,,304,2023-11-16_16h27.20.073,leap3,2022.2.5,60.020544437665095,
,,,,,,,,,,,,,,,,,,,,7,0,7,0,2,0,2,0,,,,,,maximized,w,g,lower,,,,,,,3,w,LoDemNoTar,g,1,0.5776354027038906,,,,,,,,,,,,,,,,,,304,2023-11-16_16h27.20.073,leap3,2022.2.5,60.020544437665095,
,,,,,,,,,,,,,,,,,,,,7,0,7,0,3,0,3,0,,,,,,duries,nw,h,lower,,,,,,,3,nw,LoDemNoTar,h,1,0.9217348805686925,,,,,,,,,,,,,,,,,,304,2023-11-16_16h27.20.073,leap3,2022.2.5,60.020544437665095,
,,,,,,,,,,,,,,,,,,,,7,0,7,0,4,0,4,0,,,,,,living,w,g,lower,,,,,,,3,w,LoDemNoTar,g,1,0.5461537568771746,,,,,,,,,,,,,,,,,,304,2023-11-16_16h27.20.073,leap3,2022.2.5,60.020544437665095,
,,,,,,,,,,,,,,,,,,,,7,0,7,0,5,0,5,0,,,,,,unmarked,w,g,lower,,,,,,,3,w,LoDemNoTar,g,1,0.786963686812669,,,,,,,,,,,,,,,,,,304,2023-11-16_16h27.20.073,leap3,2022.2.5,60.020544437665095,
,,,,,,,,,,,,,,,,,,,,7,0,7,0,6,0,6,0,,,,,,official,w,g,lower,,,,,,,3,w,LoDemNoTar,g,1,0.48134620307246223,,,,,,,,,,,,,,,,,,304,2023-11-16_16h27.20.073,leap3,2022.2.5,60.020544437665095,
,,,,,,,,,,,,,,,,,,,,7,0,7,0,7,0,7,0,,,,,,knowledge,w,g,lower,,,,,,,3,w,LoDemNoTar,g,1,0.500384965154808,,,,,,,,,,,,,,,,,,304,2023-11-16_16h27.20.073,leap3,2022.2.5,60.020544437665095,
,,,,,,,,,,,,,,,,,,,,7,0,7,0,8,0,8,0,,,,,,bickering,w,g,lower,,,,,,,3,w,LoDemNoTar,g,1,0.655369694926776,,,,,,,,,,,,,,,,,,304,2023-11-16_16h27.20.073,leap3,2022.2.5,60.020544437665095,
,,,,,,,,,,,,,,,,,,,,7,0,7,0,9,0,9,0,,,,,,tracing,w,g,lower,,,,,,,3,w,LoDemNoTar,g,1,0.5640080861339811,,,,,,,,,,,,,,,,,,304,2023-11-16_16h27.20.073,leap3,2022.2.5,60.020544437665095,
,,,,,,,,,,,,,,,,,,,,7,0,7,0,10,0,10,0,,,,,,passet,nw,h,lower,,,,,,,3,nw,LoDemNoTar,h,1,0.7645952919556294,,,,,,,,,,,,,,,,,,304,2023-11-16_16h27.20.073,leap3,2022.2.5,60.020544437665095,
,,,,,,,,,,,,,,,,,,,,7,0,7,0,11,0,11,0,,,,,,slending,nw,h,lower,,,,,,,3,nw,LoDemNoTar,g,0,1.1491864362324122,,,,,,,,,,,,,,,,,,304,2023-11-16_16h27.20.073,leap3,2022.2.5,60.020544437665095,
,,,,,,,,,,,,,,,,,,,,7,0,7,0,12,0,12,0,,,,,,nores,nw,h,lower,,,,,,,3,nw,LoDemNoTar,h,1,0.7104566891794093,,,,,,,,,,,,,,,,,,304,2023-11-16_16h27.20.073,leap3,2022.2.5,60.020544437665095,
,,,,,,,,,,,,,,,,,,,,7,0,7,0,13,0,13,0,,,,,,redefloy,nw,h,lower,,,,,,,3,nw,LoDemNoTar,h,1,0.8482004351099022,,,,,,,,,,,,,,,,,,304,2023-11-16_16h27.20.073,leap3,2022.2.5,60.020544437665095,
,,,,,,,,,,,,,,,,,,,,7,0,7,0,14,0,14,0,,,,,,derived,w,g,lower,,,,,,,3,w,LoDemNoTar,g,1,0.4854482526425272,,,,,,,,,,,,,,,,,,304,2023-11-16_16h27.20.073,leap3,2022.2.5,60.020544437665095,
,,,,,,,,,,,,,,,,,,,,7,0,7,0,15,0,15,0,,,,,,ignore,w,g,lower,,,,,,,3,w,LoDemNoTar,g,1,0.4567523180448916,,,,,,,,,,,,,,,,,,304,2023-11-16_16h27.20.073,leap3,2022.2.5,60.020544437665095,
,,,,,,,,,,,,,,,,,,,,7,0,7,0,16,0,16,0,,,,,,deserve,w,g,lower,,,,,,,3,w,LoDemNoTar,g,1,0.44540421973215416,,,,,,,,,,,,,,,,,,304,2023-11-16_16h27.20.073,leap3,2022.2.5,60.020544437665095,
,,,,,,,,,,,,,,,,,,,,7,0,7,0,17,0,17,0,,,,,,arrow,w,g,lower,,,,,,,3,w,LoDemNoTar,g,1,0.48268216123688035,,,,,,,,,,,,,,,,,,304,2023-11-16_16h27.20.073,leap3,2022.2.5,60.020544437665095,
,,,,,,,,,,,,,,,,,,,,7,0,7,0,18,0,18,0,,,,,,cayward,nw,h,lower,,,,,,,3,nw,LoDemNoTar,h,1,0.6780314813950099,,,,,,,,,,,,,,,,,,304,2023-11-16_16h27.20.073,leap3,2022.2.5,60.020544437665095,
,,,,,,,,,,,,,,,,,,,,7,0,7,0,19,0,19,0,,,,,,blueberry,w,g,lower,,,,,,,3,w,LoDemNoTar,g,1,0.7533812120673247,,,,,,,,,,,,,,,,,,304,2023-11-16_16h27.20.073,leap3,2022.2.5,60.020544437665095,
,,,,,,,,,,,,,,,,,,,,7,0,7,0,20,0,20,0,,,,,,mubby,nw,h,lower,,,,,,,3,nw,LoDemNoTar,h,1,0.6492911758541595,,,,,,,,,,,,,,,,,,304,2023-11-16_16h27.20.073,leap3,2022.2.5,60.020544437665095,
,,,,,,,,,,,,,,,,,,,,7,0,7,0,21,0,21,0,,,,,,buzzer,w,g,lower,,,,,,,3,w,LoDemNoTar,g,1,0.5499895807006396,,,,,,,,,,,,,,,,,,304,2023-11-16_16h27.20.073,leap3,2022.2.5,60.020544437665095,
,,,,,,,,,,,,,,,,,,,,7,0,7,0,22,0,22,0,,,,,,levels,w,g,lower,,,,,,,3,w,LoDemNoTar,q,0,1.5977010354981758,,,,,,,,,,,,,,,,,,304,2023-11-16_16h27.20.073,leap3,2022.2.5,60.020544437665095,
,,,,,,,,,,,,,,,,,,,,7,0,7,0,23,0,23,0,,,,,,imotope,nw,h,lower,,,,,,,3,nw,LoDemNoTar,h,1,2.6110473360167816,,,,,,,,,,,,,,,,,,304,2023-11-16_16h27.20.073,leap3,2022.2.5,60.020544437665095,
,,,,,,,,,,,,,,,,,,,,7,0,7,0,24,0,24,0,,,,,,sullen,w,g,lower,,,,,,,3,w,LoDemNoTar,g,1,2.2502553235099185,,,,,,,,,,,,,,,,,,304,2023-11-16_16h27.20.073,leap3,2022.2.5,60.020544437665095,
,,,,,,,,,,,,,,,,,,,,7,0,7,0,25,0,25,0,,,,,,edasion,nw,h,lower,,,,,,,3,nw,LoDemNoTar,h,1,0.6307930149778258,,,,,,,,,,,,,,,,,,304,2023-11-16_16h27.20.073,leap3,2022.2.5,60.020544437665095,
,,,,,,,,,,,,,,,,,,,,7,0,7,0,26,0,26,0,,,,,,noblin,nw,h,lower,,,,,,,3,nw,LoDemNoTar,h,1,0.6040472895256244,,,,,,,,,,,,,,,,,,304,2023-11-16_16h27.20.073,leap3,2022.2.5,60.020544437665095,
,,,,,,,,,,,,,,,,,,,,7,0,7,0,27,0,27,0,,,,,,schides,nw,h,lower,,,,,,,3,nw,LoDemNoTar,h,1,1.6820233581820503,,,,,,,,,,,,,,,,,,304,2023-11-16_16h27.20.073,leap3,2022.2.5,60.020544437665095,
,,,,,,,,,,,,,,,,,,,,7,0,7,0,28,0,28,0,,,,,,corg,nw,h,lower,,,,,,,3,nw,LoDemNoTar,h,1,0.8373120440810453,,,,,,,,,,,,,,,,,,304,2023-11-16_16h27.20.073,leap3,2022.2.5,60.020544437665095,
,,,,,,,,,,,,,,,,,,,,7,0,7,0,29,0,29,0,,,,,,phambled,nw,h,lower,,,,,,,3,nw,LoDemNoTar,h,1,0.6501143023197073,,,,,,,,,,,,,,,,,,304,2023-11-16_16h27.20.073,leap3,2022.2.5,60.020544437665095,
,,,,,,,,,,,,,,,,,,,,7,0,7,0,,,,,,,,,,,,,,,,,,,,,,,,,,,NA,,,,,,,,,,,,,,,,304,2023-11-16_16h27.20.073,leap3,2022.2.5,60.020544437665095,
,,,,,,,,,,,,,,,,,,,,8,0,8,0,0,0,0,0,,,,,,mabit,nw,h,upper,,,,,,,1,nw,HiDemTar,h,1,0.7181488621863537,,,,,,,,,,,,,,,,,,304,2023-11-16_16h27.20.073,leap3,2022.2.5,60.020544437665095,
,,,,,,,,,,,,,,,,,,,,8,0,8,0,1,0,1,0,,,,,,grefab,nw,h,upper,,,,,,,1,nw,HiDemTar,h,1,0.5201683745253831,,,,,,,,,,,,,,,,,,304,2023-11-16_16h27.20.073,leap3,2022.2.5,60.020544437665095,
,,,,,,,,,,,,,,,,,,,,8,0,8,0,2,0,2,0,,,,,,aggepting,nw,h,upper,,,,,,,1,nw,HiDemTar,h,1,0.6655119294882752,,,,,,,,,,,,,,,,,,304,2023-11-16_16h27.20.073,leap3,2022.2.5,60.020544437665095,
,,,,,,,,,,,,,,,,,,,,8,0,8,0,3,0,3,0,,,,,,skiing,w,g,upper,,,,,,,1,w,HiDemTar,g,1,0.6294582641858142,,,,,,,,,,,,,,,,,,304,2023-11-16_16h27.20.073,leap3,2022.2.5,60.020544437665095,
,,,,,,,,,,,,,,,,,,,,8,0,8,0,4,0,4,0,,,,,,aicline,nw,h,upper,,,,,,,1,nw,HiDemTar,h,1,0.6258687444205862,,,,,,,,,,,,,,,,,,304,2023-11-16_16h27.20.073,leap3,2022.2.5,60.020544437665095,
,,,,,,,,,,,,,,,,,,,,8,0,8,0,5,0,5,0,,,,,,resume,w,g,upper,,,,,,,1,w,HiDemTar,g,1,0.639078008098295,,,,,,,,,,,,,,,,,,304,2023-11-16_16h27.20.073,leap3,2022.2.5,60.020544437665095,
,,,,,,,,,,,,,,,,,,,,8,0,8,0,6,0,6,0,,,,,,impirt,nw,h,upper,,,,,,,1,nw,HiDemTar,h,1,0.6436759861244354,,,,,,,,,,,,,,,,,,304,2023-11-16_16h27.20.073,leap3,2022.2.5,60.020544437665095,
,,,,,,,,,,,,,,,,,,,,8,0,8,0,7,0,7,0,,,,,,sefraud,nw,h,upper,,,,,,,1,nw,HiDemTar,h,1,0.5524082505435217,,,,,,,,,,,,,,,,,,304,2023-11-16_16h27.20.073,leap3,2022.2.5,60.020544437665095,
,,,,,,,,,,,,,,,,,,,,8,0,8,0,8,0,8,0,,,,,,thaken,nw,h,upper,,,,,,,1,nw,HiDemTar,h,1,0.5770211517228745,,,,,,,,,,,,,,,,,,304,2023-11-16_16h27.20.073,leap3,2022.2.5,60.020544437665095,
,,,,,,,,,,,,,,,,,,,,8,0,8,0,9,0,9,0,,,,,,rawhide,w,g,upper,,,,,,,1,w,HiDemTar,g,1,0.8163245820323937,,,,,,,,,,,,,,,,,,304,2023-11-16_16h27.20.073,leap3,2022.2.5,60.020544437665095,
,,,,,,,,,,,,,,,,,,,,8,0,8,0,10,0,10,0,,,,,,egcused,nw,h,upper,,,,,,,1,nw,HiDemTar,h,1,0.7251329110004008,,,,,,,,,,,,,,,,,,304,2023-11-16_16h27.20.073,leap3,2022.2.5,60.020544437665095,
,,,,,,,,,,,,,,,,,,,,8,0,8,0,11,0,11,0,,,,,,innocent,w,g,upper,,,,,,,1,w,HiDemTar,g,1,1.0946288750274107,,,,,,,,,,,,,,,,,,304,2023-11-16_16h27.20.073,leap3,2022.2.5,60.020544437665095,
,,,,,,,,,,,,,,,,,,,,8,0,8,0,12,0,12,0,,,,,,asthmatic,w,g,upper,,,,,,,1,w,HiDemTar,g,1,0.8581555268610828,,,,,,,,,,,,,,,,,,304,2023-11-16_16h27.20.073,leap3,2022.2.5,60.020544437665095,
,,,,,,,,,,,,,,,,,,,,8,0,8,0,13,0,13,0,,,,,,manage,w,g,upper,,,,,,,1,w,HiDemTar,g,1,0.517294223245699,,,,,,,,,,,,,,,,,,304,2023-11-16_16h27.20.073,leap3,2022.2.5,60.020544437665095,
,,,,,,,,,,,,,,,,,,,,8,0,8,0,14,0,14,0,,,,,,stalemate,w,g,upper,,,,,,,1,w,HiDemTar,g,1,0.7750783075462095,,,,,,,,,,,,,,,,,,304,2023-11-16_16h27.20.073,leap3,2022.2.5,60.020544437665095,
,,,,,,,,,,,,,,,,,,,,8,0,8,0,15,0,15,0,,,,,,intrude,w,g,upper,,,,,,,1,w,HiDemTar,g,1,0.8944228971959092,,,,,,,,,,,,,,,,,,304,2023-11-16_16h27.20.073,leap3,2022.2.5,60.020544437665095,
,,,,,,,,,,,,,,,,,,,,8,0,8,0,16,0,16,0,,,,,,perform,w,g,upper,,,,,,,1,w,HiDemTar,g,1,0.4971226434863638,,,,,,,,,,,,,,,,,,304,2023-11-16_16h27.20.073,leap3,2022.2.5,60.020544437665095,
,,,,,,,,,,,,,,,,,,,,8,0,8,0,17,0,17,0,,,,,,handbook,w,g,upper,,,,,,,1,w,HiDemTar,g,1,0.5157013964781072,,,,,,,,,,,,,,,,,,304,2023-11-16_16h27.20.073,leap3,2022.2.5,60.020544437665095,
,,,,,,,,,,,,,,,,,,,,8,0,8,0,18,0,18,0,,,,,,rebool,nw,h,upper,,,,,,,1,nw,HiDemTar,h,1,0.5977526506758295,,,,,,,,,,,,,,,,,,304,2023-11-16_16h27.20.073,leap3,2022.2.5,60.020544437665095,
,,,,,,,,,,,,,,,,,,,,8,0,8,0,19,0,19,0,,,,,,seighing,nw,h,upper,,,,,,,1,nw,HiDemTar,h,1,0.6603102649969514,,,,,,,,,,,,,,,,,,304,2023-11-16_16h27.20.073,leap3,2022.2.5,60.020544437665095,
,,,,,,,,,,,,,,,,,,,,8,0,8,0,20,0,20,0,,,,,,agony,w,g,upper,,,,,,,1,w,HiDemTar,g,1,0.5762577901477925,,,,,,,,,,,,,,,,,,304,2023-11-16_16h27.20.073,leap3,2022.2.5,60.020544437665095,
,,,,,,,,,,,,,,,,,,,,8,0,8,0,21,0,21,0,,,,,,stable,w,g,upper,,,,,,,1,w,HiDemTar,g,1,0.439578041608911,,,,,,,,,,,,,,,,,,304,2023-11-16_16h27.20.073,leap3,2022.2.5,60.020544437665095,
,,,,,,,,,,,,,,,,,,,,8,0,8,0,22,0,22,0,,,,,,heaviest,w,g,upper,,,,,,,1,w,HiDemTar,g,1,0.7793883271224331,,,,,,,,,,,,,,,,,,304,2023-11-16_16h27.20.073,leap3,2022.2.5,60.020544437665095,
,,,,,,,,,,,,,,,,,,,,8,0,8,0,23,0,23,0,,,,,,thrapping,nw,h,upper,,,,,,,1,nw,HiDemTar,h,1,0.9467021456512157,,,,,,,,,,,,,,,,,,304,2023-11-16_16h27.20.073,leap3,2022.2.5,60.020544437665095,
,,,,,,,,,,,,,,,,,,,,8,0,8,0,24,0,24,0,,,,,,puyer,nw,h,upper,,,,,,,1,nw,HiDemTar,h,1,0.6911746413970832,,,,,,,,,,,,,,,,,,304,2023-11-16_16h27.20.073,leap3,2022.2.5,60.020544437665095,
,,,,,,,,,,,,,,,,,,,,8,0,8,0,25,0,25,0,,,,,,brank,nw,h,upper,,,,,,,1,nw,HiDemTar,h,1,0.6059042291308288,,,,,,,,,,,,,,,,,,304,2023-11-16_16h27.20.073,leap3,2022.2.5,60.020544437665095,
,,,,,,,,,,,,,,,,,,,,8,0,8,0,26,0,26,0,,,,,,hutting,nw,h,upper,,,,,,,1,nw,HiDemTar,h,1,1.259837638848694,,,,,,,,,,,,,,,,,,304,2023-11-16_16h27.20.073,leap3,2022.2.5,60.020544437665095,
,,,,,,,,,,,,,,,,,,,,8,0,8,0,27,0,27,0,,,,,,monkey,target,q,upper,,,,,,,1,target,HiDemTar,g,0,0.4798197818454355,,,,,,,,,,,,,,,,,,304,2023-11-16_16h27.20.073,leap3,2022.2.5,60.020544437665095,
,,,,,,,,,,,,,,,,,,,,8,0,8,0,28,0,28,0,,,,,,staircase,w,g,upper,,,,,,,1,aftertar1,HiDemTar,g,1,2.4750977462390438,,,,,,,,,,,,,,,,,,304,2023-11-16_16h27.20.073,leap3,2022.2.5,60.020544437665095,
,,,,,,,,,,,,,,,,,,,,8,0,8,0,29,0,29,0,,,,,,alarm,w,g,upper,,,,,,,1,aftertar2,HiDemTar,g,1,0.8455034657963552,,,,,,,,,,,,,,,,,,304,2023-11-16_16h27.20.073,leap3,2022.2.5,60.020544437665095,
,,,,,,,,,,,,,,,,,,,,8,0,8,0,,,,,,,,,,,,,,,,,,,,,,,,,,,0,,,,,,,,,,,,,,,,304,2023-11-16_16h27.20.073,leap3,2022.2.5,60.020544437665095,
,,,,,,,,,,,,,,,,,,,,9,0,9,0,0,0,0,0,,,,,,primal,w,g,upper,,,,,,,1,w,HiDemTar,g,1,0.8181615999783389,,,,,,,,,,,,,,,,,,304,2023-11-16_16h27.20.073,leap3,2022.2.5,60.020544437665095,
,,,,,,,,,,,,,,,,,,,,9,0,9,0,1,0,1,0,,,,,,forgery,w,g,upper,,,,,,,1,w,HiDemTar,g,1,0.8006921208288986,,,,,,,,,,,,,,,,,,304,2023-11-16_16h27.20.073,leap3,2022.2.5,60.020544437665095,
,,,,,,,,,,,,,,,,,,,,9,0,9,0,2,0,2,0,,,,,,otiates,nw,h,upper,,,,,,,1,nw,HiDemTar,h,1,0.6951801011455245,,,,,,,,,,,,,,,,,,304,2023-11-16_16h27.20.073,leap3,2022.2.5,60.020544437665095,
,,,,,,,,,,,,,,,,,,,,9,0,9,0,3,0,3,0,,,,,,amms,nw,h,upper,,,,,,,1,nw,HiDemTar,h,1,0.6338609496015124,,,,,,,,,,,,,,,,,,304,2023-11-16_16h27.20.073,leap3,2022.2.5,60.020544437665095,
,,,,,,,,,,,,,,,,,,,,9,0,9,0,4,0,4,0,,,,,,provide,w,g,upper,,,,,,,1,w,HiDemTar,g,1,0.6550729830050841,,,,,,,,,,,,,,,,,,304,2023-11-16_16h27.20.073,leap3,2022.2.5,60.020544437665095,
,,,,,,,,,,,,,,,,,,,,9,0,9,0,5,0,5,0,,,,,,accessory,w,g,upper,,,,,,,1,w,HiDemTar,g,1,0.5062612493056804,,,,,,,,,,,,,,,,,,304,2023-11-16_16h27.20.073,leap3,2022.2.5,60.020544437665095,
,,,,,,,,,,,,,,,,,,,,9,0,9,0,6,0,6,0,,,,,,esdings,nw,h,upper,,,,,,,1,nw,HiDemTar,h,1,0.5641647427692078,,,,,,,,,,,,,,,,,,304,2023-11-16_16h27.20.073,leap3,2022.2.5,60.020544437665095,
,,,,,,,,,,,,,,,,,,,,9,0,9,0,7,0,7,0,,,,,,managed,w,g,upper,,,,,,,1,w,HiDemTar,g,1,0.5321201593033038,,,,,,,,,,,,,,,,,,304,2023-11-16_16h27.20.073,leap3,2022.2.5,60.020544437665095,
,,,,,,,,,,,,,,,,,,,,9,0,9,0,8,0,8,0,,,,,,nameplate,w,g,upper,,,,,,,1,w,HiDemTar,g,1,1.1573162819549907,,,,,,,,,,,,,,,,,,304,2023-11-16_16h27.20.073,leap3,2022.2.5,60.020544437665095,
,,,,,,,,,,,,,,,,,,,,9,0,9,0,9,0,9,0,,,,,,eggays,nw,h,upper,,,,,,,1,nw,HiDemTar,h,1,0.6053554780955892,,,,,,,,,,,,,,,,,,304,2023-11-16_16h27.20.073,leap3,2022.2.5,60.020544437665095,
,,,,,,,,,,,,,,,,,,,,9,0,9,0,10,0,10,0,,,,,,emotion,w,g,upper,,,,,,,1,w,HiDemTar,g,1,0.4592956491687801,,,,,,,,,,,,,,,,,,304,2023-11-16_16h27.20.073,leap3,2022.2.5,60.020544437665095,
,,,,,,,,,,,,,,,,,,,,9,0,9,0,11,0,11,0,,,,,,anterior,w,g,upper,,,,,,,1,w,HiDemTar,g,1,1.3512297338456847,,,,,,,,,,,,,,,,,,304,2023-11-16_16h27.20.073,leap3,2022.2.5,60.020544437665095,
,,,,,,,,,,,,,,,,,,,,9,0,9,0,12,0,12,0,,,,,,downtrund,nw,h,upper,,,,,,,1,nw,HiDemTar,h,1,0.6959072415193077,,,,,,,,,,,,,,,,,,304,2023-11-16_16h27.20.073,leap3,2022.2.5,60.020544437665095,
,,,,,,,,,,,,,,,,,,,,9,0,9,0,13,0,13,0,,,,,,moozy,nw,h,upper,,,,,,,1,nw,HiDemTar,h,1,0.5776163865812123,,,,,,,,,,,,,,,,,,304,2023-11-16_16h27.20.073,leap3,2022.2.5,60.020544437665095,
,,,,,,,,,,,,,,,,,,,,9,0,9,0,14,0,14,0,,,,,,culer,nw,h,upper,,,,,,,1,nw,HiDemTar,h,1,0.656905473297229,,,,,,,,,,,,,,,,,,304,2023-11-16_16h27.20.073,leap3,2022.2.5,60.020544437665095,
,,,,,,,,,,,,,,,,,,,,9,0,9,0,15,0,15,0,,,,,,scack,nw,h,upper,,,,,,,1,nw,HiDemTar,h,1,0.8127785277029034,,,,,,,,,,,,,,,,,,304,2023-11-16_16h27.20.073,leap3,2022.2.5,60.020544437665095,
,,,,,,,,,,,,,,,,,,,,9,0,9,0,16,0,16,0,,,,,,image,w,g,upper,,,,,,,1,w,HiDemTar,g,1,0.5627916578960139,,,,,,,,,,,,,,,,,,304,2023-11-16_16h27.20.073,leap3,2022.2.5,60.020544437665095,
,,,,,,,,,,,,,,,,,,,,9,0,9,0,17,0,17,0,,,,,,formation,w,g,upper,,,,,,,1,w,HiDemTar,g,1,0.5387975353805814,,,,,,,,,,,,,,,,,,304,2023-11-16_16h27.20.073,leap3,2022.2.5,60.020544437665095,
,,,,,,,,,,,,,,,,,,,,9,0,9,0,18,0,18,0,,,,,,rillains,nw,h,upper,,,,,,,1,nw,HiDemTar,h,1,0.6914511298236903,,,,,,,,,,,,,,,,,,304,2023-11-16_16h27.20.073,leap3,2022.2.5,60.020544437665095,
,,,,,,,,,,,,,,,,,,,,9,0,9,0,19,0,19,0,,,,,,result,w,g,upper,,,,,,,1,w,HiDemTar,g,1,0.8300711266638245,,,,,,,,,,,,,,,,,,304,2023-11-16_16h27.20.073,leap3,2022.2.5,60.020544437665095,
,,,,,,,,,,,,,,,,,,,,9,0,9,0,20,0,20,0,,,,,,frader,nw,h,upper,,,,,,,1,nw,HiDemTar,h,1,0.5553267728246283,,,,,,,,,,,,,,,,,,304,2023-11-16_16h27.20.073,leap3,2022.2.5,60.020544437665095,
,,,,,,,,,,,,,,,,,,,,9,0,9,0,21,0,21,0,,,,,,capobly,nw,h,upper,,,,,,,1,nw,HiDemTar,h,1,0.7861595764115918,,,,,,,,,,,,,,,,,,304,2023-11-16_16h27.20.073,leap3,2022.2.5,60.020544437665095,
,,,,,,,,,,,,,,,,,,,,9,0,9,0,22,0,22,0,,,,,,smabled,nw,h,upper,,,,,,,1,nw,HiDemTar,h,1,0.7679092288308311,,,,,,,,,,,,,,,,,,304,2023-11-16_16h27.20.073,leap3,2022.2.5,60.020544437665095,
,,,,,,,,,,,,,,,,,,,,9,0,9,0,23,0,23,0,,,,,,booster,w,g,upper,,,,,,,1,w,HiDemTar,g,1,0.5923424125357997,,,,,,,,,,,,,,,,,,304,2023-11-16_16h27.20.073,leap3,2022.2.5,60.020544437665095,
,,,,,,,,,,,,,,,,,,,,9,0,9,0,24,0,24,0,,,,,,balign,nw,h,upper,,,,,,,1,nw,HiDemTar,h,1,0.6395017960167024,,,,,,,,,,,,,,,,,,304,2023-11-16_16h27.20.073,leap3,2022.2.5,60.020544437665095,
,,,,,,,,,,,,,,,,,,,,9,0,9,0,25,0,25,0,,,,,,boulder,w,g,upper,,,,,,,1,w,HiDemTar,g,1,0.5242426545300987,,,,,,,,,,,,,,,,,,304,2023-11-16_16h27.20.073,leap3,2022.2.5,60.020544437665095,
,,,,,,,,,,,,,,,,,,,,9,0,9,0,26,0,26,0,,,,,,undue,w,g,upper,,,,,,,1,w,HiDemTar,g,1,0.5416197696176823,,,,,,,,,,,,,,,,,,304,2023-11-16_16h27.20.073,leap3,2022.2.5,60.020544437665095,
,,,,,,,,,,,,,,,,,,,,9,0,9,0,27,0,27,0,,,,,,dolphin,target,q,upper,,,,,,,1,target,HiDemTar,q,1,0.7583260079554748,1,,,,,,,,,,,,,,,,,304,2023-11-16_16h27.20.073,leap3,2022.2.5,60.020544437665095,
,,,,,,,,,,,,,,,,,,,,9,0,9,0,28,0,28,0,,,,,,planofoad,nw,h,upper,,,,,,,1,aftertar1,HiDemTar,h,1,0.9742076105612796,,,,,,,,,,,,,,,,,,304,2023-11-16_16h27.20.073,leap3,2022.2.5,60.020544437665095,
,,,,,,,,,,,,,,,,,,,,9,0,9,0,29,0,29,0,,,,,,lancos,nw,h,upper,,,,,,,1,aftertar2,HiDemTar,h,1,0.5415548733435571,,,,,,,,,,,,,,,,,,304,2023-11-16_16h27.20.073,leap3,2022.2.5,60.020544437665095,
,,,,,,,,,,,,,,,,,,,,9,0,9,0,,,,,,,,,,,,,,,,,,,,,,,,,,,1,,,,,,,,,,,,,,,,304,2023-11-16_16h27.20.073,leap3,2022.2.5,60.020544437665095,
,,,,,,,,,,,,,,,,,,,,10,0,10,0,0,0,0,0,,,,,,wienegs,nw,h,upper,,,,,,,1,nw,HiDemTar,h,1,0.5176673014939297,,,,,,,,,,,,,,,,,,304,2023-11-16_16h27.20.073,leap3,2022.2.5,60.020544437665095,
,,,,,,,,,,,,,,,,,,,,10,0,10,0,1,0,1,0,,,,,,ephically,nw,h,upper,,,,,,,1,nw,HiDemTar,h,1,0.8476486656873021,,,,,,,,,,,,,,,,,,304,2023-11-16_16h27.20.073,leap3,2022.2.5,60.020544437665095,
,,,,,,,,,,,,,,,,,,,,10,0,10,0,2,0,2,0,,,,,,gerby,nw,h,upper,,,,,,,1,nw,HiDemTar,h,1,0.5722613857360557,,,,,,,,,,,,,,,,,,304,2023-11-16_16h27.20.073,leap3,2022.2.5,60.020544437665095,
,,,,,,,,,,,,,,,,,,,,10,0,10,0,3,0,3,0,,,,,,organize,w,g,upper,,,,,,,1,w,HiDemTar,g,1,0.5636048235755879,,,,,,,,,,,,,,,,,,304,2023-11-16_16h27.20.073,leap3,2022.2.5,60.020544437665095,
,,,,,,,,,,,,,,,,,,,,10,0,10,0,4,0,4,0,,,,,,labitable,nw,h,upper,,,,,,,1,nw,HiDemTar,h,1,0.8595977338554803,,,,,,,,,,,,,,,,,,304,2023-11-16_16h27.20.073,leap3,2022.2.5,60.020544437665095,
,,,,,,,,,,,,,,,,,,,,10,0,10,0,5,0,5,0,,,,,,deadly,w,g,upper,,,,,,,1,w,HiDemTar,g,1,0.8715537444513757,,,,,,,,,,,,,,,,,,304,2023-11-16_16h27.20.073,leap3,2022.2.5,60.020544437665095,
,,,,,,,,,,,,,,,,,,,,10,0,10,0,6,0,6,0,,,,,,repayment,w,g,upper,,,,,,,1,w,HiDemTar,g,1,0.8419839736889116,,,,,,,,,,,,,,,,,,304,2023-11-16_16h27.20.073,leap3,2022.2.5,60.020544437665095,
,,,,,,,,,,,,,,,,,,,,10,0,10,0,7,0,7,0,,,,,,euphoric,w,g,upper,,,,,,,1,w,HiDemTar,g,1,0.5905582171690185,,,,,,,,,,,,,,,,,,304,2023-11-16_16h27.20.073,leap3,2022.2.5,60.020544437665095,
,,,,,,,,,,,,,,,,,,,,10,0,10,0,8,0,8,0,,,,,,eightiech,nw,h,upper,,,,,,,1,nw,HiDemTar,h,1,0.7651491742872167,,,,,,,,,,,,,,,,,,304,2023-11-16_16h27.20.073,leap3,2022.2.5,60.020544437665095,
,,,,,,,,,,,,,,,,,,,,10,0,10,0,9,0,9,0,,,,,,machinery,w,g,upper,,,,,,,1,w,HiDemTar,g,1,0.5411316891259048,,,,,,,,,,,,,,,,,,304,2023-11-16_16h27.20.073,leap3,2022.2.5,60.020544437665095,
,,,,,,,,,,,,,,,,,,,,10,0,10,0,10,0,10,0,,,,,,army,w,g,upper,,,,,,,1,w,HiDemTar,g,1,0.7017548505100422,,,,,,,,,,,,,,,,,,304,2023-11-16_16h27.20.073,leap3,2022.2.5,60.020544437665095,
,,,,,,,,,,,,,,,,,,,,10,0,10,0,11,0,11,0,,,,,,nostril,w,g,upper,,,,,,,1,w,HiDemTar,g,1,0.5273679393867496,,,,,,,,,,,,,,,,,,304,2023-11-16_16h27.20.073,leap3,2022.2.5,60.020544437665095,
,,,,,,,,,,,,,,,,,,,,10,0,10,0,12,0,12,0,,,,,,valif,nw,h,upper,,,,,,,1,nw,HiDemTar,h,1,0.5925244239915628,,,,,,,,,,,,,,,,,,304,2023-11-16_16h27.20.073,leap3,2022.2.5,60.020544437665095,
,,,,,,,,,,,,,,,,,,,,10,0,10,0,13,0,13,0,,,,,,fracture,w,g,upper,,,,,,,1,w,HiDemTar,g,1,0.5198481188854203,,,,,,,,,,,,,,,,,,304,2023-11-16_16h27.20.073,leap3,2022.2.5,60.020544437665095,
,,,,,,,,,,,,,,,,,,,,10,0,10,0,14,0,14,0,,,,,,poyride,nw,h,upper,,,,,,,1,nw,HiDemTar,h,1,0.6657111460226588,,,,,,,,,,,,,,,,,,304,2023-11-16_16h27.20.073,leap3,2022.2.5,60.020544437665095,
,,,,,,,,,,,,,,,,,,,,10,0,10,0,15,0,15,0,,,,,,integral,w,g,upper,,,,,,,1,w,HiDemTar,g,1,0.48560732405167073,,,,,,,,,,,,,,,,,,304,2023-11-16_16h27.20.073,leap3,2022.2.5,60.020544437665095,
,,,,,,,,,,,,,,,,,,,,10,0,10,0,16,0,16,0,,,,,,allained,nw,h,upper,,,,,,,1,nw,HiDemTar,h,1,0.79207630752353,,,,,,,,,,,,,,,,,,304,2023-11-16_16h27.20.073,leap3,2022.2.5,60.020544437665095,
,,,,,,,,,,,,,,,,,,,,10,0,10,0,17,0,17,0,,,,,,infusion,w,g,upper,,,,,,,1,w,HiDemTar,g,1,0.646657291741576,,,,,,,,,,,,,,,,,,304,2023-11-16_16h27.20.073,leap3,2022.2.5,60.020544437665095,
,,,,,,,,,,,,,,,,,,,,10,0,10,0,18,0,18,0,,,,,,oppose,w,g,upper,,,,,,,1,w,HiDemTar,g,1,0.6271923269960098,,,,,,,,,,,,,,,,,,304,2023-11-16_16h27.20.073,leap3,2022.2.5,60.020544437665095,
,,,,,,,,,,,,,,,,,,,,10,0,10,0,19,0,19,0,,,,,,hodels,nw,h,upper,,,,,,,1,nw,HiDemTar,h,1,0.6086057260690723,,,,,,,,,,,,,,,,,,304,2023-11-16_16h27.20.073,leap3,2022.2.5,60.020544437665095,
,,,,,,,,,,,,,,,,,,,,10,0,10,0,20,0,20,0,,,,,,warmer,w,g,upper,,,,,,,1,w,HiDemTar,g,1,0.5745249081519432,,,,,,,,,,,,,,,,,,304,2023-11-16_16h27.20.073,leap3,2022.2.5,60.020544437665095,
,,,,,,,,,,,,,,,,,,,,10,0,10,0,21,0,21,0,,,,,,sonnet,w,g,upper,,,,,,,1,w,HiDemTar,g,1,1.2618898710352369,,,,,,,,,,,,,,,,,,304,2023-11-16_16h27.20.073,leap3,2022.2.5,60.020544437665095,
,,,,,,,,,,,,,,,,,,,,10,0,10,0,22,0,22,0,,,,,,filter,w,g,upper,,,,,,,1,w,HiDemTar,g,1,0.6257866430387367,,,,,,,,,,,,,,,,,,304,2023-11-16_16h27.20.073,leap3,2022.2.5,60.020544437665095,
,,,,,,,,,,,,,,,,,,,,10,0,10,0,23,0,23,0,,,,,,ebciting,nw,h,upper,,,,,,,1,nw,HiDemTar,h,1,0.5910650119476486,,,,,,,,,,,,,,,,,,304,2023-11-16_16h27.20.073,leap3,2022.2.5,60.020544437665095,
,,,,,,,,,,,,,,,,,,,,10,0,10,0,24,0,24,0,,,,,,gorilla,target,q,upper,,,,,,,1,target,HiDemTar,q,1,0.5737331733398605,1,,,,,,,,,,,,,,,,,304,2023-11-16_16h27.20.073,leap3,2022.2.5,60.020544437665095,
,,,,,,,,,,,,,,,,,,,,10,0,10,0,25,0,25,0,,,,,,mogus,nw,h,upper,,,,,,,1,aftertar1,HiDemTar,h,1,0.6041634991706815,,,,,,,,,,,,,,,,,,304,2023-11-16_16h27.20.073,leap3,2022.2.5,60.020544437665095,
,,,,,,,,,,,,,,,,,,,,10,0,10,0,26,0,26,0,,,,,,derisury,nw,h,upper,,,,,,,1,aftertar2,HiDemTar,h,1,0.8340735679958016,,,,,,,,,,,,,,,,,,304,2023-11-16_16h27.20.073,leap3,2022.2.5,60.020544437665095,
,,,,,,,,,,,,,,,,,,,,10,0,10,0,27,0,27,0,,,,,,defensa,nw,h,upper,,,,,,,1,aftertar3,HiDemTar,h,1,0.719314580783248,,,,,,,,,,,,,,,,,,304,2023-11-16_16h27.20.073,leap3,2022.2.5,60.020544437665095,
,,,,,,,,,,,,,,,,,,,,10,0,10,0,28,0,28,0,,,,,,erony,nw,h,upper,,,,,,,1,nw,HiDemTar,h,1,0.776645779464161,,,,,,,,,,,,,,,,,,304,2023-11-16_16h27.20.073,leap3,2022.2.5,60.020544437665095,
,,,,,,,,,,,,,,,,,,,,10,0,10,0,29,0,29,0,,,,,,ireology,nw,h,upper,,,,,,,1,nw,HiDemTar,h,1,0.7999945611227304,,,,,,,,,,,,,,,,,,304,2023-11-16_16h27.20.073,leap3,2022.2.5,60.020544437665095,
,,,,,,,,,,,,,,,,,,,,10,0,10,0,,,,,,,,,,,,,,,,,,,,,,,,,,,1,,,,,,,,,,,,,,,,304,2023-11-16_16h27.20.073,leap3,2022.2.5,60.020544437665095,
,,,,,,,,,,,,,,,,,,,,11,0,11,0,0,0,0,0,,,,,,slooch,nw,h,upper,,,,,,,1,nw,HiDemTar,h,1,0.5822095350886229,,,,,,,,,,,,,,,,,,304,2023-11-16_16h27.20.073,leap3,2022.2.5,60.020544437665095,
,,,,,,,,,,,,,,,,,,,,11,0,11,0,1,0,1,0,,,,,,selongs,nw,h,upper,,,,,,,1,nw,HiDemTar,h,1,0.5722559525456745,,,,,,,,,,,,,,,,,,304,2023-11-16_16h27.20.073,leap3,2022.2.5,60.020544437665095,
,,,,,,,,,,,,,,,,,,,,11,0,11,0,2,0,2,0,,,,,,abraid,nw,h,upper,,,,,,,1,nw,HiDemTar,h,1,0.987784519296838,,,,,,,,,,,,,,,,,,304,2023-11-16_16h27.20.073,leap3,2022.2.5,60.020544437665095,
,,,,,,,,,,,,,,,,,,,,11,0,11,0,3,0,3,0,,,,,,delegate,w,g,upper,,,,,,,1,w,HiDemTar,g,1,0.5951758149603847,,,,,,,,,,,,,,,,,,304,2023-11-16_16h27.20.073,leap3,2022.2.5,60.020544437665095,
,,,,,,,,,,,,,,,,,,,,11,0,11,0,4,0,4,0,,,,,,shivering,w,g,upper,,,,,,,1,w,HiDemTar,g,1,0.5221626528073102,,,,,,,,,,,,,,,,,,304,2023-11-16_16h27.20.073,leap3,2022.2.5,60.020544437665095,
,,,,,,,,,,,,,,,,,,,,11,0,11,0,5,0,5,0,,,,,,veirs,nw,h,upper,,,,,,,1,nw,HiDemTar,h,1,0.5553240562439896,,,,,,,,,,,,,,,,,,304,2023-11-16_16h27.20.073,leap3,2022.2.5,60.020544437665095,
,,,,,,,,,,,,,,,,,,,,11,0,11,0,6,0,6,0,,,,,,miurnal,nw,h,upper,,,,,,,1,nw,HiDemTar,h,1,0.5153521638712846,,,,,,,,,,,,,,,,,,304,2023-11-16_16h27.20.073,leap3,2022.2.5,60.020544437665095,
,,,,,,,,,,,,,,,,,,,,11,0,11,0,7,0,7,0,,,,,,fidelity,w,g,upper,,,,,,,1,w,HiDemTar,g,1,0.7093477171147242,,,,,,,,,,,,,,,,,,304,2023-11-16_16h27.20.073,leap3,2022.2.5,60.020544437665095,
,,,,,,,,,,,,,,,,,,,,11,0,11,0,8,0,8,0,,,,,,culinary,w,g,upper,,,,,,,1,w,HiDemTar,g,1,0.5753866705636028,,,,,,,,,,,,,,,,,,304,2023-11-16_16h27.20.073,leap3,2022.2.5,60.020544437665095,
,,,,,,,,,,,,,,,,,,,,11,0,11,0,9,0,9,0,,,,,,brother,w,g,upper,,,,,,,1,w,HiDemTar,g,1,0.6457239924638998,,,,,,,,,,,,,,,,,,304,2023-11-16_16h27.20.073,leap3,2022.2.5,60.020544437665095,
,,,,,,,,,,,,,,,,,,,,11,0,11,0,10,0,10,0,,,,,,irregular,w,g,upper,,,,,,,1,w,HiDemTar,g,1,0.5222489799489267,,,,,,,,,,,,,,,,,,304,2023-11-16_16h27.20.073,leap3,2022.2.5,60.020544437665095,
,,,,,,,,,,,,,,,,,,,,11,0,11,0,11,0,11,0,,,,,,prawls,nw,h,upper,,,,,,,1,nw,HiDemTar,g,0,0.739534455438843,,,,,,,,,,,,,,,,,,304,2023-11-16_16h27.20.073,leap3,2022.2.5,60.020544437665095,
,,,,,,,,,,,,,,,,,,,,11,0,11,0,12,0,12,0,,,,,,cutout,w,g,upper,,,,,,,1,w,HiDemTar,g,1,0.5881971993658226,,,,,,,,,,,,,,,,,,304,2023-11-16_16h27.20.073,leap3,2022.2.5,60.020544437665095,
,,,,,,,,,,,,,,,,,,,,11,0,11,0,13,0,13,0,,,,,,warden,w,g,upper,,,,,,,1,w,HiDemTar,g,1,0.7068068007356487,,,,,,,,,,,,,,,,,,304,2023-11-16_16h27.20.073,leap3,2022.2.5,60.020544437665095,
,,,,,,,,,,,,,,,,,,,,11,0,11,0,14,0,14,0,,,,,,analysis,w,g,upper,,,,,,,1,w,HiDemTar,g,1,0.5088344628748018,,,,,,,,,,,,,,,,,,304,2023-11-16_16h27.20.073,leap3,2022.2.5,60.020544437665095,
,,,,,,,,,,,,,,,,,,,,11,0,11,0,15,0,15,0,,,,,,deeper,w,g,upper,,,,,,,1,w,HiDemTar,g,1,0.534750421269564,,,,,,,,,,,,,,,,,,304,2023-11-16_16h27.20.073,leap3,2022.2.5,60.020544437665095,
,,,,,,,,,,,,,,,,,,,,11,0,11,0,16,0,16,0,,,,,,ofsters,nw,h,upper,,,,,,,1,nw,HiDemTar,h,1,0.8400733059970662,,,,,,,,,,,,,,,,,,304,2023-11-16_16h27.20.073,leap3,2022.2.5,60.020544437665095,
,,,,,,,,,,,,,,,,,,,,11,0,11,0,17,0,17,0,,,,,,tablet,w,g,upper,,,,,,,1,w,HiDemTar,g,1,0.5727138487272896,,,,,,,,,,,,,,,,,,304,2023-11-16_16h27.20.073,leap3,2022.2.5,60.020544437665095,
,,,,,,,,,,,,,,,,,,,,11,0,11,0,18,0,18,0,,,,,,finstrel,nw,h,upper,,,,,,,1,nw,HiDemTar,h,1,0.6111590180080384,,,,,,,,,,,,,,,,,,304,2023-11-16_16h27.20.073,leap3,2022.2.5,60.020544437665095,
,,,,,,,,,,,,,,,,,,,,11,0,11,0,19,0,19,0,,,,,,newstrint,nw,h,upper,,,,,,,1,nw,HiDemTar,h,1,0.6891094299789984,,,,,,,,,,,,,,,,,,304,2023-11-16_16h27.20.073,leap3,2022.2.5,60.020544437665095,
,,,,,,,,,,,,,,,,,,,,11,0,11,0,20,0,20,0,,,,,,roughly,w,g,upper,,,,,,,1,w,HiDemTar,g,1,0.6115882390877232,,,,,,,,,,,,,,,,,,304,2023-11-16_16h27.20.073,leap3,2022.2.5,60.020544437665095,
,,,,,,,,,,,,,,,,,,,,11,0,11,0,21,0,21,0,,,,,,dounger,nw,h,upper,,,,,,,1,nw,HiDemTar,h,1,0.7295630641747266,,,,,,,,,,,,,,,,,,304,2023-11-16_16h27.20.073,leap3,2022.2.5,60.020544437665095,
,,,,,,,,,,,,,,,,,,,,11,0,11,0,22,0,22,0,,,,,,wimpid,nw,h,upper,,,,,,,1,nw,HiDemTar,h,1,0.5707941257569473,,,,,,,,,,,,,,,,,,304,2023-11-16_16h27.20.073,leap3,2022.2.5,60.020544437665095,
,,,,,,,,,,,,,,,,,,,,11,0,11,0,23,0,23,0,,,,,,tibs,nw,h,upper,,,,,,,1,nw,HiDemTar,h,1,0.617976751178503,,,,,,,,,,,,,,,,,,304,2023-11-16_16h27.20.073,leap3,2022.2.5,60.020544437665095,
,,,,,,,,,,,,,,,,,,,,11,0,11,0,24,0,24,0,,,,,,happen,w,g,upper,,,,,,,1,w,HiDemTar,g,1,0.4719724613823928,,,,,,,,,,,,,,,,,,304,2023-11-16_16h27.20.073,leap3,2022.2.5,60.020544437665095,
,,,,,,,,,,,,,,,,,,,,11,0,11,0,25,0,25,0,,,,,,setwixt,nw,h,upper,,,,,,,1,nw,HiDemTar,h,1,0.8338502039841842,,,,,,,,,,,,,,,,,,304,2023-11-16_16h27.20.073,leap3,2022.2.5,60.020544437665095,
,,,,,,,,,,,,,,,,,,,,11,0,11,0,26,0,26,0,,,,,,harfing,nw,h,upper,,,,,,,1,nw,HiDemTar,h,1,0.6555094483483117,,,,,,,,,,,,,,,,,,304,2023-11-16_16h27.20.073,leap3,2022.2.5,60.020544437665095,
,,,,,,,,,,,,,,,,,,,,11,0,11,0,27,0,27,0,,,,,,acroad,nw,h,upper,,,,,,,1,nw,HiDemTar,h,1,0.5561945721274242,,,,,,,,,,,,,,,,,,304,2023-11-16_16h27.20.073,leap3,2022.2.5,60.020544437665095,
,,,,,,,,,,,,,,,,,,,,11,0,11,0,28,0,28,0,,,,,,ladybug,target,q,upper,,,,,,,1,target,HiDemTar,g,0,0.579253584262915,,,,,,,,,,,,,,,,,,304,2023-11-16_16h27.20.073,leap3,2022.2.5,60.020544437665095,
,,,,,,,,,,,,,,,,,,,,11,0,11,0,29,0,29,0,,,,,,alchemist,w,g,upper,,,,,,,1,aftertar1,HiDemTar,g,1,0.8024053830304183,,,,,,,,,,,,,,,,,,304,2023-11-16_16h27.20.073,leap3,2022.2.5,60.020544437665095,
,,,,,,,,,,,,,,,,,,,,11,0,11,0,,,,,,,,,,,,,,,,,,,,,,,,,,,0,,,,,,,,,,,,,,,,304,2023-11-16_16h27.20.073,leap3,2022.2.5,60.020544437665095,
,,,,,,,,,,,,,,,,,,,,12,0,12,0,0,0,0,0,,,,,,mineluyer,nw,h,upper,,,,,,,2,nw,HiDemNoTar,h,1,0.6969935753149912,,,,,,,,,,,,,,,,,,304,2023-11-16_16h27.20.073,leap3,2022.2.5,60.020544437665095,
,,,,,,,,,,,,,,,,,,,,12,0,12,0,1,0,1,0,,,,,,gigoho,nw,h,upper,,,,,,,2,nw,HiDemNoTar,h,1,0.6267748778045643,,,,,,,,,,,,,,,,,,304,2023-11-16_16h27.20.073,leap3,2022.2.5,60.020544437665095,
,,,,,,,,,,,,,,,,,,,,12,0,12,0,2,0,2,0,,,,,,ifkling,nw,h,upper,,,,,,,2,nw,HiDemNoTar,h,1,0.5839741106610745,,,,,,,,,,,,,,,,,,304,2023-11-16_16h27.20.073,leap3,2022.2.5,60.020544437665095,
,,,,,,,,,,,,,,,,,,,,12,0,12,0,3,0,3,0,,,,,,lavilion,nw,h,upper,,,,,,,2,nw,HiDemNoTar,h,1,0.7034237417683471,,,,,,,,,,,,,,,,,,304,2023-11-16_16h27.20.073,leap3,2022.2.5,60.020544437665095,
,,,,,,,,,,,,,,,,,,,,12,0,12,0,4,0,4,0,,,,,,ounwit,nw,h,upper,,,,,,,2,nw,HiDemNoTar,h,1,0.5529811490268912,,,,,,,,,,,,,,,,,,304,2023-11-16_16h27.20.073,leap3,2022.2.5,60.020544437665095,
,,,,,,,,,,,,,,,,,,,,12,0,12,0,5,0,5,0,,,,,,crudios,nw,h,upper,,,,,,,2,nw,HiDemNoTar,h,1,0.840930842619855,,,,,,,,,,,,,,,,,,304,2023-11-16_16h27.20.073,leap3,2022.2.5,60.020544437665095,
,,,,,,,,,,,,,,,,,,,,12,0,12,0,6,0,6,0,,,,,,contusiok,nw,h,upper,,,,,,,2,nw,HiDemNoTar,h,1,0.5813957657373976,,,,,,,,,,,,,,,,,,304,2023-11-16_16h27.20.073,leap3,2022.2.5,60.020544437665095,
,,,,,,,,,,,,,,,,,,,,12,0,12,0,7,0,7,0,,,,,,resent,w,g,upper,,,,,,,2,w,HiDemNoTar,g,1,0.5885639389161952,,,,,,,,,,,,,,,,,,304,2023-11-16_16h27.20.073,leap3,2022.2.5,60.020544437665095,
,,,,,,,,,,,,,,,,,,,,12,0,12,0,8,0,8,0,,,,,,triangle,w,g,upper,,,,,,,2,w,HiDemNoTar,g,1,0.6430538872082252,,,,,,,,,,,,,,,,,,304,2023-11-16_16h27.20.073,leap3,2022.2.5,60.020544437665095,
,,,,,,,,,,,,,,,,,,,,12,0,12,0,9,0,9,0,,,,,,railroad,w,g,upper,,,,,,,2,w,HiDemNoTar,g,1,0.5196914622210898,,,,,,,,,,,,,,,,,,304,2023-11-16_16h27.20.073,leap3,2022.2.5,60.020544437665095,
,,,,,,,,,,,,,,,,,,,,12,0,12,0,10,0,10,0,,,,,,despise,w,g,upper,,,,,,,2,w,HiDemNoTar,g,1,0.5530074093840085,,,,,,,,,,,,,,,,,,304,2023-11-16_16h27.20.073,leap3,2022.2.5,60.020544437665095,
,,,,,,,,,,,,,,,,,,,,12,0,12,0,11,0,11,0,,,,,,handle,w,g,upper,,,,,,,2,w,HiDemNoTar,g,1,0.488988270109985,,,,,,,,,,,,,,,,,,304,2023-11-16_16h27.20.073,leap3,2022.2.5,60.020544437665095,
,,,,,,,,,,,,,,,,,,,,12,0,12,0,12,0,12,0,,,,,,clooped,nw,h,upper,,,,,,,2,nw,HiDemNoTar,h,1,0.562756342231296,,,,,,,,,,,,,,,,,,304,2023-11-16_16h27.20.073,leap3,2022.2.5,60.020544437665095,
,,,,,,,,,,,,,,,,,,,,12,0,12,0,13,0,13,0,,,,,,stelled,nw,h,upper,,,,,,,2,nw,HiDemNoTar,h,1,0.7307336122321431,,,,,,,,,,,,,,,,,,304,2023-11-16_16h27.20.073,leap3,2022.2.5,60.020544437665095,
,,,,,,,,,,,,,,,,,,,,12,0,12,0,14,0,14,0,,,,,,chone,nw,h,upper,,,,,,,2,nw,HiDemNoTar,h,1,0.5147460626612883,,,,,,,,,,,,,,,,,,304,2023-11-16_16h27.20.073,leap3,2022.2.5,60.020544437665095,
,,,,,,,,,,,,,,,,,,,,12,0,12,0,15,0,15,0,,,,,,paterways,nw,h,upper,,,,,,,2,nw,HiDemNoTar,h,1,0.6771431567321997,,,,,,,,,,,,,,,,,,304,2023-11-16_16h27.20.073,leap3,2022.2.5,60.020544437665095,
,,,,,,,,,,,,,,,,,,,,12,0,12,0,16,0,16,0,,,,,,potent,w,g,upper,,,,,,,2,w,HiDemNoTar,g,1,0.841098365635844,,,,,,,,,,,,,,,,,,304,2023-11-16_16h27.20.073,leap3,2022.2.5,60.020544437665095,
,,,,,,,,,,,,,,,,,,,,12,0,12,0,17,0,17,0,,,,,,intercede,w,g,upper,,,,,,,2,w,HiDemNoTar,h,0,1.4138751845457591,,,,,,,,,,,,,,,,,,304,2023-11-16_16h27.20.073,leap3,2022.2.5,60.020544437665095,
,,,,,,,,,,,,,,,,,,,,12,0,12,0,18,0,18,0,,,,,,glates,nw,h,upper,,,,,,,2,nw,HiDemNoTar,h,1,0.6838655074534472,,,,,,,,,,,,,,,,,,304,2023-11-16_16h27.20.073,leap3,2022.2.5,60.020544437665095,
,,,,,,,,,,,,,,,,,,,,12,0,12,0,19,0,19,0,,,,,,marvel,w,g,upper,,,,,,,2,w,HiDemNoTar,g,1,0.519064835680183,,,,,,,,,,,,,,,,,,304,2023-11-16_16h27.20.073,leap3,2022.2.5,60.020544437665095,
,,,,,,,,,,,,,,,,,,,,12,0,12,0,20,0,20,0,,,,,,other,w,g,upper,,,,,,,2,w,HiDemNoTar,g,1,0.601016179745784,,,,,,,,,,,,,,,,,,304,2023-11-16_16h27.20.073,leap3,2022.2.5,60.020544437665095,
,,,,,,,,,,,,,,,,,,,,12,0,12,0,21,0,21,0,,,,,,medium,w,g,upper,,,,,,,2,w,HiDemNoTar,g,1,0.5269079303252511,,,,,,,,,,,,,,,,,,304,2023-11-16_16h27.20.073,leap3,2022.2.5,60.020544437665095,
,,,,,,,,,,,,,,,,,,,,12,0,12,0,22,0,22,0,,,,,,apop,nw,h,upper,,,,,,,2,nw,HiDemNoTar,h,1,0.5920429840334691,,,,,,,,,,,,,,,,,,304,2023-11-16_16h27.20.073,leap3,2022.2.5,60.020544437665095,
,,,,,,,,,,,,,,,,,,,,12,0,12,0,23,0,23,0,,,,,,sording,nw,h,upper,,,,,,,2,nw,HiDemNoTar,h,1,0.8066809925076086,,,,,,,,,,,,,,,,,,304,2023-11-16_16h27.20.073,leap3,2022.2.5,60.020544437665095,
,,,,,,,,,,,,,,,,,,,,12,0,12,0,24,0,24,0,,,,,,melodic,w,g,upper,,,,,,,2,w,HiDemNoTar,g,1,0.6686181982222479,,,,,,,,,,,,,,,,,,304,2023-11-16_16h27.20.073,leap3,2022.2.5,60.020544437665095,
,,,,,,,,,,,,,,,,,,,,12,0,12,0,25,0,25,0,,,,,,hangar,w,g,upper,,,,,,,2,w,HiDemNoTar,h,0,0.6085260394611396,,,,,,,,,,,,,,,,,,304,2023-11-16_16h27.20.073,leap3,2022.2.5,60.020544437665095,
,,,,,,,,,,,,,,,,,,,,12,0,12,0,26,0,26,0,,,,,,tredits,nw,h,upper,,,,,,,2,nw,HiDemNoTar,h,1,0.6065812635060865,,,,,,,,,,,,,,,,,,304,2023-11-16_16h27.20.073,leap3,2022.2.5,60.020544437665095,
,,,,,,,,,,,,,,,,,,,,12,0,12,0,27,0,27,0,,,,,,holdup,w,g,upper,,,,,,,2,w,HiDemNoTar,h,0,1.0126289342006203,,,,,,,,,,,,,,,,,,304,2023-11-16_16h27.20.073,leap3,2022.2.5,60.020544437665095,
,,,,,,,,,,,,,,,,,,,,12,0,12,0,28,0,28,0,,,,,,ready,w,g,upper,,,,,,,2,w,HiDemNoTar,g,1,0.6745104800502304,,,,,,,,,,,,,,,,,,304,2023-11-16_16h27.20.073,leap3,2022.2.5,60.020544437665095,
,,,,,,,,,,,,,,,,,,,,12,0,12,0,29,0,29,0,,,,,,seldom,w,g,upper,,,,,,,2,w,HiDemNoTar,g,1,0.6218204229371622,,,,,,,,,,,,,,,,,,304,2023-11-16_16h27.20.073,leap3,2022.2.5,60.020544437665095,
,,,,,,,,,,,,,,,,,,,,12,0,12,0,,,,,,,,,,,,,,,,,,,,,,,,,,,NA,,,,,,,,,,,,,,,,304,2023-11-16_16h27.20.073,leap3,2022.2.5,60.020544437665095,
,,,,,,,,,,,,,,,,,,,,13,0,13,0,0,0,0,0,,,,,,mitten,w,g,lower,,,,,,,3,w,LoDemNoTar,g,1,0.5946937713306397,,,,,,,,,,,,,,,,,,304,2023-11-16_16h27.20.073,leap3,2022.2.5,60.020544437665095,
,,,,,,,,,,,,,,,,,,,,13,0,13,0,1,0,1,0,,,,,,chrayed,nw,h,lower,,,,,,,3,nw,LoDemNoTar,h,1,0.9533439042570535,,,,,,,,,,,,,,,,,,304,2023-11-16_16h27.20.073,leap3,2022.2.5,60.020544437665095,
,,,,,,,,,,,,,,,,,,,,13,0,13,0,2,0,2,0,,,,,,ronic,nw,h,lower,,,,,,,3,nw,LoDemNoTar,h,1,0.7773463576158974,,,,,,,,,,,,,,,,,,304,2023-11-16_16h27.20.073,leap3,2022.2.5,60.020544437665095,
,,,,,,,,,,,,,,,,,,,,13,0,13,0,3,0,3,0,,,,,,whirlpool,w,g,lower,,,,,,,3,w,LoDemNoTar,g,1,0.7914481717452873,,,,,,,,,,,,,,,,,,304,2023-11-16_16h27.20.073,leap3,2022.2.5,60.020544437665095,
,,,,,,,,,,,,,,,,,,,,13,0,13,0,4,0,4,0,,,,,,casino,w,g,lower,,,,,,,3,w,LoDemNoTar,g,1,0.7664407615084201,,,,,,,,,,,,,,,,,,304,2023-11-16_16h27.20.073,leap3,2022.2.5,60.020544437665095,
,,,,,,,,,,,,,,,,,,,,13,0,13,0,5,0,5,0,,,,,,pamine,nw,h,lower,,,,,,,3,nw,LoDemNoTar,h,1,0.6461145776265766,,,,,,,,,,,,,,,,,,304,2023-11-16_16h27.20.073,leap3,2022.2.5,60.020544437665095,
,,,,,,,,,,,,,,,,,,,,13,0,13,0,6,0,6,0,,,,,,pleamed,nw,h,lower,,,,,,,3,nw,LoDemNoTar,h,1,0.8028687124024145,,,,,,,,,,,,,,,,,,304,2023-11-16_16h27.20.073,leap3,2022.2.5,60.020544437665095,
,,,,,,,,,,,,,,,,,,,,13,0,13,0,7,0,7,0,,,,,,anonymous,w,g,lower,,,,,,,3,w,LoDemNoTar,g,1,0.6648234250606038,,,,,,,,,,,,,,,,,,304,2023-11-16_16h27.20.073,leap3,2022.2.5,60.020544437665095,
,,,,,,,,,,,,,,,,,,,,13,0,13,0,8,0,8,0,,,,,,buttress,w,g,lower,,,,,,,3,w,LoDemNoTar,g,1,0.7007370351348072,,,,,,,,,,,,,,,,,,304,2023-11-16_16h27.20.073,leap3,2022.2.5,60.020544437665095,
,,,,,,,,,,,,,,,,,,,,13,0,13,0,9,0,9,0,,,,,,senior,w,g,lower,,,,,,,3,w,LoDemNoTar,g,1,0.6634913908783346,,,,,,,,,,,,,,,,,,304,2023-11-16_16h27.20.073,leap3,2022.2.5,60.020544437665095,
,,,,,,,,,,,,,,,,,,,,13,0,13,0,10,0,10,0,,,,,,vergas,nw,h,lower,,,,,,,3,nw,LoDemNoTar,h,1,0.6513518595893402,,,,,,,,,,,,,,,,,,304,2023-11-16_16h27.20.073,leap3,2022.2.5,60.020544437665095,
,,,,,,,,,,,,,,,,,,,,13,0,13,0,11,0,11,0,,,,,,dorth,nw,h,lower,,,,,,,3,nw,LoDemNoTar,h,1,0.6000028919952456,,,,,,,,,,,,,,,,,,304,2023-11-16_16h27.20.073,leap3,2022.2.5,60.020544437665095,
,,,,,,,,,,,,,,,,,,,,13,0,13,0,12,0,12,0,,,,,,venturous,w,g,lower,,,,,,,3,w,LoDemNoTar,g,1,1.310704260977218,,,,,,,,,,,,,,,,,,304,2023-11-16_16h27.20.073,leap3,2022.2.5,60.020544437665095,
,,,,,,,,,,,,,,,,,,,,13,0,13,0,13,0,13,0,,,,,,exploit,w,g,lower,,,,,,,3,w,LoDemNoTar,g,1,0.6637446373642888,,,,,,,,,,,,,,,,,,304,2023-11-16_16h27.20.073,leap3,2022.2.5,60.020544437665095,
,,,,,,,,,,,,,,,,,,,,13,0,13,0,14,0,14,0,,,,,,giving,w,g,lower,,,,,,,3,w,LoDemNoTar,g,1,0.48361032918910496,,,,,,,,,,,,,,,,,,304,2023-11-16_16h27.20.073,leap3,2022.2.5,60.020544437665095,
,,,,,,,,,,,,,,,,,,,,13,0,13,0,15,0,15,0,,,,,,etber,nw,h,lower,,,,,,,3,nw,LoDemNoTar,h,1,0.5669211751956027,,,,,,,,,,,,,,,,,,304,2023-11-16_16h27.20.073,leap3,2022.2.5,60.020544437665095,
,,,,,,,,,,,,,,,,,,,,13,0,13,0,16,0,16,0,,,,,,tinker,w,g,lower,,,,,,,3,w,LoDemNoTar,g,1,0.9828907349146903,,,,,,,,,,,,,,,,,,304,2023-11-16_16h27.20.073,leap3,2022.2.5,60.020544437665095,
,,,,,,,,,,,,,,,,,,,,13,0,13,0,17,0,17,0,,,,,,snorls,nw,h,lower,,,,,,,3,nw,LoDemNoTar,h,1,0.8302048432524316,,,,,,,,,,,,,,,,,,304,2023-11-16_16h27.20.073,leap3,2022.2.5,60.020544437665095,
,,,,,,,,,,,,,,,,,,,,13,0,13,0,18,0,18,0,,,,,,reddar,nw,h,lower,,,,,,,3,nw,LoDemNoTar,h,1,0.6435148018354084,,,,,,,,,,,,,,,,,,304,2023-11-16_16h27.20.073,leap3,2022.2.5,60.020544437665095,
,,,,,,,,,,,,,,,,,,,,13,0,13,0,19,0,19,0,,,,,,fravity,nw,h,lower,,,,,,,3,nw,LoDemNoTar,h,1,0.5761527487193234,,,,,,,,,,,,,,,,,,304,2023-11-16_16h27.20.073,leap3,2022.2.5,60.020544437665095,
,,,,,,,,,,,,,,,,,,,,13,0,13,0,20,0,20,0,,,,,,ulcer,w,g,lower,,,,,,,3,w,LoDemNoTar,h,0,0.5835684333287645,,,,,,,,,,,,,,,,,,304,2023-11-16_16h27.20.073,leap3,2022.2.5,60.020544437665095,
,,,,,,,,,,,,,,,,,,,,13,0,13,0,21,0,21,0,,,,,,mantos,nw,h,lower,,,,,,,3,nw,LoDemNoTar,h,1,0.7187465117895044,,,,,,,,,,,,,,,,,,304,2023-11-16_16h27.20.073,leap3,2022.2.5,60.020544437665095,
,,,,,,,,,,,,,,,,,,,,13,0,13,0,22,0,22,0,,,,,,horks,nw,h,lower,,,,,,,3,nw,LoDemNoTar,h,1,0.7756370193674229,,,,,,,,,,,,,,,,,,304,2023-11-16_16h27.20.073,leap3,2022.2.5,60.020544437665095,
,,,,,,,,,,,,,,,,,,,,13,0,13,0,23,0,23,0,,,,,,serving,w,g,lower,,,,,,,3,w,LoDemNoTar,g,1,0.5510855735046789,,,,,,,,,,,,,,,,,,304,2023-11-16_16h27.20.073,leap3,2022.2.5,60.020544437665095,
,,,,,,,,,,,,,,,,,,,,13,0,13,0,24,0,24,0,,,,,,checkout,w,g,lower,,,,,,,3,w,LoDemNoTar,g,1,0.8788281664310489,,,,,,,,,,,,,,,,,,304,2023-11-16_16h27.20.073,leap3,2022.2.5,60.020544437665095,
,,,,,,,,,,,,,,,,,,,,13,0,13,0,25,0,25,0,,,,,,dialect,w,g,lower,,,,,,,3,w,LoDemNoTar,g,1,0.9221342191740405,,,,,,,,,,,,,,,,,,304,2023-11-16_16h27.20.073,leap3,2022.2.5,60.020544437665095,
,,,,,,,,,,,,,,,,,,,,13,0,13,0,26,0,26,0,,,,,,mestowal,nw,h,lower,,,,,,,3,nw,LoDemNoTar,h,1,0.6582504867692478,,,,,,,,,,,,,,,,,,304,2023-11-16_16h27.20.073,leap3,2022.2.5,60.020544437665095,
,,,,,,,,,,,,,,,,,,,,13,0,13,0,27,0,27,0,,,,,,spiud,nw,h,lower,,,,,,,3,nw,LoDemNoTar,h,1,0.5746643597085495,,,,,,,,,,,,,,,,,,304,2023-11-16_16h27.20.073,leap3,2022.2.5,60.020544437665095,
,,,,,,,,,,,,,,,,,,,,13,0,13,0,28,0,28,0,,,,,,mounting,w,g,lower,,,,,,,3,w,LoDemNoTar,g,1,0.718607965769479,,,,,,,,,,,,,,,,,,304,2023-11-16_16h27.20.073,leap3,2022.2.5,60.020544437665095,
,,,,,,,,,,,,,,,,,,,,13,0,13,0,29,0,29,0,,,,,,treenery,nw,h,lower,,,,,,,3,nw,LoDemNoTar,h,1,0.808448284631595,,,,,,,,,,,,,,,,,,304,2023-11-16_16h27.20.073,leap3,2022.2.5,60.020544437665095,
,,,,,,,,,,,,,,,,,,,,13,0,13,0,,,,,,,,,,,,,,,,,,,,,,,,,,,NA,,,,,,,,,,,,,,,,304,2023-11-16_16h27.20.073,leap3,2022.2.5,60.020544437665095,
,,,,,,,,,,,,,,,,,,,,14,0,14,0,0,0,0,0,,,,,,joadbed,nw,h,lower,,,,,,,3,nw,LoDemNoTar,h,1,0.5740141893911641,,,,,,,,,,,,,,,,,,304,2023-11-16_16h27.20.073,leap3,2022.2.5,60.020544437665095,
,,,,,,,,,,,,,,,,,,,,14,0,14,0,1,0,1,0,,,,,,chappef,nw,h,lower,,,,,,,3,nw,LoDemNoTar,h,1,0.5413306037953589,,,,,,,,,,,,,,,,,,304,2023-11-16_16h27.20.073,leap3,2022.2.5,60.020544437665095,
,,,,,,,,,,,,,,,,,,,,14,0,14,0,2,0,2,0,,,,,,static,w,g,lower,,,,,,,3,w,LoDemNoTar,g,1,0.5579437536653131,,,,,,,,,,,,,,,,,,304,2023-11-16_16h27.20.073,leap3,2022.2.5,60.020544437665095,
,,,,,,,,,,,,,,,,,,,,14,0,14,0,3,0,3,0,,,,,,rearrange,w,g,lower,,,,,,,3,w,LoDemNoTar,g,1,0.6378866328450385,,,,,,,,,,,,,,,,,,304,2023-11-16_16h27.20.073,leap3,2022.2.5,60.020544437665095,
,,,,,,,,,,,,,,,,,,,,14,0,14,0,4,0,4,0,,,,,,theles,nw,h,lower,,,,,,,3,nw,LoDemNoTar,h,1,0.7145312710199505,,,,,,,,,,,,,,,,,,304,2023-11-16_16h27.20.073,leap3,2022.2.5,60.020544437665095,
,,,,,,,,,,,,,,,,,,,,14,0,14,0,5,0,5,0,,,,,,borrent,nw,h,lower,,,,,,,3,nw,LoDemNoTar,h,1,0.7645207366731483,,,,,,,,,,,,,,,,,,304,2023-11-16_16h27.20.073,leap3,2022.2.5,60.020544437665095,
,,,,,,,,,,,,,,,,,,,,14,0,14,0,6,0,6,0,,,,,,sooled,nw,h,lower,,,,,,,3,nw,LoDemNoTar,h,1,0.5555537589243613,,,,,,,,,,,,,,,,,,304,2023-11-16_16h27.20.073,leap3,2022.2.5,60.020544437665095,
,,,,,,,,,,,,,,,,,,,,14,0,14,0,7,0,7,0,,,,,,dontrite,nw,h,lower,,,,,,,3,nw,LoDemNoTar,h,1,0.8115569681394845,,,,,,,,,,,,,,,,,,304,2023-11-16_16h27.20.073,leap3,2022.2.5,60.020544437665095,
,,,,,,,,,,,,,,,,,,,,14,0,14,0,8,0,8,0,,,,,,funtair,nw,h,lower,,,,,,,3,nw,LoDemNoTar,h,1,0.5374911578546744,,,,,,,,,,,,,,,,,,304,2023-11-16_16h27.20.073,leap3,2022.2.5,60.020544437665095,
,,,,,,,,,,,,,,,,,,,,14,0,14,0,9,0,9,0,,,,,,corduroy,w,g,lower,,,,,,,3,w,LoDemNoTar,g,1,0.6900517845642753,,,,,,,,,,,,,,,,,,304,2023-11-16_16h27.20.073,leap3,2022.2.5,60.020544437665095,
,,,,,,,,,,,,,,,,,,,,14,0,14,0,10,0,10,0,,,,,,flooted,nw,h,lower,,,,,,,3,nw,LoDemNoTar,h,1,0.5887193881499115,,,,,,,,,,,,,,,,,,304,2023-11-16_16h27.20.073,leap3,2022.2.5,60.020544437665095,
,,,,,,,,,,,,,,,,,,,,14,0,14,0,11,0,11,0,,,,,,comply,w,g,lower,,,,,,,3,w,LoDemNoTar,g,1,0.8273865329683758,,,,,,,,,,,,,,,,,,304,2023-11-16_16h27.20.073,leap3,2022.2.5,60.020544437665095,
,,,,,,,,,,,,,,,,,,,,14,0,14,0,12,0,12,0,,,,,,frose,nw,h,lower,,,,,,,3,nw,LoDemNoTar,h,1,0.56068237737054,,,,,,,,,,,,,,,,,,304,2023-11-16_16h27.20.073,leap3,2022.2.5,60.020544437665095,
,,,,,,,,,,,,,,,,,,,,14,0,14,0,13,0,13,0,,,,,,gazes,w,g,lower,,,,,,,3,w,LoDemNoTar,g,1,1.2406588215089869,,,,,,,,,,,,,,,,,,304,2023-11-16_16h27.20.073,leap3,2022.2.5,60.020544437665095,
,,,,,,,,,,,,,,,,,,,,14,0,14,0,14,0,14,0,,,,,,alber,nw,h,lower,,,,,,,3,nw,LoDemNoTar,h,1,0.6453168059524614,,,,,,,,,,,,,,,,,,304,2023-11-16_16h27.20.073,leap3,2022.2.5,60.020544437665095,
,,,,,,,,,,,,,,,,,,,,14,0,14,0,15,0,15,0,,,,,,actual,w,g,lower,,,,,,,3,w,LoDemNoTar,g,1,0.6158463416213635,,,,,,,,,,,,,,,,,,304,2023-11-16_16h27.20.073,leap3,2022.2.5,60.020544437665095,
,,,,,,,,,,,,,,,,,,,,14,0,14,0,16,0,16,0,,,,,,coster,nw,h,lower,,,,,,,3,nw,LoDemNoTar,h,1,2.7979676838149317,,,,,,,,,,,,,,,,,,304,2023-11-16_16h27.20.073,leap3,2022.2.5,60.020544437665095,
,,,,,,,,,,,,,,,,,,,,14,0,14,0,17,0,17,0,,,,,,outset,w,g,lower,,,,,,,3,w,LoDemNoTar,g,1,0.6134880404279102,,,,,,,,,,,,,,,,,,304,2023-11-16_16h27.20.073,leap3,2022.2.5,60.020544437665095,
,,,,,,,,,,,,,,,,,,,,14,0,14,0,18,0,18,0,,,,,,tuckel,nw,h,lower,,,,,,,3,nw,LoDemNoTar,h,1,0.7074593858269509,,,,,,,,,,,,,,,,,,304,2023-11-16_16h27.20.073,leap3,2022.2.5,60.020544437665095,
,,,,,,,,,,,,,,,,,,,,14,0,14,0,19,0,19,0,,,,,,snays,nw,h,lower,,,,,,,3,nw,LoDemNoTar,h,1,0.9014416579739191,,,,,,,,,,,,,,,,,,304,2023-11-16_16h27.20.073,leap3,2022.2.5,60.020544437665095,
,,,,,,,,,,,,,,,,,,,,14,0,14,0,20,0,20,0,,,,,,overwork,w,g,lower,,,,,,,3,w,LoDemNoTar,g,1,0.6554665866133291,,,,,,,,,,,,,,,,,,304,2023-11-16_16h27.20.073,leap3,2022.2.5,60.020544437665095,
,,,,,,,,,,,,,,,,,,,,14,0,14,0,21,0,21,0,,,,,,colored,w,g,lower,,,,,,,3,w,LoDemNoTar,g,1,0.7313729161978699,,,,,,,,,,,,,,,,,,304,2023-11-16_16h27.20.073,leap3,2022.2.5,60.020544437665095,
,,,,,,,,,,,,,,,,,,,,14,0,14,0,22,0,22,0,,,,,,region,w,g,lower,,,,,,,3,w,LoDemNoTar,g,1,0.5327042259741575,,,,,,,,,,,,,,,,,,304,2023-11-16_16h27.20.073,leap3,2022.2.5,60.020544437665095,
,,,,,,,,,,,,,,,,,,,,14,0,14,0,23,0,23,0,,,,,,deakers,nw,h,lower,,,,,,,3,nw,LoDemNoTar,h,1,0.6211370498640463,,,,,,,,,,,,,,,,,,304,2023-11-16_16h27.20.073,leap3,2022.2.5,60.020544437665095,
,,,,,,,,,,,,,,,,,,,,14,0,14,0,24,0,24,0,,,,,,parlayid,nw,h,lower,,,,,,,3,nw,LoDemNoTar,h,1,0.7864538735593669,,,,,,,,,,,,,,,,,,304,2023-11-16_16h27.20.073,leap3,2022.2.5,60.020544437665095,
,,,,,,,,,,,,,,,,,,,,14,0,14,0,25,0,25,0,,,,,,airline,w,g,lower,,,,,,,3,w,LoDemNoTar,g,1,0.752996060095029,,,,,,,,,,,,,,,,,,304,2023-11-16_16h27.20.073,leap3,2022.2.5,60.020544437665095,
,,,,,,,,,,,,,,,,,,,,14,0,14,0,26,0,26,0,,,,,,inducing,w,g,lower,,,,,,,3,w,LoDemNoTar,g,1,0.5849143523082603,,,,,,,,,,,,,,,,,,304,2023-11-16_16h27.20.073,leap3,2022.2.5,60.020544437665095,
,,,,,,,,,,,,,,,,,,,,14,0,14,0,27,0,27,0,,,,,,oppose,w,g,lower,,,,,,,3,w,LoDemNoTar,g,1,0.5355838104151189,,,,,,,,,,,,,,,,,,304,2023-11-16_16h27.20.073,leap3,2022.2.5,60.020544437665095,
,,,,,,,,,,,,,,,,,,,,14,0,14,0,28,0,28,0,,,,,,daylight,w,g,lower,,,,,,,3,w,LoDemNoTar,g,1,0.5521836791886017,,,,,,,,,,,,,,,,,,304,2023-11-16_16h27.20.073,leap3,2022.2.5,60.020544437665095,
,,,,,,,,,,,,,,,,,,,,14,0,14,0,29,0,29,0,,,,,,expounded,w,g,lower,,,,,,,3,w,LoDemNoTar,g,1,1.2482489715330303,,,,,,,,,,,,,,,,,,304,2023-11-16_16h27.20.073,leap3,2022.2.5,60.020544437665095,
,,,,,,,,,,,,,,,,,,,,14,0,14,0,,,,,,,,,,,,,,,,,,,,,,,,,,,NA,,,,,,,,,,,,,,,,304,2023-11-16_16h27.20.073,leap3,2022.2.5,60.020544437665095,
,,,,,,,,,,,,,,,,,,,,15,0,15,0,0,0,0,0,,,,,,aviation,w,g,lower,,,,,,,4,w,LoDemTar,g,1,0.6363306309795007,,,,,,,,,,,,,,,,,,304,2023-11-16_16h27.20.073,leap3,2022.2.5,60.020544437665095,
,,,,,,,,,,,,,,,,,,,,15,0,15,0,1,0,1,0,,,,,,togglo,nw,h,lower,,,,,,,4,nw,LoDemTar,h,1,0.6170147767697927,,,,,,,,,,,,,,,,,,304,2023-11-16_16h27.20.073,leap3,2022.2.5,60.020544437665095,
,,,,,,,,,,,,,,,,,,,,15,0,15,0,2,0,2,0,,,,,,oginous,nw,h,lower,,,,,,,4,nw,LoDemTar,h,1,0.6790040202904493,,,,,,,,,,,,,,,,,,304,2023-11-16_16h27.20.073,leap3,2022.2.5,60.020544437665095,
,,,,,,,,,,,,,,,,,,,,15,0,15,0,3,0,3,0,,,,,,stretches,w,g,lower,,,,,,,4,w,LoDemTar,g,1,0.6012507119448856,,,,,,,,,,,,,,,,,,304,2023-11-16_16h27.20.073,leap3,2022.2.5,60.020544437665095,
,,,,,,,,,,,,,,,,,,,,15,0,15,0,4,0,4,0,,,,,,huntry,nw,h,lower,,,,,,,4,nw,LoDemTar,h,1,0.9271490426908713,,,,,,,,,,,,,,,,,,304,2023-11-16_16h27.20.073,leap3,2022.2.5,60.020544437665095,
,,,,,,,,,,,,,,,,,,,,15,0,15,0,5,0,5,0,,,,,,prame,nw,h,lower,,,,,,,4,nw,LoDemTar,h,1,0.7051813749130815,,,,,,,,,,,,,,,,,,304,2023-11-16_16h27.20.073,leap3,2022.2.5,60.020544437665095,
,,,,,,,,,,,,,,,,,,,,15,0,15,0,6,0,6,0,,,,,,contain,w,g,lower,,,,,,,4,w,LoDemTar,g,1,0.9156023315445054,,,,,,,,,,,,,,,,,,304,2023-11-16_16h27.20.073,leap3,2022.2.5,60.020544437665095,
,,,,,,,,,,,,,,,,,,,,15,0,15,0,7,0,7,0,,,,,,trises,nw,h,lower,,,,,,,4,nw,LoDemTar,h,1,0.5724886736716144,,,,,,,,,,,,,,,,,,304,2023-11-16_16h27.20.073,leap3,2022.2.5,60.020544437665095,
,,,,,,,,,,,,,,,,,,,,15,0,15,0,8,0,8,0,,,,,,unversed,w,g,lower,,,,,,,4,w,LoDemTar,g,1,0.8198784842970781,,,,,,,,,,,,,,,,,,304,2023-11-16_16h27.20.073,leap3,2022.2.5,60.020544437665095,
,,,,,,,,,,,,,,,,,,,,15,0,15,0,9,0,9,0,,,,,,rualify,nw,h,lower,,,,,,,4,nw,LoDemTar,h,1,0.769061666331254,,,,,,,,,,,,,,,,,,304,2023-11-16_16h27.20.073,leap3,2022.2.5,60.020544437665095,
,,,,,,,,,,,,,,,,,,,,15,0,15,0,10,0,10,0,,,,,,absent,w,g,lower,,,,,,,4,w,LoDemTar,g,1,0.5443671467655804,,,,,,,,,,,,,,,,,,304,2023-11-16_16h27.20.073,leap3,2022.2.5,60.020544437665095,
,,,,,,,,,,,,,,,,,,,,15,0,15,0,11,0,11,0,,,,,,turning,w,g,lower,,,,,,,4,w,LoDemTar,g,1,0.6172124841250479,,,,,,,,,,,,,,,,,,304,2023-11-16_16h27.20.073,leap3,2022.2.5,60.020544437665095,
,,,,,,,,,,,,,,,,,,,,15,0,15,0,12,0,12,0,,,,,,maiden,w,g,lower,,,,,,,4,w,LoDemTar,g,1,0.7744112339860294,,,,,,,,,,,,,,,,,,304,2023-11-16_16h27.20.073,leap3,2022.2.5,60.020544437665095,
,,,,,,,,,,,,,,,,,,,,15,0,15,0,13,0,13,0,,,,,,frowsed,nw,h,lower,,,,,,,4,nw,LoDemTar,h,1,0.8616478531330358,,,,,,,,,,,,,,,,,,304,2023-11-16_16h27.20.073,leap3,2022.2.5,60.020544437665095,
,,,,,,,,,,,,,,,,,,,,15,0,15,0,14,0,14,0,,,,,,houted,nw,h,lower,,,,,,,4,nw,LoDemTar,h,1,0.6655662612756714,,,,,,,,,,,,,,,,,,304,2023-11-16_16h27.20.073,leap3,2022.2.5,60.020544437665095,
,,,,,,,,,,,,,,,,,,,,15,0,15,0,15,0,15,0,,,,,,vintnel,nw,h,lower,,,,,,,4,nw,LoDemTar,h,1,0.7176867402158678,,,,,,,,,,,,,,,,,,304,2023-11-16_16h27.20.073,leap3,2022.2.5,60.020544437665095,
,,,,,,,,,,,,,,,,,,,,15,0,15,0,16,0,16,0,,,,,,hatred,w,g,lower,,,,,,,4,w,LoDemTar,g,1,0.6540732782450505,,,,,,,,,,,,,,,,,,304,2023-11-16_16h27.20.073,leap3,2022.2.5,60.020544437665095,
,,,,,,,,,,,,,,,,,,,,15,0,15,0,17,0,17,0,,,,,,slooping,nw,h,lower,,,,,,,4,nw,LoDemTar,h,1,0.977921187877655,,,,,,,,,,,,,,,,,,304,2023-11-16_16h27.20.073,leap3,2022.2.5,60.020544437665095,
,,,,,,,,,,,,,,,,,,,,15,0,15,0,18,0,18,0,,,,,,acting,w,g,lower,,,,,,,4,w,LoDemTar,g,1,0.9932424486614764,,,,,,,,,,,,,,,,,,304,2023-11-16_16h27.20.073,leap3,2022.2.5,60.020544437665095,
,,,,,,,,,,,,,,,,,,,,15,0,15,0,19,0,19,0,,,,,,foster,w,g,lower,,,,,,,4,w,LoDemTar,g,1,0.8557993385766167,,,,,,,,,,,,,,,,,,304,2023-11-16_16h27.20.073,leap3,2022.2.5,60.020544437665095,
,,,,,,,,,,,,,,,,,,,,15,0,15,0,20,0,20,0,,,,,,latter,w,g,lower,,,,,,,4,w,LoDemTar,g,1,0.6357719191291835,,,,,,,,,,,,,,,,,,304,2023-11-16_16h27.20.073,leap3,2022.2.5,60.020544437665095,
,,,,,,,,,,,,,,,,,,,,15,0,15,0,21,0,21,0,,,,,,razelle,nw,h,lower,,,,,,,4,nw,LoDemTar,h,1,1.3124926821619738,,,,,,,,,,,,,,,,,,304,2023-11-16_16h27.20.073,leap3,2022.2.5,60.020544437665095,
,,,,,,,,,,,,,,,,,,,,15,0,15,0,22,0,22,0,,,,,,brongs,nw,h,lower,,,,,,,4,nw,LoDemTar,h,1,0.8663867919240147,,,,,,,,,,,,,,,,,,304,2023-11-16_16h27.20.073,leap3,2022.2.5,60.020544437665095,
,,,,,,,,,,,,,,,,,,,,15,0,15,0,23,0,23,0,,,,,,frequency,w,g,lower,,,,,,,4,w,LoDemTar,g,1,0.5184566215611994,,,,,,,,,,,,,,,,,,304,2023-11-16_16h27.20.073,leap3,2022.2.5,60.020544437665095,
,,,,,,,,,,,,,,,,,,,,15,0,15,0,24,0,24,0,,,,,,superstar,w,g,lower,,,,,,,4,w,LoDemTar,g,1,0.6467873861838598,,,,,,,,,,,,,,,,,,304,2023-11-16_16h27.20.073,leap3,2022.2.5,60.020544437665095,
,,,,,,,,,,,,,,,,,,,,15,0,15,0,25,0,25,0,,,,,,rabbit,target,q,lower,,,,,,,4,target,LoDemTar,q,1,0.5702254530915525,1,,,,,,,,,,,,,,,,,304,2023-11-16_16h27.20.073,leap3,2022.2.5,60.020544437665095,
,,,,,,,,,,,,,,,,,,,,15,0,15,0,26,0,26,0,,,,,,loneliest,w,g,lower,,,,,,,4,aftertar1,LoDemTar,h,0,1.9934437781048473,,,,,,,,,,,,,,,,,,304,2023-11-16_16h27.20.073,leap3,2022.2.5,60.020544437665095,
,,,,,,,,,,,,,,,,,,,,15,0,15,0,27,0,27,0,,,,,,donastic,nw,h,lower,,,,,,,4,aftertar2,LoDemTar,h,1,0.8410144532099366,,,,,,,,,,,,,,,,,,304,2023-11-16_16h27.20.073,leap3,2022.2.5,60.020544437665095,
,,,,,,,,,,,,,,,,,,,,15,0,15,0,28,0,28,0,,,,,,glocked,nw,h,lower,,,,,,,4,aftertar3,LoDemTar,h,1,0.933914556982927,,,,,,,,,,,,,,,,,,304,2023-11-16_16h27.20.073,leap3,2022.2.5,60.020544437665095,
,,,,,,,,,,,,,,,,,,,,15,0,15,0,29,0,29,0,,,,,,caloric,w,g,lower,,,,,,,4,nw,LoDemTar,g,1,0.6064704870223068,,,,,,,,,,,,,,,,,,304,2023-11-16_16h27.20.073,leap3,2022.2.5,60.020544437665095,
,,,,,,,,,,,,,,,,,,,,15,0,15,0,,,,,,,,,,,,,,,,,,,,,,,,,,,1,,,,,,,,,,,,,,,,304,2023-11-16_16h27.20.073,leap3,2022.2.5,60.020544437665095,
,,,,,,,,,,,,,,,,,,,,16,0,16,0,0,0,0,0,,,,,,optional,w,g,lower,,,,,,,3,w,LoDemNoTar,g,1,0.5960659506672528,,,,,,,,,,,,,,,,,,304,2023-11-16_16h27.20.073,leap3,2022.2.5,60.020544437665095,
,,,,,,,,,,,,,,,,,,,,16,0,16,0,1,0,1,0,,,,,,publish,w,g,lower,,,,,,,3,w,LoDemNoTar,g,1,0.6106642969534732,,,,,,,,,,,,,,,,,,304,2023-11-16_16h27.20.073,leap3,2022.2.5,60.020544437665095,
,,,,,,,,,,,,,,,,,,,,16,0,16,0,2,0,2,0,,,,,,release,w,g,lower,,,,,,,3,w,LoDemNoTar,g,1,0.5685967069875915,,,,,,,,,,,,,,,,,,304,2023-11-16_16h27.20.073,leap3,2022.2.5,60.020544437665095,
,,,,,,,,,,,,,,,,,,,,16,0,16,0,3,0,3,0,,,,,,statute,w,g,lower,,,,,,,3,w,LoDemNoTar,g,1,0.6799614670453593,,,,,,,,,,,,,,,,,,304,2023-11-16_16h27.20.073,leap3,2022.2.5,60.020544437665095,
,,,,,,,,,,,,,,,,,,,,16,0,16,0,4,0,4,0,,,,,,rantho,nw,h,lower,,,,,,,3,nw,LoDemNoTar,h,1,0.5552694225916639,,,,,,,,,,,,,,,,,,304,2023-11-16_16h27.20.073,leap3,2022.2.5,60.020544437665095,
,,,,,,,,,,,,,,,,,,,,16,0,16,0,5,0,5,0,,,,,,oalis,nw,h,lower,,,,,,,3,nw,LoDemNoTar,h,1,0.667236963607138,,,,,,,,,,,,,,,,,,304,2023-11-16_16h27.20.073,leap3,2022.2.5,60.020544437665095,
,,,,,,,,,,,,,,,,,,,,16,0,16,0,6,0,6,0,,,,,,gradielts,nw,h,lower,,,,,,,3,nw,LoDemNoTar,h,1,0.7025251544546336,,,,,,,,,,,,,,,,,,304,2023-11-16_16h27.20.073,leap3,2022.2.5,60.020544437665095,
,,,,,,,,,,,,,,,,,,,,16,0,16,0,7,0,7,0,,,,,,vivid,w,g,lower,,,,,,,3,w,LoDemNoTar,g,1,0.5596177762781736,,,,,,,,,,,,,,,,,,304,2023-11-16_16h27.20.073,leap3,2022.2.5,60.020544437665095,
