demoRace_loop.thisRepN,demoRace_loop.thisTrialN,demoRace_loop.thisN,demoRace_loop.thisIndex,LDTunderstand.thisRepN,LDTunderstand.thisTrialN,LDTunderstand.thisN,LDTunderstand.thisIndex,pracBlocks.thisRepN,pracBlocks.thisTrialN,pracBlocks.thisN,pracBlocks.thisIndex,pracTrial.thisRepN,pracTrial.thisTrialN,pracTrial.thisN,pracTrial.thisIndex,PMunderstand.thisRepN,PMunderstand.thisTrialN,PMunderstand.thisN,PMunderstand.thisIndex,LDT_block.thisRepN,LDT_block.thisTrialN,LDT_block.thisN,LDT_block.thisIndex,LDT_trial.thisRepN,LDT_trial.thisTrialN,LDT_trial.thisN,LDT_trial.thisIndex,ageTextbox.text,genderTextbox.text,race,raceResp,LDTunderstand,stim,word_type,corr_key,stim_location,LDTpracKey.keys,LDTpracKey.corr,LDTpracKey.rt,PMunderstand,cueTextbox.text,intentionTextbox.text,block_type,role,block_desc,lateQResp.keys,LDTResp.keys,LDTResp.corr,LDTResp.rt,blankQResp.keys,pressedQ,blankQResp.rt,PM_corr,lateQResp.rt,postQ1,Q2Textbox.text,Q3Textbox.text,Q4,Q5,Q6Key.keys,Q6Key.rt,postQ7_correct,postQ7,Q8Textbox.text,education,medTextbox.text,health,healthLimit,psych,participant,date,expName,psychopyVersion,frameRate,
0,0,0,0,,,,,,,,,,,,,,,,,,,,,,,,,"
18", female,American Indian or Alaska Native,n,,,,,,,,,,,,,,,,,,,,,,,,,,,,,,,,,,,,,,,325,2023-11-09_10h53.21.779,leap3,2022.2.5,60.09037840812557,
1,0,1,0,,,,,,,,,,,,,,,,,,,,,,,,,,,Asian,n,,,,,,,,,,,,,,,,,,,,,,,,,,,,,,,,,,,,,,,325,2023-11-09_10h53.21.779,leap3,2022.2.5,60.09037840812557,
2,0,2,0,,,,,,,,,,,,,,,,,,,,,,,,,,,Black or African American,n,,,,,,,,,,,,,,,,,,,,,,,,,,,,,,,,,,,,,,,325,2023-11-09_10h53.21.779,leap3,2022.2.5,60.09037840812557,
3,0,3,0,,,,,,,,,,,,,,,,,,,,,,,,,,,Native Hawaiian or other Pacific Islander,n,,,,,,,,,,,,,,,,,,,,,,,,,,,,,,,,,,,,,,,325,2023-11-09_10h53.21.779,leap3,2022.2.5,60.09037840812557,
4,0,4,0,,,,,,,,,,,,,,,,,,,,,,,,,,,White,y,,,,,,,,,,,,,,,,,,,,,,,,,,,,,,,,,,,,,,,325,2023-11-09_10h53.21.779,leap3,2022.2.5,60.09037840812557,
,,,,0,0,0,0,,,,,,,,,,,,,,,,,,,,,,,,,y,,,,,,,,,,,,,,,,,,,,,,,,,,,,,,,,,,,,,,325,2023-11-09_10h53.21.779,leap3,2022.2.5,60.09037840812557,
,,,,,,,,0,0,0,0,0,0,0,0,,,,,,,,,,,,,,,,,,umpire,w,g,lower,g,1,0.6909893385600299,,,,,,,,,,,,,,,,,,,,,,,,,,,,,,,325,2023-11-09_10h53.21.779,leap3,2022.2.5,60.09037840812557,
,,,,,,,,0,0,0,0,1,0,1,0,,,,,,,,,,,,,,,,,,overshoot,w,g,lower,g,1,0.5304180211387575,,,,,,,,,,,,,,,,,,,,,,,,,,,,,,,325,2023-11-09_10h53.21.779,leap3,2022.2.5,60.09037840812557,
,,,,,,,,0,0,0,0,2,0,2,0,,,,,,,,,,,,,,,,,,lumbigo,nw,h,lower,h,1,0.5743937906809151,,,,,,,,,,,,,,,,,,,,,,,,,,,,,,,325,2023-11-09_10h53.21.779,leap3,2022.2.5,60.09037840812557,
,,,,,,,,0,0,0,0,3,0,3,0,,,,,,,,,,,,,,,,,,slumber,w,g,lower,g,1,0.5975784866604954,,,,,,,,,,,,,,,,,,,,,,,,,,,,,,,325,2023-11-09_10h53.21.779,leap3,2022.2.5,60.09037840812557,
,,,,,,,,0,0,0,0,4,0,4,0,,,,,,,,,,,,,,,,,,unscrew,w,g,lower,g,1,0.6240112911909819,,,,,,,,,,,,,,,,,,,,,,,,,,,,,,,325,2023-11-09_10h53.21.779,leap3,2022.2.5,60.09037840812557,
,,,,,,,,0,0,0,0,5,0,5,0,,,,,,,,,,,,,,,,,,picture,w,g,lower,g,1,0.48032576870173216,,,,,,,,,,,,,,,,,,,,,,,,,,,,,,,325,2023-11-09_10h53.21.779,leap3,2022.2.5,60.09037840812557,
,,,,,,,,0,0,0,0,6,0,6,0,,,,,,,,,,,,,,,,,,raestro,nw,h,lower,h,1,0.5703166876919568,,,,,,,,,,,,,,,,,,,,,,,,,,,,,,,325,2023-11-09_10h53.21.779,leap3,2022.2.5,60.09037840812557,
,,,,,,,,0,0,0,0,7,0,7,0,,,,,,,,,,,,,,,,,,treeps,nw,h,lower,g,0,0.44999695545993745,,,,,,,,,,,,,,,,,,,,,,,,,,,,,,,325,2023-11-09_10h53.21.779,leap3,2022.2.5,60.09037840812557,
,,,,,,,,0,0,0,0,8,0,8,0,,,,,,,,,,,,,,,,,,alolition,nw,h,lower,h,1,0.6230594706721604,,,,,,,,,,,,,,,,,,,,,,,,,,,,,,,325,2023-11-09_10h53.21.779,leap3,2022.2.5,60.09037840812557,
,,,,,,,,0,0,0,0,9,0,9,0,,,,,,,,,,,,,,,,,,infinity,w,g,lower,g,1,0.6268839687108994,,,,,,,,,,,,,,,,,,,,,,,,,,,,,,,325,2023-11-09_10h53.21.779,leap3,2022.2.5,60.09037840812557,
,,,,,,,,0,0,0,0,10,0,10,0,,,,,,,,,,,,,,,,,,latador,nw,h,lower,h,1,0.5526088506449014,,,,,,,,,,,,,,,,,,,,,,,,,,,,,,,325,2023-11-09_10h53.21.779,leap3,2022.2.5,60.09037840812557,
,,,,,,,,0,0,0,0,11,0,11,0,,,,,,,,,,,,,,,,,,trotch,nw,h,lower,h,1,0.594302237033844,,,,,,,,,,,,,,,,,,,,,,,,,,,,,,,325,2023-11-09_10h53.21.779,leap3,2022.2.5,60.09037840812557,
,,,,,,,,0,0,0,0,12,0,12,0,,,,,,,,,,,,,,,,,,tricycle,w,g,lower,g,1,0.6078978779260069,,,,,,,,,,,,,,,,,,,,,,,,,,,,,,,325,2023-11-09_10h53.21.779,leap3,2022.2.5,60.09037840812557,
,,,,,,,,0,0,0,0,13,0,13,0,,,,,,,,,,,,,,,,,,grutch,nw,h,lower,h,1,0.5420669815503061,,,,,,,,,,,,,,,,,,,,,,,,,,,,,,,325,2023-11-09_10h53.21.779,leap3,2022.2.5,60.09037840812557,
,,,,,,,,0,0,0,0,,,,,,,,,,,,,,,,,,,,,,,,,,,,,,,,,,,,,,,,,,,,,,,,,,,,,,,,,,,325,2023-11-09_10h53.21.779,leap3,2022.2.5,60.09037840812557,
,,,,,,,,1,0,1,0,0,0,0,0,,,,,,,,,,,,,,,,,,sponsor,w,g,upper,g,1,0.5035664152819663,,,,,,,,,,,,,,,,,,,,,,,,,,,,,,,325,2023-11-09_10h53.21.779,leap3,2022.2.5,60.09037840812557,
,,,,,,,,1,0,1,0,1,0,1,0,,,,,,,,,,,,,,,,,,busted,w,g,upper,g,1,0.440696922596544,,,,,,,,,,,,,,,,,,,,,,,,,,,,,,,325,2023-11-09_10h53.21.779,leap3,2022.2.5,60.09037840812557,
,,,,,,,,1,0,1,0,2,0,2,0,,,,,,,,,,,,,,,,,,curlecs,nw,h,upper,h,1,0.49342844914644957,,,,,,,,,,,,,,,,,,,,,,,,,,,,,,,325,2023-11-09_10h53.21.779,leap3,2022.2.5,60.09037840812557,
,,,,,,,,1,0,1,0,3,0,3,0,,,,,,,,,,,,,,,,,,revival,w,g,upper,g,1,0.5440186278428882,,,,,,,,,,,,,,,,,,,,,,,,,,,,,,,325,2023-11-09_10h53.21.779,leap3,2022.2.5,60.09037840812557,
,,,,,,,,1,0,1,0,4,0,4,0,,,,,,,,,,,,,,,,,,hiring,w,g,upper,h,0,0.4566150058526546,,,,,,,,,,,,,,,,,,,,,,,,,,,,,,,325,2023-11-09_10h53.21.779,leap3,2022.2.5,60.09037840812557,
,,,,,,,,1,0,1,0,5,0,5,0,,,,,,,,,,,,,,,,,,grimace,w,g,upper,g,1,0.684676201781258,,,,,,,,,,,,,,,,,,,,,,,,,,,,,,,325,2023-11-09_10h53.21.779,leap3,2022.2.5,60.09037840812557,
,,,,,,,,1,0,1,0,6,0,6,0,,,,,,,,,,,,,,,,,,julled,nw,h,upper,h,1,0.5422308603301644,,,,,,,,,,,,,,,,,,,,,,,,,,,,,,,325,2023-11-09_10h53.21.779,leap3,2022.2.5,60.09037840812557,
,,,,,,,,1,0,1,0,7,0,7,0,,,,,,,,,,,,,,,,,,crinklo,nw,h,upper,h,1,0.5648242686875165,,,,,,,,,,,,,,,,,,,,,,,,,,,,,,,325,2023-11-09_10h53.21.779,leap3,2022.2.5,60.09037840812557,
,,,,,,,,1,0,1,0,8,0,8,0,,,,,,,,,,,,,,,,,,grocus,nw,h,upper,h,1,0.4703288378659636,,,,,,,,,,,,,,,,,,,,,,,,,,,,,,,325,2023-11-09_10h53.21.779,leap3,2022.2.5,60.09037840812557,
,,,,,,,,1,0,1,0,9,0,9,0,,,,,,,,,,,,,,,,,,reputable,w,g,upper,g,1,0.5056600896641612,,,,,,,,,,,,,,,,,,,,,,,,,,,,,,,325,2023-11-09_10h53.21.779,leap3,2022.2.5,60.09037840812557,
,,,,,,,,1,0,1,0,10,0,10,0,,,,,,,,,,,,,,,,,,turative,nw,h,upper,h,1,0.6436221075709909,,,,,,,,,,,,,,,,,,,,,,,,,,,,,,,325,2023-11-09_10h53.21.779,leap3,2022.2.5,60.09037840812557,
,,,,,,,,1,0,1,0,11,0,11,0,,,,,,,,,,,,,,,,,,hasking,nw,h,upper,h,1,0.5924624919425696,,,,,,,,,,,,,,,,,,,,,,,,,,,,,,,325,2023-11-09_10h53.21.779,leap3,2022.2.5,60.09037840812557,
,,,,,,,,1,0,1,0,12,0,12,0,,,,,,,,,,,,,,,,,,summary,w,g,upper,g,1,0.5192395080812275,,,,,,,,,,,,,,,,,,,,,,,,,,,,,,,325,2023-11-09_10h53.21.779,leap3,2022.2.5,60.09037840812557,
,,,,,,,,1,0,1,0,13,0,13,0,,,,,,,,,,,,,,,,,,lurshing,nw,h,upper,h,1,0.5836259545758367,,,,,,,,,,,,,,,,,,,,,,,,,,,,,,,325,2023-11-09_10h53.21.779,leap3,2022.2.5,60.09037840812557,
,,,,,,,,1,0,1,0,,,,,,,,,,,,,,,,,,,,,,,,,,,,,,,,,,,,,,,,,,,,,,,,,,,,,,,,,,,325,2023-11-09_10h53.21.779,leap3,2022.2.5,60.09037840812557,
,,,,,,,,,,,,,,,,0,0,0,0,,,,,,,,,,,,,,,,,,,,,y,,,,,,,,,,,,,,,,,,,,,,,,,,,,,,325,2023-11-09_10h53.21.779,leap3,2022.2.5,60.09037840812557,
,,,,,,,,,,,,,,,,,,,,0,0,0,0,0,0,0,0,,,,,,mandlers,nw,h,lower,,,,,animal,"
q",1,nw,HiDemTar,None,h,1,0.7788726780563593,None,,,,,,,,,,,,,,,,,,,,325,2023-11-09_10h53.21.779,leap3,2022.2.5,60.09037840812557,
,,,,,,,,,,,,,,,,,,,,0,0,0,0,1,0,1,0,,,,,,living,w,g,lower,,,,,,,1,w,HiDemTar,None,h,0,0.5789224705658853,None,,,,,,,,,,,,,,,,,,,,325,2023-11-09_10h53.21.779,leap3,2022.2.5,60.09037840812557,
,,,,,,,,,,,,,,,,,,,,0,0,0,0,2,0,2,0,,,,,,peems,nw,h,lower,,,,,,,1,nw,HiDemTar,None,h,1,0.5709390956908464,None,,,,,,,,,,,,,,,,,,,,325,2023-11-09_10h53.21.779,leap3,2022.2.5,60.09037840812557,
,,,,,,,,,,,,,,,,,,,,0,0,0,0,3,0,3,0,,,,,,glates,nw,h,lower,,,,,,,1,nw,HiDemTar,None,g,0,0.5619870154187083,None,,,,,,,,,,,,,,,,,,,,325,2023-11-09_10h53.21.779,leap3,2022.2.5,60.09037840812557,
,,,,,,,,,,,,,,,,,,,,0,0,0,0,4,0,4,0,,,,,,hardest,w,g,lower,,,,,,,1,w,HiDemTar,None,g,1,0.69864098331891,None,,,,,,,,,,,,,,,,,,,,325,2023-11-09_10h53.21.779,leap3,2022.2.5,60.09037840812557,
,,,,,,,,,,,,,,,,,,,,0,0,0,0,5,0,5,0,,,,,,uncle,w,g,lower,,,,,,,1,w,HiDemTar,None,g,1,0.4780185555573553,None,,,,,,,,,,,,,,,,,,,,325,2023-11-09_10h53.21.779,leap3,2022.2.5,60.09037840812557,
,,,,,,,,,,,,,,,,,,,,0,0,0,0,6,0,6,0,,,,,,persona,w,g,lower,,,,,,,1,w,HiDemTar,None,g,1,0.6099640736356378,None,,,,,,,,,,,,,,,,,,,,325,2023-11-09_10h53.21.779,leap3,2022.2.5,60.09037840812557,
,,,,,,,,,,,,,,,,,,,,0,0,0,0,7,0,7,0,,,,,,talate,nw,h,lower,,,,,,,1,nw,HiDemTar,None,h,1,0.4966345124412328,None,,,,,,,,,,,,,,,,,,,,325,2023-11-09_10h53.21.779,leap3,2022.2.5,60.09037840812557,
,,,,,,,,,,,,,,,,,,,,0,0,0,0,8,0,8,0,,,,,,criminal,w,g,lower,,,,,,,1,w,HiDemTar,None,g,1,0.5318743893876672,None,,,,,,,,,,,,,,,,,,,,325,2023-11-09_10h53.21.779,leap3,2022.2.5,60.09037840812557,
,,,,,,,,,,,,,,,,,,,,0,0,0,0,9,0,9,0,,,,,,collision,w,g,lower,,,,,,,1,w,HiDemTar,None,g,1,0.6860259661916643,None,,,,,,,,,,,,,,,,,,,,325,2023-11-09_10h53.21.779,leap3,2022.2.5,60.09037840812557,
,,,,,,,,,,,,,,,,,,,,0,0,0,0,10,0,10,0,,,,,,gigoho,nw,h,lower,,,,,,,1,nw,HiDemTar,None,h,1,0.5933037360664457,None,,,,,,,,,,,,,,,,,,,,325,2023-11-09_10h53.21.779,leap3,2022.2.5,60.09037840812557,
,,,,,,,,,,,,,,,,,,,,0,0,0,0,11,0,11,0,,,,,,abhorrent,w,g,lower,,,,,,,1,w,HiDemTar,None,g,1,0.6885801563039422,None,,,,,,,,,,,,,,,,,,,,325,2023-11-09_10h53.21.779,leap3,2022.2.5,60.09037840812557,
,,,,,,,,,,,,,,,,,,,,0,0,0,0,12,0,12,0,,,,,,reloant,nw,h,lower,,,,,,,1,nw,HiDemTar,None,h,1,0.6759866585489362,None,,,,,,,,,,,,,,,,,,,,325,2023-11-09_10h53.21.779,leap3,2022.2.5,60.09037840812557,
,,,,,,,,,,,,,,,,,,,,0,0,0,0,13,0,13,0,,,,,,minister,w,g,lower,,,,,,,1,w,HiDemTar,None,g,1,0.6149122167844325,None,,,,,,,,,,,,,,,,,,,,325,2023-11-09_10h53.21.779,leap3,2022.2.5,60.09037840812557,
,,,,,,,,,,,,,,,,,,,,0,0,0,0,14,0,14,0,,,,,,cessation,w,g,lower,,,,,,,1,w,HiDemTar,None,g,1,0.6056452908087522,None,,,,,,,,,,,,,,,,,,,,325,2023-11-09_10h53.21.779,leap3,2022.2.5,60.09037840812557,
,,,,,,,,,,,,,,,,,,,,0,0,0,0,15,0,15,0,,,,,,baladroit,nw,h,lower,,,,,,,1,nw,HiDemTar,None,h,1,0.6343253855593503,None,,,,,,,,,,,,,,,,,,,,325,2023-11-09_10h53.21.779,leap3,2022.2.5,60.09037840812557,
,,,,,,,,,,,,,,,,,,,,0,0,0,0,16,0,16,0,,,,,,alticles,nw,h,lower,,,,,,,1,nw,HiDemTar,None,g,0,0.6417148243635893,None,,,,,,,,,,,,,,,,,,,,325,2023-11-09_10h53.21.779,leap3,2022.2.5,60.09037840812557,
,,,,,,,,,,,,,,,,,,,,0,0,0,0,17,0,17,0,,,,,,gaioty,nw,h,lower,,,,,,,1,nw,HiDemTar,None,h,1,0.7591701559722424,None,,,,,,,,,,,,,,,,,,,,325,2023-11-09_10h53.21.779,leap3,2022.2.5,60.09037840812557,
,,,,,,,,,,,,,,,,,,,,0,0,0,0,18,0,18,0,,,,,,rodeo,w,g,lower,,,,,,,1,w,HiDemTar,None,g,1,0.6957987640053034,None,,,,,,,,,,,,,,,,,,,,325,2023-11-09_10h53.21.779,leap3,2022.2.5,60.09037840812557,
,,,,,,,,,,,,,,,,,,,,0,0,0,0,19,0,19,0,,,,,,brother,w,g,lower,,,,,,,1,w,HiDemTar,None,g,1,0.6752026893664151,None,,,,,,,,,,,,,,,,,,,,325,2023-11-09_10h53.21.779,leap3,2022.2.5,60.09037840812557,
,,,,,,,,,,,,,,,,,,,,0,0,0,0,20,0,20,0,,,,,,lancos,nw,h,lower,,,,,,,1,nw,HiDemTar,None,h,1,0.7192738067824394,None,,,,,,,,,,,,,,,,,,,,325,2023-11-09_10h53.21.779,leap3,2022.2.5,60.09037840812557,
,,,,,,,,,,,,,,,,,,,,0,0,0,0,21,0,21,0,,,,,,slogan,w,g,lower,,,,,,,1,w,HiDemTar,None,g,1,0.6573654047679156,None,,,,,,,,,,,,,,,,,,,,325,2023-11-09_10h53.21.779,leap3,2022.2.5,60.09037840812557,
,,,,,,,,,,,,,,,,,,,,0,0,0,0,22,0,22,0,,,,,,extruded,w,g,lower,,,,,,,1,w,HiDemTar,None,g,1,0.6599258848000318,None,,,,,,,,,,,,,,,,,,,,325,2023-11-09_10h53.21.779,leap3,2022.2.5,60.09037840812557,
,,,,,,,,,,,,,,,,,,,,0,0,0,0,23,0,23,0,,,,,,sludding,nw,h,lower,,,,,,,1,nw,HiDemTar,None,h,1,0.6737794277723879,None,,,,,,,,,,,,,,,,,,,,325,2023-11-09_10h53.21.779,leap3,2022.2.5,60.09037840812557,
,,,,,,,,,,,,,,,,,,,,0,0,0,0,24,0,24,0,,,,,,marvel,w,g,lower,,,,,,,1,w,HiDemTar,None,g,1,0.605778711149469,None,,,,,,,,,,,,,,,,,,,,325,2023-11-09_10h53.21.779,leap3,2022.2.5,60.09037840812557,
,,,,,,,,,,,,,,,,,,,,0,0,0,0,25,0,25,0,,,,,,fabstand,nw,h,lower,,,,,,,1,nw,HiDemTar,None,h,1,0.6765143810771406,None,,,,,,,,,,,,,,,,,,,,325,2023-11-09_10h53.21.779,leap3,2022.2.5,60.09037840812557,
,,,,,,,,,,,,,,,,,,,,0,0,0,0,26,0,26,0,,,,,,ucility,nw,h,lower,,,,,,,1,nw,HiDemTar,None,g,0,0.544502649223432,None,,,,,,,,,,,,,,,,,,,,325,2023-11-09_10h53.21.779,leap3,2022.2.5,60.09037840812557,
,,,,,,,,,,,,,,,,,,,,0,0,0,0,27,0,27,0,,,,,,cayward,nw,h,lower,,,,,,,1,nw,HiDemTar,None,h,1,0.7699070239905268,None,,,,,,,,,,,,,,,,,,,,325,2023-11-09_10h53.21.779,leap3,2022.2.5,60.09037840812557,
,,,,,,,,,,,,,,,,,,,,0,0,0,0,28,0,28,0,,,,,,porcupine,target,q,lower,,,,,,,1,target,HiDemTar,None,g,0,0.625947377178818,q,q,0.239995852811262,,,,,,,,,,,,,,,,,,325,2023-11-09_10h53.21.779,leap3,2022.2.5,60.09037840812557,
,,,,,,,,,,,,,,,,,,,,0,0,0,0,29,0,29,0,,,,,,scack,nw,h,lower,,,,,,,1,aftertar1,HiDemTar,None,h,1,0.8479854520410299,None,,,,,,,,,,,,,,,,,,,,325,2023-11-09_10h53.21.779,leap3,2022.2.5,60.09037840812557,
,,,,,,,,,,,,,,,,,,,,0,0,0,0,,,,,,,,,,,,,,,,,,,,,,,,,,,,,,,,,,,,,,,,,,,,,,,325,2023-11-09_10h53.21.779,leap3,2022.2.5,60.09037840812557,
,,,,,,,,,,,,,,,,,,,,1,0,1,0,0,0,0,0,,,,,,number,w,g,upper,,,,,,,3,w,LoDemNoTar,None,g,1,0.6124057006090879,None,,,,,,,,,,,,,,,,,,,,325,2023-11-09_10h53.21.779,leap3,2022.2.5,60.09037840812557,
,,,,,,,,,,,,,,,,,,,,1,0,1,0,1,0,1,0,,,,,,maximized,w,g,upper,,,,,,,3,w,LoDemNoTar,None,g,1,0.5684590646997094,None,,,,,,,,,,,,,,,,,,,,325,2023-11-09_10h53.21.779,leap3,2022.2.5,60.09037840812557,
,,,,,,,,,,,,,,,,,,,,1,0,1,0,2,0,2,0,,,,,,purpose,w,g,upper,,,,,,,3,w,LoDemNoTar,None,g,1,0.47500418103300035,None,,,,,,,,,,,,,,,,,,,,325,2023-11-09_10h53.21.779,leap3,2022.2.5,60.09037840812557,
,,,,,,,,,,,,,,,,,,,,1,0,1,0,3,0,3,0,,,,,,cherry,w,g,upper,,,,,,,3,w,LoDemNoTar,None,g,1,0.5030416722875088,None,,,,,,,,,,,,,,,,,,,,325,2023-11-09_10h53.21.779,leap3,2022.2.5,60.09037840812557,
,,,,,,,,,,,,,,,,,,,,1,0,1,0,4,0,4,0,,,,,,saucer,w,g,upper,,,,,,,3,w,LoDemNoTar,None,g,1,0.6337936900090426,None,,,,,,,,,,,,,,,,,,,,325,2023-11-09_10h53.21.779,leap3,2022.2.5,60.09037840812557,
,,,,,,,,,,,,,,,,,,,,1,0,1,0,5,0,5,0,,,,,,elderly,w,g,upper,,,,,,,3,w,LoDemNoTar,None,g,1,0.5431456014048308,None,,,,,,,,,,,,,,,,,,,,325,2023-11-09_10h53.21.779,leap3,2022.2.5,60.09037840812557,
,,,,,,,,,,,,,,,,,,,,1,0,1,0,6,0,6,0,,,,,,twarfs,nw,h,upper,,,,,,,3,nw,LoDemNoTar,None,h,1,0.6004534817766398,None,,,,,,,,,,,,,,,,,,,,325,2023-11-09_10h53.21.779,leap3,2022.2.5,60.09037840812557,
,,,,,,,,,,,,,,,,,,,,1,0,1,0,7,0,7,0,,,,,,houted,nw,h,upper,,,,,,,3,nw,LoDemNoTar,None,h,1,0.7342351032420993,None,,,,,,,,,,,,,,,,,,,,325,2023-11-09_10h53.21.779,leap3,2022.2.5,60.09037840812557,
,,,,,,,,,,,,,,,,,,,,1,0,1,0,8,0,8,0,,,,,,forecast,w,g,upper,,,,,,,3,w,LoDemNoTar,None,g,1,0.6073406904470176,None,,,,,,,,,,,,,,,,,,,,325,2023-11-09_10h53.21.779,leap3,2022.2.5,60.09037840812557,
,,,,,,,,,,,,,,,,,,,,1,0,1,0,9,0,9,0,,,,,,define,w,g,upper,,,,,,,3,w,LoDemNoTar,None,g,1,0.5350592641625553,None,,,,,,,,,,,,,,,,,,,,325,2023-11-09_10h53.21.779,leap3,2022.2.5,60.09037840812557,
,,,,,,,,,,,,,,,,,,,,1,0,1,0,10,0,10,0,,,,,,tucker,w,g,upper,,,,,,,3,w,LoDemNoTar,None,g,1,0.5369513179175556,None,,,,,,,,,,,,,,,,,,,,325,2023-11-09_10h53.21.779,leap3,2022.2.5,60.09037840812557,
,,,,,,,,,,,,,,,,,,,,1,0,1,0,11,0,11,0,,,,,,egcused,nw,h,upper,,,,,,,3,nw,LoDemNoTar,None,h,1,0.6584129040129483,None,,,,,,,,,,,,,,,,,,,,325,2023-11-09_10h53.21.779,leap3,2022.2.5,60.09037840812557,
,,,,,,,,,,,,,,,,,,,,1,0,1,0,12,0,12,0,,,,,,poars,nw,h,upper,,,,,,,3,nw,LoDemNoTar,None,h,1,1.143074686639011,None,,,,,,,,,,,,,,,,,,,,325,2023-11-09_10h53.21.779,leap3,2022.2.5,60.09037840812557,
,,,,,,,,,,,,,,,,,,,,1,0,1,0,13,0,13,0,,,,,,natch,nw,h,upper,,,,,,,3,nw,LoDemNoTar,None,h,1,0.6484878147020936,None,,,,,,,,,,,,,,,,,,,,325,2023-11-09_10h53.21.779,leap3,2022.2.5,60.09037840812557,
,,,,,,,,,,,,,,,,,,,,1,0,1,0,14,0,14,0,,,,,,deficit,w,g,upper,,,,,,,3,w,LoDemNoTar,None,g,1,1.2538278761785477,None,,,,,,,,,,,,,,,,,,,,325,2023-11-09_10h53.21.779,leap3,2022.2.5,60.09037840812557,
,,,,,,,,,,,,,,,,,,,,1,0,1,0,15,0,15,0,,,,,,permeable,w,g,upper,,,,,,,3,w,LoDemNoTar,None,g,1,0.7625665829982609,None,,,,,,,,,,,,,,,,,,,,325,2023-11-09_10h53.21.779,leap3,2022.2.5,60.09037840812557,
,,,,,,,,,,,,,,,,,,,,1,0,1,0,16,0,16,0,,,,,,squadroim,nw,h,upper,,,,,,,3,nw,LoDemNoTar,None,h,1,0.7615627849008888,None,,,,,,,,,,,,,,,,,,,,325,2023-11-09_10h53.21.779,leap3,2022.2.5,60.09037840812557,
,,,,,,,,,,,,,,,,,,,,1,0,1,0,17,0,17,0,,,,,,coster,nw,h,upper,,,,,,,3,nw,LoDemNoTar,None,g,0,0.7062022467143834,None,,,,,,,,,,,,,,,,,,,,325,2023-11-09_10h53.21.779,leap3,2022.2.5,60.09037840812557,
,,,,,,,,,,,,,,,,,,,,1,0,1,0,18,0,18,0,,,,,,tentacle,w,g,upper,,,,,,,3,w,LoDemNoTar,None,g,1,0.9970418917946517,None,,,,,,,,,,,,,,,,,,,,325,2023-11-09_10h53.21.779,leap3,2022.2.5,60.09037840812557,
,,,,,,,,,,,,,,,,,,,,1,0,1,0,19,0,19,0,,,,,,joses,nw,h,upper,,,,,,,3,nw,LoDemNoTar,None,h,1,0.5323594042565674,None,,,,,,,,,,,,,,,,,,,,325,2023-11-09_10h53.21.779,leap3,2022.2.5,60.09037840812557,
,,,,,,,,,,,,,,,,,,,,1,0,1,0,20,0,20,0,,,,,,prawls,nw,h,upper,,,,,,,3,nw,LoDemNoTar,None,h,1,0.5583803600165993,None,,,,,,,,,,,,,,,,,,,,325,2023-11-09_10h53.21.779,leap3,2022.2.5,60.09037840812557,
,,,,,,,,,,,,,,,,,,,,1,0,1,0,21,0,21,0,,,,,,hinsome,nw,h,upper,,,,,,,3,nw,LoDemNoTar,None,h,1,0.6150459684431553,None,,,,,,,,,,,,,,,,,,,,325,2023-11-09_10h53.21.779,leap3,2022.2.5,60.09037840812557,
,,,,,,,,,,,,,,,,,,,,1,0,1,0,22,0,22,0,,,,,,slears,nw,h,upper,,,,,,,3,nw,LoDemNoTar,None,h,1,0.7337858437094837,None,,,,,,,,,,,,,,,,,,,,325,2023-11-09_10h53.21.779,leap3,2022.2.5,60.09037840812557,
,,,,,,,,,,,,,,,,,,,,1,0,1,0,23,0,23,0,,,,,,amidst,w,g,upper,,,,,,,3,w,LoDemNoTar,None,g,1,0.639036483829841,None,,,,,,,,,,,,,,,,,,,,325,2023-11-09_10h53.21.779,leap3,2022.2.5,60.09037840812557,
,,,,,,,,,,,,,,,,,,,,1,0,1,0,24,0,24,0,,,,,,baults,nw,h,upper,,,,,,,3,nw,LoDemNoTar,None,h,1,0.7404770604334772,None,,,,,,,,,,,,,,,,,,,,325,2023-11-09_10h53.21.779,leap3,2022.2.5,60.09037840812557,
,,,,,,,,,,,,,,,,,,,,1,0,1,0,25,0,25,0,,,,,,hasks,nw,h,upper,,,,,,,3,nw,LoDemNoTar,None,h,1,0.7087577609345317,None,,,,,,,,,,,,,,,,,,,,325,2023-11-09_10h53.21.779,leap3,2022.2.5,60.09037840812557,
,,,,,,,,,,,,,,,,,,,,1,0,1,0,26,0,26,0,,,,,,vivid,w,g,upper,,,,,,,3,w,LoDemNoTar,None,g,1,0.5915487443562597,None,,,,,,,,,,,,,,,,,,,,325,2023-11-09_10h53.21.779,leap3,2022.2.5,60.09037840812557,
,,,,,,,,,,,,,,,,,,,,1,0,1,0,27,0,27,0,,,,,,glating,nw,h,upper,,,,,,,3,nw,LoDemNoTar,None,h,1,0.6148718264885247,None,,,,,,,,,,,,,,,,,,,,325,2023-11-09_10h53.21.779,leap3,2022.2.5,60.09037840812557,
,,,,,,,,,,,,,,,,,,,,1,0,1,0,28,0,28,0,,,,,,fuintets,nw,h,upper,,,,,,,3,nw,LoDemNoTar,None,h,1,0.7654799821320921,None,,,,,,,,,,,,,,,,,,,,325,2023-11-09_10h53.21.779,leap3,2022.2.5,60.09037840812557,
,,,,,,,,,,,,,,,,,,,,1,0,1,0,29,0,29,0,,,,,,tiger,w,g,upper,,,,,,,3,w,LoDemNoTar,None,q,0,0.6462438355665654,None,q,,,,,,,,,,,,,,,,,,,325,2023-11-09_10h53.21.779,leap3,2022.2.5,60.09037840812557,
,,,,,,,,,,,,,,,,,,,,1,0,1,0,,,,,,,,,,,,,,,,,,,,,,,,,,,,,,,,,,,,,,,,,,,,,,,325,2023-11-09_10h53.21.779,leap3,2022.2.5,60.09037840812557,
,,,,,,,,,,,,,,,,,,,,2,0,2,0,0,0,0,0,,,,,,riosk,nw,h,lower,,,,,,,2,nw,HiDemNoTar,None,h,1,0.6116180897224694,None,,,,,,,,,,,,,,,,,,,,325,2023-11-09_10h53.21.779,leap3,2022.2.5,60.09037840812557,
,,,,,,,,,,,,,,,,,,,,2,0,2,0,1,0,1,0,,,,,,pepperoni,w,g,lower,,,,,,,2,w,HiDemNoTar,None,g,1,0.5532084149308503,None,,,,,,,,,,,,,,,,,,,,325,2023-11-09_10h53.21.779,leap3,2022.2.5,60.09037840812557,
,,,,,,,,,,,,,,,,,,,,2,0,2,0,2,0,2,0,,,,,,arrival,w,g,lower,,,,,,,2,w,HiDemNoTar,None,g,1,0.49698378914035857,None,,,,,,,,,,,,,,,,,,,,325,2023-11-09_10h53.21.779,leap3,2022.2.5,60.09037840812557,
,,,,,,,,,,,,,,,,,,,,2,0,2,0,3,0,3,0,,,,,,satisfies,w,g,lower,,,,,,,2,w,HiDemNoTar,None,h,0,0.6372692426666617,None,,,,,,,,,,,,,,,,,,,,325,2023-11-09_10h53.21.779,leap3,2022.2.5,60.09037840812557,
,,,,,,,,,,,,,,,,,,,,2,0,2,0,4,0,4,0,,,,,,acoustic,w,g,lower,,,,,,,2,w,HiDemNoTar,None,g,1,0.6745875647757202,None,,,,,,,,,,,,,,,,,,,,325,2023-11-09_10h53.21.779,leap3,2022.2.5,60.09037840812557,
,,,,,,,,,,,,,,,,,,,,2,0,2,0,5,0,5,0,,,,,,located,w,g,lower,,,,,,,2,w,HiDemNoTar,None,g,1,0.510772442445159,None,,,,,,,,,,,,,,,,,,,,325,2023-11-09_10h53.21.779,leap3,2022.2.5,60.09037840812557,
,,,,,,,,,,,,,,,,,,,,2,0,2,0,6,0,6,0,,,,,,remover,w,g,lower,,,,,,,2,w,HiDemNoTar,None,g,1,0.44943745038472116,None,,,,,,,,,,,,,,,,,,,,325,2023-11-09_10h53.21.779,leap3,2022.2.5,60.09037840812557,
,,,,,,,,,,,,,,,,,,,,2,0,2,0,7,0,7,0,,,,,,opert,nw,h,lower,,,,,,,2,nw,HiDemNoTar,None,h,1,0.6307604445610195,None,,,,,,,,,,,,,,,,,,,,325,2023-11-09_10h53.21.779,leap3,2022.2.5,60.09037840812557,
,,,,,,,,,,,,,,,,,,,,2,0,2,0,8,0,8,0,,,,,,etber,nw,h,lower,,,,,,,2,nw,HiDemNoTar,None,h,1,0.5807983023114502,None,,,,,,,,,,,,,,,,,,,,325,2023-11-09_10h53.21.779,leap3,2022.2.5,60.09037840812557,
,,,,,,,,,,,,,,,,,,,,2,0,2,0,9,0,9,0,,,,,,personify,w,g,lower,,,,,,,2,w,HiDemNoTar,None,g,1,0.9329279139637947,None,,,,,,,,,,,,,,,,,,,,325,2023-11-09_10h53.21.779,leap3,2022.2.5,60.09037840812557,
,,,,,,,,,,,,,,,,,,,,2,0,2,0,10,0,10,0,,,,,,veranpah,nw,h,lower,,,,,,,2,nw,HiDemNoTar,None,h,1,0.5898801612202078,None,,,,,,,,,,,,,,,,,,,,325,2023-11-09_10h53.21.779,leap3,2022.2.5,60.09037840812557,
,,,,,,,,,,,,,,,,,,,,2,0,2,0,11,0,11,0,,,,,,shivering,w,g,lower,,,,,,,2,w,HiDemNoTar,None,g,1,0.6053211754187942,None,,,,,,,,,,,,,,,,,,,,325,2023-11-09_10h53.21.779,leap3,2022.2.5,60.09037840812557,
,,,,,,,,,,,,,,,,,,,,2,0,2,0,12,0,12,0,,,,,,funtair,nw,h,lower,,,,,,,2,nw,HiDemNoTar,None,h,1,0.6839994986075908,None,,,,,,,,,,,,,,,,,,,,325,2023-11-09_10h53.21.779,leap3,2022.2.5,60.09037840812557,
,,,,,,,,,,,,,,,,,,,,2,0,2,0,13,0,13,0,,,,,,reprint,w,g,lower,,,,,,,2,w,HiDemNoTar,None,g,1,0.6633435003459454,None,,,,,,,,,,,,,,,,,,,,325,2023-11-09_10h53.21.779,leap3,2022.2.5,60.09037840812557,
,,,,,,,,,,,,,,,,,,,,2,0,2,0,14,0,14,0,,,,,,mining,w,g,lower,,,,,,,2,w,HiDemNoTar,None,g,1,0.5560443438589573,None,,,,,,,,,,,,,,,,,,,,325,2023-11-09_10h53.21.779,leap3,2022.2.5,60.09037840812557,
,,,,,,,,,,,,,,,,,,,,2,0,2,0,15,0,15,0,,,,,,halter,w,g,lower,,,,,,,2,w,HiDemNoTar,None,h,0,0.5806986507959664,None,,,,,,,,,,,,,,,,,,,,325,2023-11-09_10h53.21.779,leap3,2022.2.5,60.09037840812557,
,,,,,,,,,,,,,,,,,,,,2,0,2,0,16,0,16,0,,,,,,kiner,nw,h,lower,,,,,,,2,nw,HiDemNoTar,None,h,1,0.764686080859974,None,,,,,,,,,,,,,,,,,,,,325,2023-11-09_10h53.21.779,leap3,2022.2.5,60.09037840812557,
,,,,,,,,,,,,,,,,,,,,2,0,2,0,17,0,17,0,,,,,,ubefully,nw,h,lower,,,,,,,2,nw,HiDemNoTar,None,h,1,0.7254184298217297,None,,,,,,,,,,,,,,,,,,,,325,2023-11-09_10h53.21.779,leap3,2022.2.5,60.09037840812557,
,,,,,,,,,,,,,,,,,,,,2,0,2,0,18,0,18,0,,,,,,owner,w,g,lower,,,,,,,2,w,HiDemNoTar,None,g,1,0.583390565123409,None,,,,,,,,,,,,,,,,,,,,325,2023-11-09_10h53.21.779,leap3,2022.2.5,60.09037840812557,
,,,,,,,,,,,,,,,,,,,,2,0,2,0,19,0,19,0,,,,,,etuip,nw,h,lower,,,,,,,2,nw,HiDemNoTar,None,h,1,0.6704121346119791,None,,,,,,,,,,,,,,,,,,,,325,2023-11-09_10h53.21.779,leap3,2022.2.5,60.09037840812557,
,,,,,,,,,,,,,,,,,,,,2,0,2,0,20,0,20,0,,,,,,godomy,nw,h,lower,,,,,,,2,nw,HiDemNoTar,None,h,1,0.7782426555640996,None,,,,,,,,,,,,,,,,,,,,325,2023-11-09_10h53.21.779,leap3,2022.2.5,60.09037840812557,
,,,,,,,,,,,,,,,,,,,,2,0,2,0,21,0,21,0,,,,,,knowledge,w,g,lower,,,,,,,2,w,HiDemNoTar,None,q,0,0.5223104953765869,None,q,,,,,,,,,,,,,,,,,,,325,2023-11-09_10h53.21.779,leap3,2022.2.5,60.09037840812557,
,,,,,,,,,,,,,,,,,,,,2,0,2,0,22,0,22,0,,,,,,hivinity,nw,h,lower,,,,,,,2,nw,HiDemNoTar,None,h,1,0.7963831985834986,None,,,,,,,,,,,,,,,,,,,,325,2023-11-09_10h53.21.779,leap3,2022.2.5,60.09037840812557,
,,,,,,,,,,,,,,,,,,,,2,0,2,0,23,0,23,0,,,,,,module,w,g,lower,,,,,,,2,w,HiDemNoTar,None,h,0,0.8197181993164122,None,,,,,,,,,,,,,,,,,,,,325,2023-11-09_10h53.21.779,leap3,2022.2.5,60.09037840812557,
,,,,,,,,,,,,,,,,,,,,2,0,2,0,24,0,24,0,,,,,,germeated,nw,h,lower,,,,,,,2,nw,HiDemNoTar,None,h,1,1.1378140149172395,None,,,,,,,,,,,,,,,,,,,,325,2023-11-09_10h53.21.779,leap3,2022.2.5,60.09037840812557,
,,,,,,,,,,,,,,,,,,,,2,0,2,0,25,0,25,0,,,,,,balign,nw,h,lower,,,,,,,2,nw,HiDemNoTar,None,h,1,0.6191568402573466,None,,,,,,,,,,,,,,,,,,,,325,2023-11-09_10h53.21.779,leap3,2022.2.5,60.09037840812557,
,,,,,,,,,,,,,,,,,,,,2,0,2,0,26,0,26,0,,,,,,susher,nw,h,lower,,,,,,,2,nw,HiDemNoTar,None,h,1,0.7857784265652299,None,,,,,,,,,,,,,,,,,,,,325,2023-11-09_10h53.21.779,leap3,2022.2.5,60.09037840812557,
,,,,,,,,,,,,,,,,,,,,2,0,2,0,27,0,27,0,,,,,,shimble,nw,h,lower,,,,,,,2,nw,HiDemNoTar,None,h,1,0.7691962209064513,None,,,,,,,,,,,,,,,,,,,,325,2023-11-09_10h53.21.779,leap3,2022.2.5,60.09037840812557,
,,,,,,,,,,,,,,,,,,,,2,0,2,0,28,0,28,0,,,,,,fards,nw,h,lower,,,,,,,2,nw,HiDemNoTar,None,h,1,0.6004111049696803,None,,,,,,,,,,,,,,,,,,,,325,2023-11-09_10h53.21.779,leap3,2022.2.5,60.09037840812557,
,,,,,,,,,,,,,,,,,,,,2,0,2,0,29,0,29,0,,,,,,sequence,w,g,lower,,,,,,,2,w,HiDemNoTar,None,g,1,0.61569022689946,None,,,,,,,,,,,,,,,,,,,,325,2023-11-09_10h53.21.779,leap3,2022.2.5,60.09037840812557,
,,,,,,,,,,,,,,,,,,,,2,0,2,0,,,,,,,,,,,,,,,,,,,,,,,,,,,,,,,,,,,,,,,,,,,,,,,325,2023-11-09_10h53.21.779,leap3,2022.2.5,60.09037840812557,
,,,,,,,,,,,,,,,,,,,,3,0,3,0,0,0,0,0,,,,,,listless,w,g,upper,,,,,,,4,w,LoDemTar,None,g,1,0.9744554357603192,None,,,,,,,,,,,,,,,,,,,,325,2023-11-09_10h53.21.779,leap3,2022.2.5,60.09037840812557,
,,,,,,,,,,,,,,,,,,,,3,0,3,0,1,0,1,0,,,,,,unsmilung,nw,h,upper,,,,,,,4,nw,LoDemTar,None,h,1,1.0143507916945964,None,,,,,,,,,,,,,,,,,,,,325,2023-11-09_10h53.21.779,leap3,2022.2.5,60.09037840812557,
,,,,,,,,,,,,,,,,,,,,3,0,3,0,2,0,2,0,,,,,,arrested,w,g,upper,,,,,,,4,w,LoDemTar,None,g,1,0.6044461624696851,None,,,,,,,,,,,,,,,,,,,,325,2023-11-09_10h53.21.779,leap3,2022.2.5,60.09037840812557,
,,,,,,,,,,,,,,,,,,,,3,0,3,0,3,0,3,0,,,,,,brials,nw,h,upper,,,,,,,4,nw,LoDemTar,None,h,1,0.65877840295434,None,,,,,,,,,,,,,,,,,,,,325,2023-11-09_10h53.21.779,leap3,2022.2.5,60.09037840812557,
,,,,,,,,,,,,,,,,,,,,3,0,3,0,4,0,4,0,,,,,,schides,nw,h,upper,,,,,,,4,nw,LoDemTar,None,h,1,0.5193398215342313,None,,,,,,,,,,,,,,,,,,,,325,2023-11-09_10h53.21.779,leap3,2022.2.5,60.09037840812557,
,,,,,,,,,,,,,,,,,,,,3,0,3,0,5,0,5,0,,,,,,cheathe,nw,h,upper,,,,,,,4,nw,LoDemTar,None,h,1,1.1453597182407975,None,,,,,,,,,,,,,,,,,,,,325,2023-11-09_10h53.21.779,leap3,2022.2.5,60.09037840812557,
,,,,,,,,,,,,,,,,,,,,3,0,3,0,6,0,6,0,,,,,,managed,w,g,upper,,,,,,,4,w,LoDemTar,None,g,1,0.6666965577751398,None,,,,,,,,,,,,,,,,,,,,325,2023-11-09_10h53.21.779,leap3,2022.2.5,60.09037840812557,
,,,,,,,,,,,,,,,,,,,,3,0,3,0,7,0,7,0,,,,,,edasion,nw,h,upper,,,,,,,4,nw,LoDemTar,None,h,1,0.7113652529660612,None,,,,,,,,,,,,,,,,,,,,325,2023-11-09_10h53.21.779,leap3,2022.2.5,60.09037840812557,
,,,,,,,,,,,,,,,,,,,,3,0,3,0,8,0,8,0,,,,,,mounting,w,g,upper,,,,,,,4,w,LoDemTar,None,g,1,0.6728666732087731,None,,,,,,,,,,,,,,,,,,,,325,2023-11-09_10h53.21.779,leap3,2022.2.5,60.09037840812557,
,,,,,,,,,,,,,,,,,,,,3,0,3,0,9,0,9,0,,,,,,sazer,nw,h,upper,,,,,,,4,nw,LoDemTar,None,h,1,0.47798246913589537,None,,,,,,,,,,,,,,,,,,,,325,2023-11-09_10h53.21.779,leap3,2022.2.5,60.09037840812557,
,,,,,,,,,,,,,,,,,,,,3,0,3,0,10,0,10,0,,,,,,undertake,w,g,upper,,,,,,,4,w,LoDemTar,None,g,1,0.5460156302433461,None,,,,,,,,,,,,,,,,,,,,325,2023-11-09_10h53.21.779,leap3,2022.2.5,60.09037840812557,
,,,,,,,,,,,,,,,,,,,,3,0,3,0,11,0,11,0,,,,,,nelvet,nw,h,upper,,,,,,,4,nw,LoDemTar,None,h,1,0.5393720876891166,None,,,,,,,,,,,,,,,,,,,,325,2023-11-09_10h53.21.779,leap3,2022.2.5,60.09037840812557,
,,,,,,,,,,,,,,,,,,,,3,0,3,0,12,0,12,0,,,,,,teliever,nw,h,upper,,,,,,,4,nw,LoDemTar,None,h,1,0.5246326066553593,None,,,,,,,,,,,,,,,,,,,,325,2023-11-09_10h53.21.779,leap3,2022.2.5,60.09037840812557,
,,,,,,,,,,,,,,,,,,,,3,0,3,0,13,0,13,0,,,,,,ottans,nw,h,upper,,,,,,,4,nw,LoDemTar,None,h,1,0.47760968655347824,None,,,,,,,,,,,,,,,,,,,,325,2023-11-09_10h53.21.779,leap3,2022.2.5,60.09037840812557,
,,,,,,,,,,,,,,,,,,,,3,0,3,0,14,0,14,0,,,,,,valif,nw,h,upper,,,,,,,4,nw,LoDemTar,None,h,1,0.5294930168893188,None,,,,,,,,,,,,,,,,,,,,325,2023-11-09_10h53.21.779,leap3,2022.2.5,60.09037840812557,
,,,,,,,,,,,,,,,,,,,,3,0,3,0,15,0,15,0,,,,,,gelented,nw,h,upper,,,,,,,4,nw,LoDemTar,None,h,1,0.5314890260342509,None,,,,,,,,,,,,,,,,,,,,325,2023-11-09_10h53.21.779,leap3,2022.2.5,60.09037840812557,
,,,,,,,,,,,,,,,,,,,,3,0,3,0,16,0,16,0,,,,,,butterfly,target,q,upper,,,,,,,4,target,LoDemTar,None,g,0,0.477486529154703,q,q,0.34562079841271043,,,,,,,,,,,,,,,,,,325,2023-11-09_10h53.21.779,leap3,2022.2.5,60.09037840812557,
,,,,,,,,,,,,,,,,,,,,3,0,3,0,17,0,17,0,,,,,,rejoiced,w,g,upper,,,,,,,4,aftertar1,LoDemTar,None,g,1,0.849509027088061,None,,,,,,,,,,,,,,,,,,,,325,2023-11-09_10h53.21.779,leap3,2022.2.5,60.09037840812557,
,,,,,,,,,,,,,,,,,,,,3,0,3,0,18,0,18,0,,,,,,retain,w,g,upper,,,,,,,4,aftertar2,LoDemTar,None,g,1,0.6866314897779375,None,,,,,,,,,,,,,,,,,,,,325,2023-11-09_10h53.21.779,leap3,2022.2.5,60.09037840812557,
,,,,,,,,,,,,,,,,,,,,3,0,3,0,19,0,19,0,,,,,,nores,nw,h,upper,,,,,,,4,aftertar3,LoDemTar,None,h,1,0.5462473779916763,None,,,,,,,,,,,,,,,,,,,,325,2023-11-09_10h53.21.779,leap3,2022.2.5,60.09037840812557,
,,,,,,,,,,,,,,,,,,,,3,0,3,0,20,0,20,0,,,,,,cripet,nw,h,upper,,,,,,,4,nw,LoDemTar,None,h,1,0.9876921984832734,None,,,,,,,,,,,,,,,,,,,,325,2023-11-09_10h53.21.779,leap3,2022.2.5,60.09037840812557,
,,,,,,,,,,,,,,,,,,,,3,0,3,0,21,0,21,0,,,,,,outset,w,g,upper,,,,,,,4,nw,LoDemTar,None,h,0,0.5950299247633666,None,,,,,,,,,,,,,,,,,,,,325,2023-11-09_10h53.21.779,leap3,2022.2.5,60.09037840812557,
,,,,,,,,,,,,,,,,,,,,3,0,3,0,22,0,22,0,,,,,,batire,nw,h,upper,,,,,,,4,w,LoDemTar,None,h,1,0.6253812508657575,None,,,,,,,,,,,,,,,,,,,,325,2023-11-09_10h53.21.779,leap3,2022.2.5,60.09037840812557,
,,,,,,,,,,,,,,,,,,,,3,0,3,0,23,0,23,0,,,,,,boutique,w,g,upper,,,,,,,4,nw,LoDemTar,None,g,1,0.6474327009636909,None,,,,,,,,,,,,,,,,,,,,325,2023-11-09_10h53.21.779,leap3,2022.2.5,60.09037840812557,
,,,,,,,,,,,,,,,,,,,,3,0,3,0,24,0,24,0,,,,,,urgent,w,g,upper,,,,,,,4,w,LoDemTar,None,g,1,0.5407245005480945,None,,,,,,,,,,,,,,,,,,,,325,2023-11-09_10h53.21.779,leap3,2022.2.5,60.09037840812557,
,,,,,,,,,,,,,,,,,,,,3,0,3,0,25,0,25,0,,,,,,populace,w,g,upper,,,,,,,4,w,LoDemTar,None,g,1,0.6540242659393698,None,,,,,,,,,,,,,,,,,,,,325,2023-11-09_10h53.21.779,leap3,2022.2.5,60.09037840812557,
,,,,,,,,,,,,,,,,,,,,3,0,3,0,26,0,26,0,,,,,,twenties,w,g,upper,,,,,,,4,w,LoDemTar,None,g,1,0.4747267458587885,None,,,,,,,,,,,,,,,,,,,,325,2023-11-09_10h53.21.779,leap3,2022.2.5,60.09037840812557,
,,,,,,,,,,,,,,,,,,,,3,0,3,0,27,0,27,0,,,,,,shillac,nw,h,upper,,,,,,,4,w,LoDemTar,None,h,1,0.6306912514846772,None,,,,,,,,,,,,,,,,,,,,325,2023-11-09_10h53.21.779,leap3,2022.2.5,60.09037840812557,
,,,,,,,,,,,,,,,,,,,,3,0,3,0,28,0,28,0,,,,,,publish,w,g,upper,,,,,,,4,nw,LoDemTar,None,g,1,0.6847854543011636,None,,,,,,,,,,,,,,,,,,,,325,2023-11-09_10h53.21.779,leap3,2022.2.5,60.09037840812557,
,,,,,,,,,,,,,,,,,,,,3,0,3,0,29,0,29,0,,,,,,wrestle,w,g,upper,,,,,,,4,w,LoDemTar,None,g,1,0.6720949534792453,None,,,,,,,,,,,,,,,,,,,,325,2023-11-09_10h53.21.779,leap3,2022.2.5,60.09037840812557,
,,,,,,,,,,,,,,,,,,,,3,0,3,0,,,,,,,,,,,,,,,,,,,,,,,,,,,,,,,,,,,,,,,,,,,,,,,325,2023-11-09_10h53.21.779,leap3,2022.2.5,60.09037840812557,
,,,,,,,,,,,,,,,,,,,,4,0,4,0,0,0,0,0,,,,,,inducing,w,g,upper,,,,,,,3,w,LoDemNoTar,None,g,1,0.5950133714359254,None,,,,,,,,,,,,,,,,,,,,325,2023-11-09_10h53.21.779,leap3,2022.2.5,60.09037840812557,
,,,,,,,,,,,,,,,,,,,,4,0,4,0,1,0,1,0,,,,,,shurk,nw,h,upper,,,,,,,3,nw,LoDemNoTar,None,h,1,0.5623296708799899,None,,,,,,,,,,,,,,,,,,,,325,2023-11-09_10h53.21.779,leap3,2022.2.5,60.09037840812557,
,,,,,,,,,,,,,,,,,,,,4,0,4,0,2,0,2,0,,,,,,condensed,w,g,upper,,,,,,,3,w,LoDemNoTar,None,g,1,0.5151475067250431,None,,,,,,,,,,,,,,,,,,,,325,2023-11-09_10h53.21.779,leap3,2022.2.5,60.09037840812557,
,,,,,,,,,,,,,,,,,,,,4,0,4,0,3,0,3,0,,,,,,elpousal,nw,h,upper,,,,,,,3,nw,LoDemNoTar,None,h,1,0.6618381342850626,None,,,,,,,,,,,,,,,,,,,,325,2023-11-09_10h53.21.779,leap3,2022.2.5,60.09037840812557,
,,,,,,,,,,,,,,,,,,,,4,0,4,0,4,0,4,0,,,,,,dricked,nw,h,upper,,,,,,,3,nw,LoDemNoTar,None,h,1,0.6585450002457947,None,,,,,,,,,,,,,,,,,,,,325,2023-11-09_10h53.21.779,leap3,2022.2.5,60.09037840812557,
,,,,,,,,,,,,,,,,,,,,4,0,4,0,5,0,5,0,,,,,,slooch,nw,h,upper,,,,,,,3,nw,LoDemNoTar,None,h,1,0.5191583964042366,None,,,,,,,,,,,,,,,,,,,,325,2023-11-09_10h53.21.779,leap3,2022.2.5,60.09037840812557,
,,,,,,,,,,,,,,,,,,,,4,0,4,0,6,0,6,0,,,,,,dialect,w,g,upper,,,,,,,3,w,LoDemNoTar,None,g,1,0.5453448863700032,None,,,,,,,,,,,,,,,,,,,,325,2023-11-09_10h53.21.779,leap3,2022.2.5,60.09037840812557,
,,,,,,,,,,,,,,,,,,,,4,0,4,0,7,0,7,0,,,,,,phraining,nw,h,upper,,,,,,,3,nw,LoDemNoTar,None,h,1,0.5695966146886349,None,,,,,,,,,,,,,,,,,,,,325,2023-11-09_10h53.21.779,leap3,2022.2.5,60.09037840812557,
,,,,,,,,,,,,,,,,,,,,4,0,4,0,8,0,8,0,,,,,,otoist,nw,h,upper,,,,,,,3,nw,LoDemNoTar,None,h,1,0.5935172748286277,None,,,,,,,,,,,,,,,,,,,,325,2023-11-09_10h53.21.779,leap3,2022.2.5,60.09037840812557,
,,,,,,,,,,,,,,,,,,,,4,0,4,0,9,0,9,0,,,,,,iflaid,nw,h,upper,,,,,,,3,nw,LoDemNoTar,None,h,1,0.5928812932688743,None,,,,,,,,,,,,,,,,,,,,325,2023-11-09_10h53.21.779,leap3,2022.2.5,60.09037840812557,
,,,,,,,,,,,,,,,,,,,,4,0,4,0,10,0,10,0,,,,,,facienda,nw,h,upper,,,,,,,3,nw,LoDemNoTar,None,h,1,0.7194088825490326,None,,,,,,,,,,,,,,,,,,,,325,2023-11-09_10h53.21.779,leap3,2022.2.5,60.09037840812557,
,,,,,,,,,,,,,,,,,,,,4,0,4,0,11,0,11,0,,,,,,metebing,nw,h,upper,,,,,,,3,nw,LoDemNoTar,None,h,1,0.66631980240345,None,,,,,,,,,,,,,,,,,,,,325,2023-11-09_10h53.21.779,leap3,2022.2.5,60.09037840812557,
,,,,,,,,,,,,,,,,,,,,4,0,4,0,12,0,12,0,,,,,,practice,w,g,upper,,,,,,,3,w,LoDemNoTar,None,g,1,0.5509876103606075,None,,,,,,,,,,,,,,,,,,,,325,2023-11-09_10h53.21.779,leap3,2022.2.5,60.09037840812557,
,,,,,,,,,,,,,,,,,,,,4,0,4,0,13,0,13,0,,,,,,nature,w,g,upper,,,,,,,3,w,LoDemNoTar,None,g,1,0.48829424590803683,None,,,,,,,,,,,,,,,,,,,,325,2023-11-09_10h53.21.779,leap3,2022.2.5,60.09037840812557,
,,,,,,,,,,,,,,,,,,,,4,0,4,0,14,0,14,0,,,,,,dontrite,nw,h,upper,,,,,,,3,nw,LoDemNoTar,None,h,1,0.5876192974392325,None,,,,,,,,,,,,,,,,,,,,325,2023-11-09_10h53.21.779,leap3,2022.2.5,60.09037840812557,
,,,,,,,,,,,,,,,,,,,,4,0,4,0,15,0,15,0,,,,,,doads,nw,h,upper,,,,,,,3,nw,LoDemNoTar,None,h,1,0.6030894455034286,None,,,,,,,,,,,,,,,,,,,,325,2023-11-09_10h53.21.779,leap3,2022.2.5,60.09037840812557,
,,,,,,,,,,,,,,,,,,,,4,0,4,0,16,0,16,0,,,,,,triplet,w,g,upper,,,,,,,3,w,LoDemNoTar,None,g,1,0.5537546770647168,None,,,,,,,,,,,,,,,,,,,,325,2023-11-09_10h53.21.779,leap3,2022.2.5,60.09037840812557,
,,,,,,,,,,,,,,,,,,,,4,0,4,0,17,0,17,0,,,,,,arrive,w,g,upper,,,,,,,3,w,LoDemNoTar,None,g,1,0.6414307681843638,None,,,,,,,,,,,,,,,,,,,,325,2023-11-09_10h53.21.779,leap3,2022.2.5,60.09037840812557,
,,,,,,,,,,,,,,,,,,,,4,0,4,0,18,0,18,0,,,,,,calcify,w,g,upper,,,,,,,3,w,LoDemNoTar,None,g,1,0.5186713952571154,None,,,,,,,,,,,,,,,,,,,,325,2023-11-09_10h53.21.779,leap3,2022.2.5,60.09037840812557,
,,,,,,,,,,,,,,,,,,,,4,0,4,0,19,0,19,0,,,,,,swatches,w,g,upper,,,,,,,3,w,LoDemNoTar,None,g,1,0.5610030812676996,None,,,,,,,,,,,,,,,,,,,,325,2023-11-09_10h53.21.779,leap3,2022.2.5,60.09037840812557,
,,,,,,,,,,,,,,,,,,,,4,0,4,0,20,0,20,0,,,,,,humanize,w,g,upper,,,,,,,3,w,LoDemNoTar,None,g,1,0.6254269382916391,None,,,,,,,,,,,,,,,,,,,,325,2023-11-09_10h53.21.779,leap3,2022.2.5,60.09037840812557,
,,,,,,,,,,,,,,,,,,,,4,0,4,0,21,0,21,0,,,,,,vinegar,w,g,upper,,,,,,,3,w,LoDemNoTar,None,g,1,0.551415681373328,None,,,,,,,,,,,,,,,,,,,,325,2023-11-09_10h53.21.779,leap3,2022.2.5,60.09037840812557,
,,,,,,,,,,,,,,,,,,,,4,0,4,0,22,0,22,0,,,,,,imotope,nw,h,upper,,,,,,,3,nw,LoDemNoTar,None,h,1,0.7199872583150864,None,,,,,,,,,,,,,,,,,,,,325,2023-11-09_10h53.21.779,leap3,2022.2.5,60.09037840812557,
,,,,,,,,,,,,,,,,,,,,4,0,4,0,23,0,23,0,,,,,,chrik,nw,h,upper,,,,,,,3,nw,LoDemNoTar,None,h,1,0.5782156405039132,None,,,,,,,,,,,,,,,,,,,,325,2023-11-09_10h53.21.779,leap3,2022.2.5,60.09037840812557,
,,,,,,,,,,,,,,,,,,,,4,0,4,0,24,0,24,0,,,,,,demise,w,g,upper,,,,,,,3,w,LoDemNoTar,None,g,1,0.6182440859265625,None,,,,,,,,,,,,,,,,,,,,325,2023-11-09_10h53.21.779,leap3,2022.2.5,60.09037840812557,
,,,,,,,,,,,,,,,,,,,,4,0,4,0,25,0,25,0,,,,,,demon,w,g,upper,,,,,,,3,w,LoDemNoTar,None,g,1,0.4963117209263146,None,,,,,,,,,,,,,,,,,,,,325,2023-11-09_10h53.21.779,leap3,2022.2.5,60.09037840812557,
,,,,,,,,,,,,,,,,,,,,4,0,4,0,26,0,26,0,,,,,,expected,w,g,upper,,,,,,,3,w,LoDemNoTar,None,g,1,0.7076884109992534,None,,,,,,,,,,,,,,,,,,,,325,2023-11-09_10h53.21.779,leap3,2022.2.5,60.09037840812557,
,,,,,,,,,,,,,,,,,,,,4,0,4,0,27,0,27,0,,,,,,sprea,nw,h,upper,,,,,,,3,nw,LoDemNoTar,None,h,1,0.6853267503902316,None,,,,,,,,,,,,,,,,,,,,325,2023-11-09_10h53.21.779,leap3,2022.2.5,60.09037840812557,
,,,,,,,,,,,,,,,,,,,,4,0,4,0,28,0,28,0,,,,,,plapping,nw,h,upper,,,,,,,3,nw,LoDemNoTar,None,h,1,0.6886953678913414,None,,,,,,,,,,,,,,,,,,,,325,2023-11-09_10h53.21.779,leap3,2022.2.5,60.09037840812557,
,,,,,,,,,,,,,,,,,,,,4,0,4,0,29,0,29,0,,,,,,posing,w,g,upper,,,,,,,3,w,LoDemNoTar,None,g,1,0.7320861404296011,None,,,,,,,,,,,,,,,,,,,,325,2023-11-09_10h53.21.779,leap3,2022.2.5,60.09037840812557,
,,,,,,,,,,,,,,,,,,,,4,0,4,0,,,,,,,,,,,,,,,,,,,,,,,,,,,,,,,,,,,,,,,,,,,,,,,325,2023-11-09_10h53.21.779,leap3,2022.2.5,60.09037840812557,
,,,,,,,,,,,,,,,,,,,,5,0,5,0,0,0,0,0,,,,,,ufionize,nw,h,lower,,,,,,,1,nw,HiDemTar,None,h,1,0.6620165798813105,None,,,,,,,,,,,,,,,,,,,,325,2023-11-09_10h53.21.779,leap3,2022.2.5,60.09037840812557,
,,,,,,,,,,,,,,,,,,,,5,0,5,0,1,0,1,0,,,,,,sonkers,nw,h,lower,,,,,,,1,nw,HiDemTar,None,h,1,0.4985825167968869,None,,,,,,,,,,,,,,,,,,,,325,2023-11-09_10h53.21.779,leap3,2022.2.5,60.09037840812557,
,,,,,,,,,,,,,,,,,,,,5,0,5,0,2,0,2,0,,,,,,oalis,nw,h,lower,,,,,,,1,nw,HiDemTar,None,h,1,0.47802153532393277,None,,,,,,,,,,,,,,,,,,,,325,2023-11-09_10h53.21.779,leap3,2022.2.5,60.09037840812557,
,,,,,,,,,,,,,,,,,,,,5,0,5,0,3,0,3,0,,,,,,alarm,w,g,lower,,,,,,,1,w,HiDemTar,None,g,1,0.5851869403850287,None,,,,,,,,,,,,,,,,,,,,325,2023-11-09_10h53.21.779,leap3,2022.2.5,60.09037840812557,
,,,,,,,,,,,,,,,,,,,,5,0,5,0,4,0,4,0,,,,,,sefraud,nw,h,lower,,,,,,,1,nw,HiDemTar,None,h,1,0.512811821885407,None,,,,,,,,,,,,,,,,,,,,325,2023-11-09_10h53.21.779,leap3,2022.2.5,60.09037840812557,
,,,,,,,,,,,,,,,,,,,,5,0,5,0,5,0,5,0,,,,,,reforest,w,g,lower,,,,,,,1,w,HiDemTar,None,g,1,0.5958575948607177,None,,,,,,,,,,,,,,,,,,,,325,2023-11-09_10h53.21.779,leap3,2022.2.5,60.09037840812557,
,,,,,,,,,,,,,,,,,,,,5,0,5,0,6,0,6,0,,,,,,mortgage,w,g,lower,,,,,,,1,w,HiDemTar,None,g,1,0.7392557500861585,None,,,,,,,,,,,,,,,,,,,,325,2023-11-09_10h53.21.779,leap3,2022.2.5,60.09037840812557,
,,,,,,,,,,,,,,,,,,,,5,0,5,0,7,0,7,0,,,,,,puyer,nw,h,lower,,,,,,,1,nw,HiDemTar,None,h,1,0.6125311753712595,None,,,,,,,,,,,,,,,,,,,,325,2023-11-09_10h53.21.779,leap3,2022.2.5,60.09037840812557,
,,,,,,,,,,,,,,,,,,,,5,0,5,0,8,0,8,0,,,,,,dazid,nw,h,lower,,,,,,,1,nw,HiDemTar,None,h,1,0.4993691344279796,None,,,,,,,,,,,,,,,,,,,,325,2023-11-09_10h53.21.779,leap3,2022.2.5,60.09037840812557,
,,,,,,,,,,,,,,,,,,,,5,0,5,0,9,0,9,0,,,,,,sustain,w,g,lower,,,,,,,1,w,HiDemTar,None,g,1,0.6707617423962802,None,,,,,,,,,,,,,,,,,,,,325,2023-11-09_10h53.21.779,leap3,2022.2.5,60.09037840812557,
,,,,,,,,,,,,,,,,,,,,5,0,5,0,10,0,10,0,,,,,,desert,w,g,lower,,,,,,,1,w,HiDemTar,None,g,1,0.6265512453392148,None,,,,,,,,,,,,,,,,,,,,325,2023-11-09_10h53.21.779,leap3,2022.2.5,60.09037840812557,
,,,,,,,,,,,,,,,,,,,,5,0,5,0,11,0,11,0,,,,,,heaviest,w,g,lower,,,,,,,1,w,HiDemTar,None,g,1,0.6406805680599064,None,,,,,,,,,,,,,,,,,,,,325,2023-11-09_10h53.21.779,leap3,2022.2.5,60.09037840812557,
,,,,,,,,,,,,,,,,,,,,5,0,5,0,12,0,12,0,,,,,,create,w,g,lower,,,,,,,1,w,HiDemTar,None,g,1,0.5251119933091104,None,,,,,,,,,,,,,,,,,,,,325,2023-11-09_10h53.21.779,leap3,2022.2.5,60.09037840812557,
,,,,,,,,,,,,,,,,,,,,5,0,5,0,13,0,13,0,,,,,,frose,nw,h,lower,,,,,,,1,nw,HiDemTar,None,g,0,0.5910869042854756,None,,,,,,,,,,,,,,,,,,,,325,2023-11-09_10h53.21.779,leap3,2022.2.5,60.09037840812557,
,,,,,,,,,,,,,,,,,,,,5,0,5,0,14,0,14,0,,,,,,churnad,nw,h,lower,,,,,,,1,nw,HiDemTar,None,h,1,0.5584346551913768,None,,,,,,,,,,,,,,,,,,,,325,2023-11-09_10h53.21.779,leap3,2022.2.5,60.09037840812557,
,,,,,,,,,,,,,,,,,,,,5,0,5,0,15,0,15,0,,,,,,menarthe,nw,h,lower,,,,,,,1,nw,HiDemTar,None,h,1,0.7271148224826902,None,,,,,,,,,,,,,,,,,,,,325,2023-11-09_10h53.21.779,leap3,2022.2.5,60.09037840812557,
,,,,,,,,,,,,,,,,,,,,5,0,5,0,16,0,16,0,,,,,,blueberry,w,g,lower,,,,,,,1,w,HiDemTar,None,g,1,0.5771688031964004,None,,,,,,,,,,,,,,,,,,,,325,2023-11-09_10h53.21.779,leap3,2022.2.5,60.09037840812557,
,,,,,,,,,,,,,,,,,,,,5,0,5,0,17,0,17,0,,,,,,farochial,nw,h,lower,,,,,,,1,nw,HiDemTar,None,h,1,0.6012103031389415,None,,,,,,,,,,,,,,,,,,,,325,2023-11-09_10h53.21.779,leap3,2022.2.5,60.09037840812557,
,,,,,,,,,,,,,,,,,,,,5,0,5,0,18,0,18,0,,,,,,pripend,nw,h,lower,,,,,,,1,nw,HiDemTar,None,h,1,0.48790888278745115,None,,,,,,,,,,,,,,,,,,,,325,2023-11-09_10h53.21.779,leap3,2022.2.5,60.09037840812557,
,,,,,,,,,,,,,,,,,,,,5,0,5,0,19,0,19,0,,,,,,squirrel,target,q,lower,,,,,,,1,target,HiDemTar,None,g,0,0.547316727694124,q,q,0.2206359861884266,,,,,,,,,,,,,,,,,,325,2023-11-09_10h53.21.779,leap3,2022.2.5,60.09037840812557,
,,,,,,,,,,,,,,,,,,,,5,0,5,0,20,0,20,0,,,,,,phambled,nw,h,lower,,,,,,,1,aftertar1,HiDemTar,None,h,1,1.4447068190202117,None,,,,,,,,,,,,,,,,,,,,325,2023-11-09_10h53.21.779,leap3,2022.2.5,60.09037840812557,
,,,,,,,,,,,,,,,,,,,,5,0,5,0,21,0,21,0,,,,,,mankind,w,g,lower,,,,,,,1,aftertar2,HiDemTar,None,q,0,0.8653211686760187,q,q,0.19768634880892932,1,,,,,,,,,,,,,,,,,325,2023-11-09_10h53.21.779,leap3,2022.2.5,60.09037840812557,
,,,,,,,,,,,,,,,,,,,,5,0,5,0,22,0,22,0,,,,,,enacted,w,g,lower,,,,,,,1,aftertar3,HiDemTar,None,h,0,0.6776893415953964,None,,,,,,,,,,,,,,,,,,,,325,2023-11-09_10h53.21.779,leap3,2022.2.5,60.09037840812557,
,,,,,,,,,,,,,,,,,,,,5,0,5,0,23,0,23,0,,,,,,guivers,nw,h,lower,,,,,,,1,w,HiDemTar,None,h,1,0.8096888235304505,None,,,,,,,,,,,,,,,,,,,,325,2023-11-09_10h53.21.779,leap3,2022.2.5,60.09037840812557,
,,,,,,,,,,,,,,,,,,,,5,0,5,0,24,0,24,0,,,,,,dishwater,w,g,lower,,,,,,,1,nw,HiDemTar,None,g,1,0.5916536927688867,None,,,,,,,,,,,,,,,,,,,,325,2023-11-09_10h53.21.779,leap3,2022.2.5,60.09037840812557,
,,,,,,,,,,,,,,,,,,,,5,0,5,0,25,0,25,0,,,,,,colicky,w,g,lower,,,,,,,1,w,HiDemTar,None,h,0,0.6870228121988475,None,,,,,,,,,,,,,,,,,,,,325,2023-11-09_10h53.21.779,leap3,2022.2.5,60.09037840812557,
,,,,,,,,,,,,,,,,,,,,5,0,5,0,26,0,26,0,,,,,,heuls,nw,h,lower,,,,,,,1,w,HiDemTar,None,h,1,0.5543711257632822,None,,,,,,,,,,,,,,,,,,,,325,2023-11-09_10h53.21.779,leap3,2022.2.5,60.09037840812557,
,,,,,,,,,,,,,,,,,,,,5,0,5,0,27,0,27,0,,,,,,axis,w,g,lower,,,,,,,1,nw,HiDemTar,None,g,1,0.5551041106227785,None,,,,,,,,,,,,,,,,,,,,325,2023-11-09_10h53.21.779,leap3,2022.2.5,60.09037840812557,
,,,,,,,,,,,,,,,,,,,,5,0,5,0,28,0,28,0,,,,,,carony,nw,h,lower,,,,,,,1,w,HiDemTar,None,h,1,0.8117202573921531,None,,,,,,,,,,,,,,,,,,,,325,2023-11-09_10h53.21.779,leap3,2022.2.5,60.09037840812557,
,,,,,,,,,,,,,,,,,,,,5,0,5,0,29,0,29,0,,,,,,delegate,w,g,lower,,,,,,,1,nw,HiDemTar,None,g,1,0.6099597697611898,None,,,,,,,,,,,,,,,,,,,,325,2023-11-09_10h53.21.779,leap3,2022.2.5,60.09037840812557,
,,,,,,,,,,,,,,,,,,,,5,0,5,0,,,,,,,,,,,,,,,,,,,,,,,,,,,,,,,,,,,,,,,,,,,,,,,325,2023-11-09_10h53.21.779,leap3,2022.2.5,60.09037840812557,
,,,,,,,,,,,,,,,,,,,,6,0,6,0,0,0,0,0,,,,,,pester,w,g,upper,,,,,,,3,w,LoDemNoTar,None,h,0,0.7123197221662849,None,,,,,,,,,,,,,,,,,,,,325,2023-11-09_10h53.21.779,leap3,2022.2.5,60.09037840812557,
,,,,,,,,,,,,,,,,,,,,6,0,6,0,1,0,1,0,,,,,,couple,w,g,upper,,,,,,,3,w,LoDemNoTar,None,g,1,0.7630999337416142,None,,,,,,,,,,,,,,,,,,,,325,2023-11-09_10h53.21.779,leap3,2022.2.5,60.09037840812557,
,,,,,,,,,,,,,,,,,,,,6,0,6,0,2,0,2,0,,,,,,emotion,w,g,upper,,,,,,,3,w,LoDemNoTar,None,g,1,0.5157705771271139,None,,,,,,,,,,,,,,,,,,,,325,2023-11-09_10h53.21.779,leap3,2022.2.5,60.09037840812557,
,,,,,,,,,,,,,,,,,,,,6,0,6,0,3,0,3,0,,,,,,tracing,w,g,upper,,,,,,,3,w,LoDemNoTar,None,g,1,0.4784539102111012,None,,,,,,,,,,,,,,,,,,,,325,2023-11-09_10h53.21.779,leap3,2022.2.5,60.09037840812557,
,,,,,,,,,,,,,,,,,,,,6,0,6,0,4,0,4,0,,,,,,poughest,nw,h,upper,,,,,,,3,nw,LoDemNoTar,None,h,1,0.6425292519852519,None,,,,,,,,,,,,,,,,,,,,325,2023-11-09_10h53.21.779,leap3,2022.2.5,60.09037840812557,
,,,,,,,,,,,,,,,,,,,,6,0,6,0,5,0,5,0,,,,,,border,w,g,upper,,,,,,,3,w,LoDemNoTar,None,g,1,0.5598787739872932,None,,,,,,,,,,,,,,,,,,,,325,2023-11-09_10h53.21.779,leap3,2022.2.5,60.09037840812557,
,,,,,,,,,,,,,,,,,,,,6,0,6,0,6,0,6,0,,,,,,latpin,nw,h,upper,,,,,,,3,nw,LoDemNoTar,None,h,1,0.6155866023618728,None,,,,,,,,,,,,,,,,,,,,325,2023-11-09_10h53.21.779,leap3,2022.2.5,60.09037840812557,
,,,,,,,,,,,,,,,,,,,,6,0,6,0,7,0,7,0,,,,,,pircus,nw,h,upper,,,,,,,3,nw,LoDemNoTar,None,h,1,0.6943235248327255,None,,,,,,,,,,,,,,,,,,,,325,2023-11-09_10h53.21.779,leap3,2022.2.5,60.09037840812557,
,,,,,,,,,,,,,,,,,,,,6,0,6,0,8,0,8,0,,,,,,arcients,nw,h,upper,,,,,,,3,nw,LoDemNoTar,None,h,1,0.7696951406542212,None,,,,,,,,,,,,,,,,,,,,325,2023-11-09_10h53.21.779,leap3,2022.2.5,60.09037840812557,
,,,,,,,,,,,,,,,,,,,,6,0,6,0,9,0,9,0,,,,,,ergonomic,w,g,upper,,,,,,,3,w,LoDemNoTar,None,g,1,0.7856734779197723,None,,,,,,,,,,,,,,,,,,,,325,2023-11-09_10h53.21.779,leap3,2022.2.5,60.09037840812557,
,,,,,,,,,,,,,,,,,,,,6,0,6,0,10,0,10,0,,,,,,relaying,w,g,upper,,,,,,,3,w,LoDemNoTar,None,g,1,0.5530312934424728,None,,,,,,,,,,,,,,,,,,,,325,2023-11-09_10h53.21.779,leap3,2022.2.5,60.09037840812557,
,,,,,,,,,,,,,,,,,,,,6,0,6,0,11,0,11,0,,,,,,brimitar,nw,h,upper,,,,,,,3,nw,LoDemNoTar,None,h,1,0.5777230111416429,None,,,,,,,,,,,,,,,,,,,,325,2023-11-09_10h53.21.779,leap3,2022.2.5,60.09037840812557,
,,,,,,,,,,,,,,,,,,,,6,0,6,0,12,0,12,0,,,,,,anonymous,w,g,upper,,,,,,,3,w,LoDemNoTar,None,g,1,0.6337807786185294,None,,,,,,,,,,,,,,,,,,,,325,2023-11-09_10h53.21.779,leap3,2022.2.5,60.09037840812557,
,,,,,,,,,,,,,,,,,,,,6,0,6,0,13,0,13,0,,,,,,gymnasium,w,g,upper,,,,,,,3,w,LoDemNoTar,None,h,0,0.5351218357682228,None,,,,,,,,,,,,,,,,,,,,325,2023-11-09_10h53.21.779,leap3,2022.2.5,60.09037840812557,
,,,,,,,,,,,,,,,,,,,,6,0,6,0,14,0,14,0,,,,,,wienegs,nw,h,upper,,,,,,,3,nw,LoDemNoTar,None,h,1,0.6484672885853797,None,,,,,,,,,,,,,,,,,,,,325,2023-11-09_10h53.21.779,leap3,2022.2.5,60.09037840812557,
,,,,,,,,,,,,,,,,,,,,6,0,6,0,15,0,15,0,,,,,,lovud,nw,h,upper,,,,,,,3,nw,LoDemNoTar,None,h,1,0.710127389524132,None,,,,,,,,,,,,,,,,,,,,325,2023-11-09_10h53.21.779,leap3,2022.2.5,60.09037840812557,
,,,,,,,,,,,,,,,,,,,,6,0,6,0,16,0,16,0,,,,,,companion,w,g,upper,,,,,,,3,w,LoDemNoTar,None,g,1,0.5755707377102226,None,,,,,,,,,,,,,,,,,,,,325,2023-11-09_10h53.21.779,leap3,2022.2.5,60.09037840812557,
,,,,,,,,,,,,,,,,,,,,6,0,6,0,17,0,17,0,,,,,,traze,nw,h,upper,,,,,,,3,nw,LoDemNoTar,None,h,1,0.6475538716185838,None,,,,,,,,,,,,,,,,,,,,325,2023-11-09_10h53.21.779,leap3,2022.2.5,60.09037840812557,
,,,,,,,,,,,,,,,,,,,,6,0,6,0,18,0,18,0,,,,,,ragtam,nw,h,upper,,,,,,,3,nw,LoDemNoTar,None,h,1,0.5648775706067681,None,,,,,,,,,,,,,,,,,,,,325,2023-11-09_10h53.21.779,leap3,2022.2.5,60.09037840812557,
,,,,,,,,,,,,,,,,,,,,6,0,6,0,19,0,19,0,,,,,,rapport,w,g,upper,,,,,,,3,w,LoDemNoTar,None,g,1,0.5814836132340133,None,,,,,,,,,,,,,,,,,,,,325,2023-11-09_10h53.21.779,leap3,2022.2.5,60.09037840812557,
,,,,,,,,,,,,,,,,,,,,6,0,6,0,20,0,20,0,,,,,,moral,w,g,upper,,,,,,,3,w,LoDemNoTar,None,g,1,0.6056346967816353,None,,,,,,,,,,,,,,,,,,,,325,2023-11-09_10h53.21.779,leap3,2022.2.5,60.09037840812557,
,,,,,,,,,,,,,,,,,,,,6,0,6,0,21,0,21,0,,,,,,selongs,nw,h,upper,,,,,,,3,nw,LoDemNoTar,None,h,1,0.6202533377800137,None,,,,,,,,,,,,,,,,,,,,325,2023-11-09_10h53.21.779,leap3,2022.2.5,60.09037840812557,
,,,,,,,,,,,,,,,,,,,,6,0,6,0,22,0,22,0,,,,,,slowning,nw,h,upper,,,,,,,3,nw,LoDemNoTar,None,g,0,0.8339143977500498,None,,,,,,,,,,,,,,,,,,,,325,2023-11-09_10h53.21.779,leap3,2022.2.5,60.09037840812557,
,,,,,,,,,,,,,,,,,,,,6,0,6,0,23,0,23,0,,,,,,mamps,nw,h,upper,,,,,,,3,nw,LoDemNoTar,None,h,1,0.8162214586045593,None,,,,,,,,,,,,,,,,,,,,325,2023-11-09_10h53.21.779,leap3,2022.2.5,60.09037840812557,
,,,,,,,,,,,,,,,,,,,,6,0,6,0,24,0,24,0,,,,,,issue,w,g,upper,,,,,,,3,w,LoDemNoTar,None,g,1,0.6150297459680587,None,,,,,,,,,,,,,,,,,,,,325,2023-11-09_10h53.21.779,leap3,2022.2.5,60.09037840812557,
,,,,,,,,,,,,,,,,,,,,6,0,6,0,25,0,25,0,,,,,,century,w,g,upper,,,,,,,3,w,LoDemNoTar,None,g,1,0.5886419666931033,None,,,,,,,,,,,,,,,,,,,,325,2023-11-09_10h53.21.779,leap3,2022.2.5,60.09037840812557,
,,,,,,,,,,,,,,,,,,,,6,0,6,0,26,0,26,0,,,,,,fatho,nw,h,upper,,,,,,,3,nw,LoDemNoTar,None,h,1,0.6119329354260117,None,,,,,,,,,,,,,,,,,,,,325,2023-11-09_10h53.21.779,leap3,2022.2.5,60.09037840812557,
,,,,,,,,,,,,,,,,,,,,6,0,6,0,27,0,27,0,,,,,,catacomb,w,g,upper,,,,,,,3,w,LoDemNoTar,None,g,1,1.354723845841363,None,,,,,,,,,,,,,,,,,,,,325,2023-11-09_10h53.21.779,leap3,2022.2.5,60.09037840812557,
,,,,,,,,,,,,,,,,,,,,6,0,6,0,28,0,28,0,,,,,,arrigns,nw,h,upper,,,,,,,3,nw,LoDemNoTar,None,h,1,0.9233898434322327,None,,,,,,,,,,,,,,,,,,,,325,2023-11-09_10h53.21.779,leap3,2022.2.5,60.09037840812557,
,,,,,,,,,,,,,,,,,,,,6,0,6,0,29,0,29,0,,,,,,naxis,nw,h,upper,,,,,,,3,nw,LoDemNoTar,None,h,1,0.6454231177922338,None,,,,,,,,,,,,,,,,,,,,325,2023-11-09_10h53.21.779,leap3,2022.2.5,60.09037840812557,
,,,,,,,,,,,,,,,,,,,,6,0,6,0,,,,,,,,,,,,,,,,,,,,,,,,,,,,,,,,,,,,,,,,,,,,,,,325,2023-11-09_10h53.21.779,leap3,2022.2.5,60.09037840812557,
,,,,,,,,,,,,,,,,,,,,7,0,7,0,0,0,0,0,,,,,,eyesight,w,g,lower,,,,,,,1,w,HiDemTar,None,g,1,0.6338718221522868,None,,,,,,,,,,,,,,,,,,,,325,2023-11-09_10h53.21.779,leap3,2022.2.5,60.09037840812557,
,,,,,,,,,,,,,,,,,,,,7,0,7,0,1,0,1,0,,,,,,unspoken,w,g,lower,,,,,,,1,w,HiDemTar,None,g,1,0.5832929001189768,None,,,,,,,,,,,,,,,,,,,,325,2023-11-09_10h53.21.779,leap3,2022.2.5,60.09037840812557,
,,,,,,,,,,,,,,,,,,,,7,0,7,0,2,0,2,0,,,,,,drauns,nw,h,lower,,,,,,,1,nw,HiDemTar,None,h,1,0.5752823774237186,None,,,,,,,,,,,,,,,,,,,,325,2023-11-09_10h53.21.779,leap3,2022.2.5,60.09037840812557,
,,,,,,,,,,,,,,,,,,,,7,0,7,0,3,0,3,0,,,,,,rantho,nw,h,lower,,,,,,,1,nw,HiDemTar,None,h,1,0.5192815535701811,None,,,,,,,,,,,,,,,,,,,,325,2023-11-09_10h53.21.779,leap3,2022.2.5,60.09037840812557,
,,,,,,,,,,,,,,,,,,,,7,0,7,0,4,0,4,0,,,,,,pranny,nw,h,lower,,,,,,,1,nw,HiDemTar,None,h,1,0.6493932858575135,None,,,,,,,,,,,,,,,,,,,,325,2023-11-09_10h53.21.779,leap3,2022.2.5,60.09037840812557,
,,,,,,,,,,,,,,,,,,,,7,0,7,0,5,0,5,0,,,,,,fallacy,w,g,lower,,,,,,,1,w,HiDemTar,None,h,0,0.4780205418355763,None,,,,,,,,,,,,,,,,,,,,325,2023-11-09_10h53.21.779,leap3,2022.2.5,60.09037840812557,
,,,,,,,,,,,,,,,,,,,,7,0,7,0,6,0,6,0,,,,,,reddar,nw,h,lower,,,,,,,1,nw,HiDemTar,None,h,1,0.682025671005249,None,,,,,,,,,,,,,,,,,,,,325,2023-11-09_10h53.21.779,leap3,2022.2.5,60.09037840812557,
,,,,,,,,,,,,,,,,,,,,7,0,7,0,7,0,7,0,,,,,,racile,nw,h,lower,,,,,,,1,nw,HiDemTar,None,h,1,0.7901260124053806,None,,,,,,,,,,,,,,,,,,,,325,2023-11-09_10h53.21.779,leap3,2022.2.5,60.09037840812557,
,,,,,,,,,,,,,,,,,,,,7,0,7,0,8,0,8,0,,,,,,sunhess,nw,h,lower,,,,,,,1,nw,HiDemTar,None,h,1,0.6608052016235888,None,,,,,,,,,,,,,,,,,,,,325,2023-11-09_10h53.21.779,leap3,2022.2.5,60.09037840812557,
,,,,,,,,,,,,,,,,,,,,7,0,7,0,9,0,9,0,,,,,,tharcely,nw,h,lower,,,,,,,1,nw,HiDemTar,None,h,1,0.7038016722071916,None,,,,,,,,,,,,,,,,,,,,325,2023-11-09_10h53.21.779,leap3,2022.2.5,60.09037840812557,
,,,,,,,,,,,,,,,,,,,,7,0,7,0,10,0,10,0,,,,,,earmaff,nw,h,lower,,,,,,,1,nw,HiDemTar,None,h,1,0.5298369966913015,None,,,,,,,,,,,,,,,,,,,,325,2023-11-09_10h53.21.779,leap3,2022.2.5,60.09037840812557,
,,,,,,,,,,,,,,,,,,,,7,0,7,0,11,0,11,0,,,,,,drobate,nw,h,lower,,,,,,,1,nw,HiDemTar,None,h,1,0.6595454877242446,None,,,,,,,,,,,,,,,,,,,,325,2023-11-09_10h53.21.779,leap3,2022.2.5,60.09037840812557,
,,,,,,,,,,,,,,,,,,,,7,0,7,0,12,0,12,0,,,,,,giving,w,g,lower,,,,,,,1,w,HiDemTar,None,g,1,0.551275308476761,None,,,,,,,,,,,,,,,,,,,,325,2023-11-09_10h53.21.779,leap3,2022.2.5,60.09037840812557,
,,,,,,,,,,,,,,,,,,,,7,0,7,0,13,0,13,0,,,,,,kickoff,w,g,lower,,,,,,,1,w,HiDemTar,None,h,0,0.45583368511870503,None,,,,,,,,,,,,,,,,,,,,325,2023-11-09_10h53.21.779,leap3,2022.2.5,60.09037840812557,
,,,,,,,,,,,,,,,,,,,,7,0,7,0,14,0,14,0,,,,,,educate,w,g,lower,,,,,,,1,w,HiDemTar,None,g,1,0.595895336708054,None,,,,,,,,,,,,,,,,,,,,325,2023-11-09_10h53.21.779,leap3,2022.2.5,60.09037840812557,
,,,,,,,,,,,,,,,,,,,,7,0,7,0,15,0,15,0,,,,,,icepick,w,g,lower,,,,,,,1,w,HiDemTar,None,g,1,0.579163488233462,None,,,,,,,,,,,,,,,,,,,,325,2023-11-09_10h53.21.779,leap3,2022.2.5,60.09037840812557,
,,,,,,,,,,,,,,,,,,,,7,0,7,0,16,0,16,0,,,,,,exploit,w,g,lower,,,,,,,1,w,HiDemTar,None,g,1,0.5306587074883282,None,,,,,,,,,,,,,,,,,,,,325,2023-11-09_10h53.21.779,leap3,2022.2.5,60.09037840812557,
,,,,,,,,,,,,,,,,,,,,7,0,7,0,17,0,17,0,,,,,,audience,w,g,lower,,,,,,,1,w,HiDemTar,None,g,1,0.4199313409626484,None,,,,,,,,,,,,,,,,,,,,325,2023-11-09_10h53.21.779,leap3,2022.2.5,60.09037840812557,
,,,,,,,,,,,,,,,,,,,,7,0,7,0,18,0,18,0,,,,,,walnut,w,g,lower,,,,,,,1,w,HiDemTar,None,g,1,0.8180585552472621,None,,,,,,,,,,,,,,,,,,,,325,2023-11-09_10h53.21.779,leap3,2022.2.5,60.09037840812557,
,,,,,,,,,,,,,,,,,,,,7,0,7,0,19,0,19,0,,,,,,gazes,w,g,lower,,,,,,,1,w,HiDemTar,None,h,0,0.9430182063952088,None,,,,,,,,,,,,,,,,,,,,325,2023-11-09_10h53.21.779,leap3,2022.2.5,60.09037840812557,
,,,,,,,,,,,,,,,,,,,,7,0,7,0,20,0,20,0,,,,,,buzzer,w,g,lower,,,,,,,1,w,HiDemTar,None,g,1,0.7437503302935511,None,,,,,,,,,,,,,,,,,,,,325,2023-11-09_10h53.21.779,leap3,2022.2.5,60.09037840812557,
,,,,,,,,,,,,,,,,,,,,7,0,7,0,21,0,21,0,,,,,,thaken,nw,h,lower,,,,,,,1,nw,HiDemTar,None,h,1,0.73651152709499,None,,,,,,,,,,,,,,,,,,,,325,2023-11-09_10h53.21.779,leap3,2022.2.5,60.09037840812557,
,,,,,,,,,,,,,,,,,,,,7,0,7,0,22,0,22,0,,,,,,ladybug,target,q,lower,,,,,,,1,target,HiDemTar,None,g,0,0.7772107163909823,None,,,,,,,,,,,,,,,,,,,,325,2023-11-09_10h53.21.779,leap3,2022.2.5,60.09037840812557,
,,,,,,,,,,,,,,,,,,,,7,0,7,0,23,0,23,0,,,,,,pived,nw,h,lower,,,,,,,1,aftertar1,HiDemTar,None,h,1,1.200566309504211,None,,,,,,,,,,,,,,,,,,,,325,2023-11-09_10h53.21.779,leap3,2022.2.5,60.09037840812557,
,,,,,,,,,,,,,,,,,,,,7,0,7,0,24,0,24,0,,,,,,warmer,w,g,lower,,,,,,,1,aftertar2,HiDemTar,None,g,1,0.5996138930786401,None,,,,,,,,,,,,,,,,,,,,325,2023-11-09_10h53.21.779,leap3,2022.2.5,60.09037840812557,
,,,,,,,,,,,,,,,,,,,,7,0,7,0,25,0,25,0,,,,,,spiud,nw,h,lower,,,,,,,1,aftertar3,HiDemTar,None,q,0,0.5900549651123583,None,q,,1,,,,,,,,,,,,,,,,,325,2023-11-09_10h53.21.779,leap3,2022.2.5,60.09037840812557,
,,,,,,,,,,,,,,,,,,,,7,0,7,0,26,0,26,0,,,,,,noblest,w,g,lower,,,,,,,1,nw,HiDemTar,None,g,1,0.6693692703265697,None,,,,,,,,,,,,,,,,,,,,325,2023-11-09_10h53.21.779,leap3,2022.2.5,60.09037840812557,
,,,,,,,,,,,,,,,,,,,,7,0,7,0,27,0,27,0,,,,,,elpired,nw,h,lower,,,,,,,1,w,HiDemTar,None,h,1,0.8084589058998972,None,,,,,,,,,,,,,,,,,,,,325,2023-11-09_10h53.21.779,leap3,2022.2.5,60.09037840812557,
,,,,,,,,,,,,,,,,,,,,7,0,7,0,28,0,28,0,,,,,,solidity,w,g,lower,,,,,,,1,nw,HiDemTar,None,g,1,0.6067013980355114,None,,,,,,,,,,,,,,,,,,,,325,2023-11-09_10h53.21.779,leap3,2022.2.5,60.09037840812557,
,,,,,,,,,,,,,,,,,,,,7,0,7,0,29,0,29,0,,,,,,huntry,nw,h,lower,,,,,,,1,w,HiDemTar,None,h,1,0.5644779712893069,None,,,,,,,,,,,,,,,,,,,,325,2023-11-09_10h53.21.779,leap3,2022.2.5,60.09037840812557,
,,,,,,,,,,,,,,,,,,,,7,0,7,0,,,,,,,,,,,,,,,,,,,,,,,,,,,,,,,,,,,,,,,,,,,,,,,325,2023-11-09_10h53.21.779,leap3,2022.2.5,60.09037840812557,
,,,,,,,,,,,,,,,,,,,,8,0,8,0,0,0,0,0,,,,,,fravity,nw,h,lower,,,,,,,1,nw,HiDemTar,None,h,1,0.7813152980525047,None,,,,,,,,,,,,,,,,,,,,325,2023-11-09_10h53.21.779,leap3,2022.2.5,60.09037840812557,
,,,,,,,,,,,,,,,,,,,,8,0,8,0,1,0,1,0,,,,,,bullet,w,g,lower,,,,,,,1,w,HiDemTar,None,g,1,0.5406543142162263,None,,,,,,,,,,,,,,,,,,,,325,2023-11-09_10h53.21.779,leap3,2022.2.5,60.09037840812557,
,,,,,,,,,,,,,,,,,,,,8,0,8,0,2,0,2,0,,,,,,hangar,w,g,lower,,,,,,,1,w,HiDemTar,None,h,0,0.4932410647161305,None,,,,,,,,,,,,,,,,,,,,325,2023-11-09_10h53.21.779,leap3,2022.2.5,60.09037840812557,
,,,,,,,,,,,,,,,,,,,,8,0,8,0,3,0,3,0,,,,,,aicline,nw,h,lower,,,,,,,1,nw,HiDemTar,None,h,1,0.9269806074444205,None,,,,,,,,,,,,,,,,,,,,325,2023-11-09_10h53.21.779,leap3,2022.2.5,60.09037840812557,
,,,,,,,,,,,,,,,,,,,,8,0,8,0,4,0,4,0,,,,,,perform,w,g,lower,,,,,,,1,w,HiDemTar,None,g,1,0.5522003127261996,None,,,,,,,,,,,,,,,,,,,,325,2023-11-09_10h53.21.779,leap3,2022.2.5,60.09037840812557,
,,,,,,,,,,,,,,,,,,,,8,0,8,0,5,0,5,0,,,,,,nearsipe,nw,h,lower,,,,,,,1,nw,HiDemTar,None,h,1,0.624951193574816,None,,,,,,,,,,,,,,,,,,,,325,2023-11-09_10h53.21.779,leap3,2022.2.5,60.09037840812557,
,,,,,,,,,,,,,,,,,,,,8,0,8,0,6,0,6,0,,,,,,pressing,w,g,lower,,,,,,,1,w,HiDemTar,None,g,1,0.566247861366719,None,,,,,,,,,,,,,,,,,,,,325,2023-11-09_10h53.21.779,leap3,2022.2.5,60.09037840812557,
,,,,,,,,,,,,,,,,,,,,8,0,8,0,7,0,7,0,,,,,,pigned,nw,h,lower,,,,,,,1,nw,HiDemTar,None,h,1,0.6308432116638869,None,,,,,,,,,,,,,,,,,,,,325,2023-11-09_10h53.21.779,leap3,2022.2.5,60.09037840812557,
,,,,,,,,,,,,,,,,,,,,8,0,8,0,8,0,8,0,,,,,,havel,nw,h,lower,,,,,,,1,nw,HiDemTar,None,h,1,0.6682552262209356,None,,,,,,,,,,,,,,,,,,,,325,2023-11-09_10h53.21.779,leap3,2022.2.5,60.09037840812557,
,,,,,,,,,,,,,,,,,,,,8,0,8,0,9,0,9,0,,,,,,legalize,w,g,lower,,,,,,,1,w,HiDemTar,None,g,1,0.6562036867253482,None,,,,,,,,,,,,,,,,,,,,325,2023-11-09_10h53.21.779,leap3,2022.2.5,60.09037840812557,
,,,,,,,,,,,,,,,,,,,,8,0,8,0,10,0,10,0,,,,,,orange,w,g,lower,,,,,,,1,w,HiDemTar,None,g,1,0.5482281581498682,None,,,,,,,,,,,,,,,,,,,,325,2023-11-09_10h53.21.779,leap3,2022.2.5,60.09037840812557,
,,,,,,,,,,,,,,,,,,,,8,0,8,0,11,0,11,0,,,,,,expensive,w,g,lower,,,,,,,1,w,HiDemTar,None,g,1,0.5250447865109891,None,,,,,,,,,,,,,,,,,,,,325,2023-11-09_10h53.21.779,leap3,2022.2.5,60.09037840812557,
,,,,,,,,,,,,,,,,,,,,8,0,8,0,12,0,12,0,,,,,,addition,w,g,lower,,,,,,,1,w,HiDemTar,None,g,1,0.526926908409223,None,,,,,,,,,,,,,,,,,,,,325,2023-11-09_10h53.21.779,leap3,2022.2.5,60.09037840812557,
,,,,,,,,,,,,,,,,,,,,8,0,8,0,13,0,13,0,,,,,,protest,w,g,lower,,,,,,,1,w,HiDemTar,None,g,1,0.5833028322085738,None,,,,,,,,,,,,,,,,,,,,325,2023-11-09_10h53.21.779,leap3,2022.2.5,60.09037840812557,
,,,,,,,,,,,,,,,,,,,,8,0,8,0,14,0,14,0,,,,,,fillings,w,g,lower,,,,,,,1,w,HiDemTar,None,h,0,0.566868944792077,None,,,,,,,,,,,,,,,,,,,,325,2023-11-09_10h53.21.779,leap3,2022.2.5,60.09037840812557,
,,,,,,,,,,,,,,,,,,,,8,0,8,0,15,0,15,0,,,,,,forgive,w,g,lower,,,,,,,1,w,HiDemTar,None,g,1,0.5835872197058052,None,,,,,,,,,,,,,,,,,,,,325,2023-11-09_10h53.21.779,leap3,2022.2.5,60.09037840812557,
,,,,,,,,,,,,,,,,,,,,8,0,8,0,16,0,16,0,,,,,,scrobby,nw,h,lower,,,,,,,1,nw,HiDemTar,None,h,1,0.7828180158976465,None,,,,,,,,,,,,,,,,,,,,325,2023-11-09_10h53.21.779,leap3,2022.2.5,60.09037840812557,
,,,,,,,,,,,,,,,,,,,,8,0,8,0,17,0,17,0,,,,,,envelop,w,g,lower,,,,,,,1,w,HiDemTar,None,g,1,0.5822205706499517,None,,,,,,,,,,,,,,,,,,,,325,2023-11-09_10h53.21.779,leap3,2022.2.5,60.09037840812557,
,,,,,,,,,,,,,,,,,,,,8,0,8,0,18,0,18,0,,,,,,fraft,nw,h,lower,,,,,,,1,nw,HiDemTar,None,h,1,0.7975452474784106,None,,,,,,,,,,,,,,,,,,,,325,2023-11-09_10h53.21.779,leap3,2022.2.5,60.09037840812557,
,,,,,,,,,,,,,,,,,,,,8,0,8,0,19,0,19,0,,,,,,inforl,nw,h,lower,,,,,,,1,nw,HiDemTar,None,h,1,1.0122852579224855,None,,,,,,,,,,,,,,,,,,,,325,2023-11-09_10h53.21.779,leap3,2022.2.5,60.09037840812557,
,,,,,,,,,,,,,,,,,,,,8,0,8,0,20,0,20,0,,,,,,omission,w,g,lower,,,,,,,1,w,HiDemTar,None,g,1,0.8824112326838076,None,,,,,,,,,,,,,,,,,,,,325,2023-11-09_10h53.21.779,leap3,2022.2.5,60.09037840812557,
,,,,,,,,,,,,,,,,,,,,8,0,8,0,21,0,21,0,,,,,,antwers,nw,h,lower,,,,,,,1,nw,HiDemTar,None,h,1,0.7896803945768625,None,,,,,,,,,,,,,,,,,,,,325,2023-11-09_10h53.21.779,leap3,2022.2.5,60.09037840812557,
,,,,,,,,,,,,,,,,,,,,8,0,8,0,22,0,22,0,,,,,,describe,w,g,lower,,,,,,,1,w,HiDemTar,None,g,1,0.6994703088421375,None,,,,,,,,,,,,,,,,,,,,325,2023-11-09_10h53.21.779,leap3,2022.2.5,60.09037840812557,
,,,,,,,,,,,,,,,,,,,,8,0,8,0,23,0,23,0,,,,,,pegend,nw,h,lower,,,,,,,1,nw,HiDemTar,None,h,1,0.7021036241203547,None,,,,,,,,,,,,,,,,,,,,325,2023-11-09_10h53.21.779,leap3,2022.2.5,60.09037840812557,
,,,,,,,,,,,,,,,,,,,,8,0,8,0,24,0,24,0,,,,,,brudent,nw,h,lower,,,,,,,1,nw,HiDemTar,None,h,1,0.6003485331311822,None,,,,,,,,,,,,,,,,,,,,325,2023-11-09_10h53.21.779,leap3,2022.2.5,60.09037840812557,
,,,,,,,,,,,,,,,,,,,,8,0,8,0,25,0,25,0,,,,,,venturous,w,g,lower,,,,,,,1,w,HiDemTar,None,g,1,0.5514759356155992,None,,,,,,,,,,,,,,,,,,,,325,2023-11-09_10h53.21.779,leap3,2022.2.5,60.09037840812557,
,,,,,,,,,,,,,,,,,,,,8,0,8,0,26,0,26,0,,,,,,flooted,nw,h,lower,,,,,,,1,nw,HiDemTar,None,h,1,0.9203115727286786,None,,,,,,,,,,,,,,,,,,,,325,2023-11-09_10h53.21.779,leap3,2022.2.5,60.09037840812557,
,,,,,,,,,,,,,,,,,,,,8,0,8,0,27,0,27,0,,,,,,smabled,nw,h,lower,,,,,,,1,nw,HiDemTar,None,h,1,0.617586915846914,None,,,,,,,,,,,,,,,,,,,,325,2023-11-09_10h53.21.779,leap3,2022.2.5,60.09037840812557,
,,,,,,,,,,,,,,,,,,,,8,0,8,0,28,0,28,0,,,,,,gorilla,target,q,lower,,,,,,,1,target,HiDemTar,None,g,0,0.5915182861499488,q,q,0.33200628682971,,,,,,,,,,,,,,,,,,325,2023-11-09_10h53.21.779,leap3,2022.2.5,60.09037840812557,
,,,,,,,,,,,,,,,,,,,,8,0,8,0,29,0,29,0,,,,,,huests,nw,h,lower,,,,,,,1,aftertar1,HiDemTar,None,h,1,0.6702389859128743,None,,,,,,,,,,,,,,,,,,,,325,2023-11-09_10h53.21.779,leap3,2022.2.5,60.09037840812557,
,,,,,,,,,,,,,,,,,,,,8,0,8,0,,,,,,,,,,,,,,,,,,,,,,,,,,,,,,,,,,,,,,,,,,,,,,,325,2023-11-09_10h53.21.779,leap3,2022.2.5,60.09037840812557,
,,,,,,,,,,,,,,,,,,,,9,0,9,0,0,0,0,0,,,,,,summon,w,g,upper,,,,,,,3,w,LoDemNoTar,None,g,1,0.6655255700461566,None,,,,,,,,,,,,,,,,,,,,325,2023-11-09_10h53.21.779,leap3,2022.2.5,60.09037840812557,
,,,,,,,,,,,,,,,,,,,,9,0,9,0,1,0,1,0,,,,,,presence,w,g,upper,,,,,,,3,w,LoDemNoTar,None,g,1,0.47791062761098146,None,,,,,,,,,,,,,,,,,,,,325,2023-11-09_10h53.21.779,leap3,2022.2.5,60.09037840812557,
,,,,,,,,,,,,,,,,,,,,9,0,9,0,2,0,2,0,,,,,,gepealed,nw,h,upper,,,,,,,3,nw,LoDemNoTar,None,h,1,0.48933909670449793,None,,,,,,,,,,,,,,,,,,,,325,2023-11-09_10h53.21.779,leap3,2022.2.5,60.09037840812557,
,,,,,,,,,,,,,,,,,,,,9,0,9,0,3,0,3,0,,,,,,affluent,w,g,upper,,,,,,,3,w,LoDemNoTar,None,h,0,0.37967313453555107,None,,,,,,,,,,,,,,,,,,,,325,2023-11-09_10h53.21.779,leap3,2022.2.5,60.09037840812557,
,,,,,,,,,,,,,,,,,,,,9,0,9,0,4,0,4,0,,,,,,entertain,w,g,upper,,,,,,,3,w,LoDemNoTar,None,g,1,0.5953414598479867,None,,,,,,,,,,,,,,,,,,,,325,2023-11-09_10h53.21.779,leap3,2022.2.5,60.09037840812557,
,,,,,,,,,,,,,,,,,,,,9,0,9,0,5,0,5,0,,,,,,movie,w,g,upper,,,,,,,3,w,LoDemNoTar,None,g,1,0.4261779331136495,None,,,,,,,,,,,,,,,,,,,,325,2023-11-09_10h53.21.779,leap3,2022.2.5,60.09037840812557,
,,,,,,,,,,,,,,,,,,,,9,0,9,0,6,0,6,0,,,,,,amaze,w,g,upper,,,,,,,3,w,LoDemNoTar,None,g,1,0.7515142073389143,None,,,,,,,,,,,,,,,,,,,,325,2023-11-09_10h53.21.779,leap3,2022.2.5,60.09037840812557,
,,,,,,,,,,,,,,,,,,,,9,0,9,0,7,0,7,0,,,,,,rocket,w,g,upper,,,,,,,3,w,LoDemNoTar,None,g,1,0.5433422557543963,None,,,,,,,,,,,,,,,,,,,,325,2023-11-09_10h53.21.779,leap3,2022.2.5,60.09037840812557,
,,,,,,,,,,,,,,,,,,,,9,0,9,0,8,0,8,0,,,,,,incidonts,nw,h,upper,,,,,,,3,nw,LoDemNoTar,None,h,1,0.5440229317173362,None,,,,,,,,,,,,,,,,,,,,325,2023-11-09_10h53.21.779,leap3,2022.2.5,60.09037840812557,
,,,,,,,,,,,,,,,,,,,,9,0,9,0,9,0,9,0,,,,,,moyeur,nw,h,upper,,,,,,,3,nw,LoDemNoTar,None,h,1,0.4890129945706576,None,,,,,,,,,,,,,,,,,,,,325,2023-11-09_10h53.21.779,leap3,2022.2.5,60.09037840812557,
,,,,,,,,,,,,,,,,,,,,9,0,9,0,10,0,10,0,,,,,,mustled,nw,h,upper,,,,,,,3,nw,LoDemNoTar,None,h,1,0.7314226801972836,None,,,,,,,,,,,,,,,,,,,,325,2023-11-09_10h53.21.779,leap3,2022.2.5,60.09037840812557,
,,,,,,,,,,,,,,,,,,,,9,0,9,0,11,0,11,0,,,,,,brank,nw,h,upper,,,,,,,3,nw,LoDemNoTar,None,h,1,0.6527542888652533,None,,,,,,,,,,,,,,,,,,,,325,2023-11-09_10h53.21.779,leap3,2022.2.5,60.09037840812557,
,,,,,,,,,,,,,,,,,,,,9,0,9,0,12,0,12,0,,,,,,atch,nw,h,upper,,,,,,,3,nw,LoDemNoTar,None,h,1,0.5693989670835435,None,,,,,,,,,,,,,,,,,,,,325,2023-11-09_10h53.21.779,leap3,2022.2.5,60.09037840812557,
,,,,,,,,,,,,,,,,,,,,9,0,9,0,13,0,13,0,,,,,,ordinary,w,g,upper,,,,,,,3,w,LoDemNoTar,None,g,1,0.4968420919030905,None,,,,,,,,,,,,,,,,,,,,325,2023-11-09_10h53.21.779,leap3,2022.2.5,60.09037840812557,
,,,,,,,,,,,,,,,,,,,,9,0,9,0,14,0,14,0,,,,,,thrapping,nw,h,upper,,,,,,,3,nw,LoDemNoTar,None,h,1,0.6353867896832526,None,,,,,,,,,,,,,,,,,,,,325,2023-11-09_10h53.21.779,leap3,2022.2.5,60.09037840812557,
,,,,,,,,,,,,,,,,,,,,9,0,9,0,15,0,15,0,,,,,,gallon,w,g,upper,,,,,,,3,w,LoDemNoTar,None,h,0,0.4408157761208713,None,,,,,,,,,,,,,,,,,,,,325,2023-11-09_10h53.21.779,leap3,2022.2.5,60.09037840812557,
,,,,,,,,,,,,,,,,,,,,9,0,9,0,16,0,16,0,,,,,,offonents,nw,h,upper,,,,,,,3,nw,LoDemNoTar,None,h,1,0.6845609901938587,None,,,,,,,,,,,,,,,,,,,,325,2023-11-09_10h53.21.779,leap3,2022.2.5,60.09037840812557,
,,,,,,,,,,,,,,,,,,,,9,0,9,0,17,0,17,0,,,,,,antonym,w,g,upper,,,,,,,3,w,LoDemNoTar,None,h,0,0.6959027193952352,None,,,,,,,,,,,,,,,,,,,,325,2023-11-09_10h53.21.779,leap3,2022.2.5,60.09037840812557,
,,,,,,,,,,,,,,,,,,,,9,0,9,0,18,0,18,0,,,,,,typical,w,g,upper,,,,,,,3,w,LoDemNoTar,None,g,1,0.6426053973846138,None,,,,,,,,,,,,,,,,,,,,325,2023-11-09_10h53.21.779,leap3,2022.2.5,60.09037840812557,
,,,,,,,,,,,,,,,,,,,,9,0,9,0,19,0,19,0,,,,,,nogwhell,nw,h,upper,,,,,,,3,nw,LoDemNoTar,None,h,1,0.5593431058805436,None,,,,,,,,,,,,,,,,,,,,325,2023-11-09_10h53.21.779,leap3,2022.2.5,60.09037840812557,
,,,,,,,,,,,,,,,,,,,,9,0,9,0,20,0,20,0,,,,,,chining,nw,h,upper,,,,,,,3,nw,LoDemNoTar,None,h,1,0.6553876041434705,None,,,,,,,,,,,,,,,,,,,,325,2023-11-09_10h53.21.779,leap3,2022.2.5,60.09037840812557,
,,,,,,,,,,,,,,,,,,,,9,0,9,0,21,0,21,0,,,,,,metrol,nw,h,upper,,,,,,,3,nw,LoDemNoTar,None,h,1,0.49932377808727324,None,,,,,,,,,,,,,,,,,,,,325,2023-11-09_10h53.21.779,leap3,2022.2.5,60.09037840812557,
,,,,,,,,,,,,,,,,,,,,9,0,9,0,22,0,22,0,,,,,,committed,w,g,upper,,,,,,,3,w,LoDemNoTar,None,g,1,0.6858826137613505,None,,,,,,,,,,,,,,,,,,,,325,2023-11-09_10h53.21.779,leap3,2022.2.5,60.09037840812557,
,,,,,,,,,,,,,,,,,,,,9,0,9,0,23,0,23,0,,,,,,tablet,w,g,upper,,,,,,,3,w,LoDemNoTar,None,g,1,0.6729242787696421,None,,,,,,,,,,,,,,,,,,,,325,2023-11-09_10h53.21.779,leap3,2022.2.5,60.09037840812557,
,,,,,,,,,,,,,,,,,,,,9,0,9,0,24,0,24,0,,,,,,scrib,nw,h,upper,,,,,,,3,nw,LoDemNoTar,None,h,1,0.48387448745779693,None,,,,,,,,,,,,,,,,,,,,325,2023-11-09_10h53.21.779,leap3,2022.2.5,60.09037840812557,
,,,,,,,,,,,,,,,,,,,,9,0,9,0,25,0,25,0,,,,,,crudios,nw,h,upper,,,,,,,3,nw,LoDemNoTar,None,h,1,0.48724343604408205,None,,,,,,,,,,,,,,,,,,,,325,2023-11-09_10h53.21.779,leap3,2022.2.5,60.09037840812557,
,,,,,,,,,,,,,,,,,,,,9,0,9,0,26,0,26,0,,,,,,obtuse,w,g,upper,,,,,,,3,w,LoDemNoTar,None,g,1,0.63300641044043,None,,,,,,,,,,,,,,,,,,,,325,2023-11-09_10h53.21.779,leap3,2022.2.5,60.09037840812557,
,,,,,,,,,,,,,,,,,,,,9,0,9,0,27,0,27,0,,,,,,hatred,w,g,upper,,,,,,,3,w,LoDemNoTar,None,h,0,0.5812548450194299,None,,,,,,,,,,,,,,,,,,,,325,2023-11-09_10h53.21.779,leap3,2022.2.5,60.09037840812557,
,,,,,,,,,,,,,,,,,,,,9,0,9,0,28,0,28,0,,,,,,vergas,nw,h,upper,,,,,,,3,nw,LoDemNoTar,None,h,1,0.7336997662205249,None,,,,,,,,,,,,,,,,,,,,325,2023-11-09_10h53.21.779,leap3,2022.2.5,60.09037840812557,
,,,,,,,,,,,,,,,,,,,,9,0,9,0,29,0,29,0,,,,,,halms,nw,h,upper,,,,,,,3,nw,LoDemNoTar,None,h,1,0.5270808550994843,None,,,,,,,,,,,,,,,,,,,,325,2023-11-09_10h53.21.779,leap3,2022.2.5,60.09037840812557,
,,,,,,,,,,,,,,,,,,,,9,0,9,0,,,,,,,,,,,,,,,,,,,,,,,,,,,,,,,,,,,,,,,,,,,,,,,325,2023-11-09_10h53.21.779,leap3,2022.2.5,60.09037840812557,
,,,,,,,,,,,,,,,,,,,,10,0,10,0,0,0,0,0,,,,,,defeat,w,g,lower,,,,,,,1,w,HiDemTar,None,g,1,0.5373115201946348,None,,,,,,,,,,,,,,,,,,,,325,2023-11-09_10h53.21.779,leap3,2022.2.5,60.09037840812557,
,,,,,,,,,,,,,,,,,,,,10,0,10,0,1,0,1,0,,,,,,irfirm,nw,h,lower,,,,,,,1,nw,HiDemTar,None,h,1,0.6738754373509437,None,,,,,,,,,,,,,,,,,,,,325,2023-11-09_10h53.21.779,leap3,2022.2.5,60.09037840812557,
,,,,,,,,,,,,,,,,,,,,10,0,10,0,2,0,2,0,,,,,,iguana,w,g,lower,,,,,,,1,w,HiDemTar,None,q,0,0.8762434348464012,None,q,,,,,,,,,,,,,,,,,,,325,2023-11-09_10h53.21.779,leap3,2022.2.5,60.09037840812557,
,,,,,,,,,,,,,,,,,,,,10,0,10,0,3,0,3,0,,,,,,blocking,w,g,lower,,,,,,,1,w,HiDemTar,None,g,1,0.6073459875769913,None,,,,,,,,,,,,,,,,,,,,325,2023-11-09_10h53.21.779,leap3,2022.2.5,60.09037840812557,
,,,,,,,,,,,,,,,,,,,,10,0,10,0,4,0,4,0,,,,,,sengry,nw,h,lower,,,,,,,1,nw,HiDemTar,None,h,1,0.7491139639168978,None,,,,,,,,,,,,,,,,,,,,325,2023-11-09_10h53.21.779,leap3,2022.2.5,60.09037840812557,
,,,,,,,,,,,,,,,,,,,,10,0,10,0,5,0,5,0,,,,,,grefab,nw,h,lower,,,,,,,1,nw,HiDemTar,None,h,1,0.7017742116004229,None,,,,,,,,,,,,,,,,,,,,325,2023-11-09_10h53.21.779,leap3,2022.2.5,60.09037840812557,
,,,,,,,,,,,,,,,,,,,,10,0,10,0,6,0,6,0,,,,,,resume,w,g,lower,,,,,,,1,w,HiDemTar,None,g,1,0.5604892636183649,None,,,,,,,,,,,,,,,,,,,,325,2023-11-09_10h53.21.779,leap3,2022.2.5,60.09037840812557,
,,,,,,,,,,,,,,,,,,,,10,0,10,0,7,0,7,0,,,,,,clume,nw,h,lower,,,,,,,1,nw,HiDemTar,None,h,1,0.5604319886770099,None,,,,,,,,,,,,,,,,,,,,325,2023-11-09_10h53.21.779,leap3,2022.2.5,60.09037840812557,
,,,,,,,,,,,,,,,,,,,,10,0,10,0,8,0,8,0,,,,,,nameplate,w,g,lower,,,,,,,1,w,HiDemTar,None,h,0,0.5045159184373915,None,,,,,,,,,,,,,,,,,,,,325,2023-11-09_10h53.21.779,leap3,2022.2.5,60.09037840812557,
,,,,,,,,,,,,,,,,,,,,10,0,10,0,9,0,9,0,,,,,,forfeit,w,g,lower,,,,,,,1,w,HiDemTar,None,g,1,0.5702153807505965,None,,,,,,,,,,,,,,,,,,,,325,2023-11-09_10h53.21.779,leap3,2022.2.5,60.09037840812557,
,,,,,,,,,,,,,,,,,,,,10,0,10,0,10,0,10,0,,,,,,detrabe,nw,h,lower,,,,,,,1,nw,HiDemTar,None,h,1,0.5455484932754189,None,,,,,,,,,,,,,,,,,,,,325,2023-11-09_10h53.21.779,leap3,2022.2.5,60.09037840812557,
,,,,,,,,,,,,,,,,,,,,10,0,10,0,11,0,11,0,,,,,,fuestion,nw,h,lower,,,,,,,1,nw,HiDemTar,None,h,1,0.6653140175621957,None,,,,,,,,,,,,,,,,,,,,325,2023-11-09_10h53.21.779,leap3,2022.2.5,60.09037840812557,
,,,,,,,,,,,,,,,,,,,,10,0,10,0,12,0,12,0,,,,,,geadpan,nw,h,lower,,,,,,,1,nw,HiDemTar,None,h,1,0.501336672110483,None,,,,,,,,,,,,,,,,,,,,325,2023-11-09_10h53.21.779,leap3,2022.2.5,60.09037840812557,
,,,,,,,,,,,,,,,,,,,,10,0,10,0,13,0,13,0,,,,,,explosion,w,g,lower,,,,,,,1,w,HiDemTar,None,g,1,0.4718676421325654,None,,,,,,,,,,,,,,,,,,,,325,2023-11-09_10h53.21.779,leap3,2022.2.5,60.09037840812557,
,,,,,,,,,,,,,,,,,,,,10,0,10,0,14,0,14,0,,,,,,nopping,nw,h,lower,,,,,,,1,nw,HiDemTar,None,h,1,0.5472955394070596,None,,,,,,,,,,,,,,,,,,,,325,2023-11-09_10h53.21.779,leap3,2022.2.5,60.09037840812557,
,,,,,,,,,,,,,,,,,,,,10,0,10,0,15,0,15,0,,,,,,cobalt,w,g,lower,,,,,,,1,w,HiDemTar,None,h,0,0.4359600010793656,None,,,,,,,,,,,,,,,,,,,,325,2023-11-09_10h53.21.779,leap3,2022.2.5,60.09037840812557,
,,,,,,,,,,,,,,,,,,,,10,0,10,0,16,0,16,0,,,,,,strenuous,w,g,lower,,,,,,,1,w,HiDemTar,None,h,0,0.6973931877873838,None,,,,,,,,,,,,,,,,,,,,325,2023-11-09_10h53.21.779,leap3,2022.2.5,60.09037840812557,
,,,,,,,,,,,,,,,,,,,,10,0,10,0,17,0,17,0,,,,,,hackal,nw,h,lower,,,,,,,1,nw,HiDemTar,None,h,1,0.6599947472568601,None,,,,,,,,,,,,,,,,,,,,325,2023-11-09_10h53.21.779,leap3,2022.2.5,60.09037840812557,
,,,,,,,,,,,,,,,,,,,,10,0,10,0,18,0,18,0,,,,,,sampling,w,g,lower,,,,,,,1,w,HiDemTar,None,g,1,0.6560987383127213,None,,,,,,,,,,,,,,,,,,,,325,2023-11-09_10h53.21.779,leap3,2022.2.5,60.09037840812557,
,,,,,,,,,,,,,,,,,,,,10,0,10,0,19,0,19,0,,,,,,giraffe,target,q,lower,,,,,,,1,target,HiDemTar,None,g,0,0.54759316961281,q,q,0.21896442351862788,,,,,,,,,,,,,,,,,,325,2023-11-09_10h53.21.779,leap3,2022.2.5,60.09037840812557,
,,,,,,,,,,,,,,,,,,,,10,0,10,0,20,0,20,0,,,,,,chraps,nw,h,lower,,,,,,,1,aftertar1,HiDemTar,None,h,1,0.5965399262495339,None,,,,,,,,,,,,,,,,,,,,325,2023-11-09_10h53.21.779,leap3,2022.2.5,60.09037840812557,
,,,,,,,,,,,,,,,,,,,,10,0,10,0,21,0,21,0,,,,,,tycoon,w,g,lower,,,,,,,1,aftertar2,HiDemTar,None,g,1,0.6425239548552781,None,,,,,,,,,,,,,,,,,,,,325,2023-11-09_10h53.21.779,leap3,2022.2.5,60.09037840812557,
,,,,,,,,,,,,,,,,,,,,10,0,10,0,22,0,22,0,,,,,,primal,w,g,lower,,,,,,,1,aftertar3,HiDemTar,None,g,1,0.47924946644343436,None,,,,,,,,,,,,,,,,,,,,325,2023-11-09_10h53.21.779,leap3,2022.2.5,60.09037840812557,
,,,,,,,,,,,,,,,,,,,,10,0,10,0,23,0,23,0,,,,,,nomma,nw,h,lower,,,,,,,1,w,HiDemTar,None,h,1,0.5306510929949582,None,,,,,,,,,,,,,,,,,,,,325,2023-11-09_10h53.21.779,leap3,2022.2.5,60.09037840812557,
,,,,,,,,,,,,,,,,,,,,10,0,10,0,24,0,24,0,,,,,,capobly,nw,h,lower,,,,,,,1,nw,HiDemTar,None,h,1,0.6440435571130365,None,,,,,,,,,,,,,,,,,,,,325,2023-11-09_10h53.21.779,leap3,2022.2.5,60.09037840812557,
,,,,,,,,,,,,,,,,,,,,10,0,10,0,25,0,25,0,,,,,,planofoad,nw,h,lower,,,,,,,1,nw,HiDemTar,None,h,1,0.7287105706054717,None,,,,,,,,,,,,,,,,,,,,325,2023-11-09_10h53.21.779,leap3,2022.2.5,60.09037840812557,
,,,,,,,,,,,,,,,,,,,,10,0,10,0,26,0,26,0,,,,,,punctual,w,g,lower,,,,,,,1,nw,HiDemTar,None,h,0,0.47404275950975716,q,q,0.13327805162407458,,,,,,,,,,,,,,,,,,325,2023-11-09_10h53.21.779,leap3,2022.2.5,60.09037840812557,
,,,,,,,,,,,,,,,,,,,,10,0,10,0,27,0,27,0,,,,,,removable,w,g,lower,,,,,,,1,w,HiDemTar,None,g,1,0.7173638751264662,None,,,,,,,,,,,,,,,,,,,,325,2023-11-09_10h53.21.779,leap3,2022.2.5,60.09037840812557,
,,,,,,,,,,,,,,,,,,,,10,0,10,0,28,0,28,0,,,,,,thacked,nw,h,lower,,,,,,,1,w,HiDemTar,None,h,1,0.8073922046460211,None,,,,,,,,,,,,,,,,,,,,325,2023-11-09_10h53.21.779,leap3,2022.2.5,60.09037840812557,
,,,,,,,,,,,,,,,,,,,,10,0,10,0,29,0,29,0,,,,,,gund,nw,h,lower,,,,,,,1,nw,HiDemTar,None,h,1,0.5573752375785261,None,,,,,,,,,,,,,,,,,,,,325,2023-11-09_10h53.21.779,leap3,2022.2.5,60.09037840812557,
,,,,,,,,,,,,,,,,,,,,10,0,10,0,,,,,,,,,,,,,,,,,,,,,,,,,,,,,,,,,,,,,,,,,,,,,,,325,2023-11-09_10h53.21.779,leap3,2022.2.5,60.09037840812557,
,,,,,,,,,,,,,,,,,,,,11,0,11,0,0,0,0,0,,,,,,regards,w,g,upper,,,,,,,3,w,LoDemNoTar,None,g,1,0.4929844872094691,None,,,,,,,,,,,,,,,,,,,,325,2023-11-09_10h53.21.779,leap3,2022.2.5,60.09037840812557,
,,,,,,,,,,,,,,,,,,,,11,0,11,0,1,0,1,0,,,,,,regiment,w,g,upper,,,,,,,3,w,LoDemNoTar,None,g,1,0.4956595168914646,None,,,,,,,,,,,,,,,,,,,,325,2023-11-09_10h53.21.779,leap3,2022.2.5,60.09037840812557,
,,,,,,,,,,,,,,,,,,,,11,0,11,0,2,0,2,0,,,,,,tibs,nw,h,upper,,,,,,,3,nw,LoDemNoTar,None,h,1,0.37835151073522866,None,,,,,,,,,,,,,,,,,,,,325,2023-11-09_10h53.21.779,leap3,2022.2.5,60.09037840812557,
,,,,,,,,,,,,,,,,,,,,11,0,11,0,3,0,3,0,,,,,,glapula,nw,h,upper,,,,,,,3,nw,LoDemNoTar,None,h,1,0.8577532840427011,None,,,,,,,,,,,,,,,,,,,,325,2023-11-09_10h53.21.779,leap3,2022.2.5,60.09037840812557,
,,,,,,,,,,,,,,,,,,,,11,0,11,0,4,0,4,0,,,,,,dileting,nw,h,upper,,,,,,,3,nw,LoDemNoTar,None,h,1,0.6697208643890917,None,,,,,,,,,,,,,,,,,,,,325,2023-11-09_10h53.21.779,leap3,2022.2.5,60.09037840812557,
,,,,,,,,,,,,,,,,,,,,11,0,11,0,5,0,5,0,,,,,,tyena,nw,h,upper,,,,,,,3,nw,LoDemNoTar,None,h,1,0.8170921674463898,None,,,,,,,,,,,,,,,,,,,,325,2023-11-09_10h53.21.779,leap3,2022.2.5,60.09037840812557,
,,,,,,,,,,,,,,,,,,,,11,0,11,0,6,0,6,0,,,,,,graveyard,w,g,upper,,,,,,,3,w,LoDemNoTar,None,g,1,0.5343103881459683,None,,,,,,,,,,,,,,,,,,,,325,2023-11-09_10h53.21.779,leap3,2022.2.5,60.09037840812557,
,,,,,,,,,,,,,,,,,,,,11,0,11,0,7,0,7,0,,,,,,oginous,nw,h,upper,,,,,,,3,nw,LoDemNoTar,None,h,1,0.7427902326453477,None,,,,,,,,,,,,,,,,,,,,325,2023-11-09_10h53.21.779,leap3,2022.2.5,60.09037840812557,
,,,,,,,,,,,,,,,,,,,,11,0,11,0,8,0,8,0,,,,,,gounts,nw,h,upper,,,,,,,3,nw,LoDemNoTar,None,h,1,0.567534391535446,None,,,,,,,,,,,,,,,,,,,,325,2023-11-09_10h53.21.779,leap3,2022.2.5,60.09037840812557,
,,,,,,,,,,,,,,,,,,,,11,0,11,0,9,0,9,0,,,,,,atble,nw,h,upper,,,,,,,3,nw,LoDemNoTar,None,h,1,0.5834809467196465,None,,,,,,,,,,,,,,,,,,,,325,2023-11-09_10h53.21.779,leap3,2022.2.5,60.09037840812557,
,,,,,,,,,,,,,,,,,,,,11,0,11,0,10,0,10,0,,,,,,amplifier,w,g,upper,,,,,,,3,w,LoDemNoTar,None,g,1,0.5907065069768578,None,,,,,,,,,,,,,,,,,,,,325,2023-11-09_10h53.21.779,leap3,2022.2.5,60.09037840812557,
,,,,,,,,,,,,,,,,,,,,11,0,11,0,11,0,11,0,,,,,,ausht,nw,h,upper,,,,,,,3,nw,LoDemNoTar,None,h,1,0.4774193223565817,None,,,,,,,,,,,,,,,,,,,,325,2023-11-09_10h53.21.779,leap3,2022.2.5,60.09037840812557,
,,,,,,,,,,,,,,,,,,,,11,0,11,0,12,0,12,0,,,,,,ghists,nw,h,upper,,,,,,,3,nw,LoDemNoTar,None,h,1,0.4566434775479138,None,,,,,,,,,,,,,,,,,,,,325,2023-11-09_10h53.21.779,leap3,2022.2.5,60.09037840812557,
,,,,,,,,,,,,,,,,,,,,11,0,11,0,13,0,13,0,,,,,,ignore,w,g,upper,,,,,,,3,w,LoDemNoTar,None,g,1,0.6688100963365287,None,,,,,,,,,,,,,,,,,,,,325,2023-11-09_10h53.21.779,leap3,2022.2.5,60.09037840812557,
,,,,,,,,,,,,,,,,,,,,11,0,11,0,14,0,14,0,,,,,,parlayid,nw,h,upper,,,,,,,3,nw,LoDemNoTar,None,h,1,0.5521552872378379,None,,,,,,,,,,,,,,,,,,,,325,2023-11-09_10h53.21.779,leap3,2022.2.5,60.09037840812557,
,,,,,,,,,,,,,,,,,,,,11,0,11,0,15,0,15,0,,,,,,serving,w,g,upper,,,,,,,3,w,LoDemNoTar,None,h,0,0.4882435924373567,None,,,,,,,,,,,,,,,,,,,,325,2023-11-09_10h53.21.779,leap3,2022.2.5,60.09037840812557,
,,,,,,,,,,,,,,,,,,,,11,0,11,0,16,0,16,0,,,,,,infancy,w,g,upper,,,,,,,3,w,LoDemNoTar,None,g,1,0.6096492279320955,None,,,,,,,,,,,,,,,,,,,,325,2023-11-09_10h53.21.779,leap3,2022.2.5,60.09037840812557,
,,,,,,,,,,,,,,,,,,,,11,0,11,0,17,0,17,0,,,,,,classify,w,g,upper,,,,,,,3,w,LoDemNoTar,None,g,1,0.6877461958210915,None,,,,,,,,,,,,,,,,,,,,325,2023-11-09_10h53.21.779,leap3,2022.2.5,60.09037840812557,
,,,,,,,,,,,,,,,,,,,,11,0,11,0,18,0,18,0,,,,,,bulmed,nw,h,upper,,,,,,,3,nw,LoDemNoTar,None,h,1,0.7624043598771095,None,,,,,,,,,,,,,,,,,,,,325,2023-11-09_10h53.21.779,leap3,2022.2.5,60.09037840812557,
,,,,,,,,,,,,,,,,,,,,11,0,11,0,19,0,19,0,,,,,,handle,w,g,upper,,,,,,,3,w,LoDemNoTar,None,g,1,0.5063980403356254,None,,,,,,,,,,,,,,,,,,,,325,2023-11-09_10h53.21.779,leap3,2022.2.5,60.09037840812557,
,,,,,,,,,,,,,,,,,,,,11,0,11,0,20,0,20,0,,,,,,glaims,nw,h,upper,,,,,,,3,nw,LoDemNoTar,None,h,1,0.5645531238988042,None,,,,,,,,,,,,,,,,,,,,325,2023-11-09_10h53.21.779,leap3,2022.2.5,60.09037840812557,
,,,,,,,,,,,,,,,,,,,,11,0,11,0,21,0,21,0,,,,,,larger,w,g,upper,,,,,,,3,w,LoDemNoTar,None,g,1,0.5965329736936837,None,,,,,,,,,,,,,,,,,,,,325,2023-11-09_10h53.21.779,leap3,2022.2.5,60.09037840812557,
,,,,,,,,,,,,,,,,,,,,11,0,11,0,22,0,22,0,,,,,,gumdrep,nw,h,upper,,,,,,,3,nw,LoDemNoTar,None,h,1,0.7232476165518165,None,,,,,,,,,,,,,,,,,,,,325,2023-11-09_10h53.21.779,leap3,2022.2.5,60.09037840812557,
,,,,,,,,,,,,,,,,,,,,11,0,11,0,23,0,23,0,,,,,,halents,nw,h,upper,,,,,,,3,nw,LoDemNoTar,None,g,0,0.6125970580615103,None,,,,,,,,,,,,,,,,,,,,325,2023-11-09_10h53.21.779,leap3,2022.2.5,60.09037840812557,
,,,,,,,,,,,,,,,,,,,,11,0,11,0,24,0,24,0,,,,,,combat,w,g,upper,,,,,,,3,w,LoDemNoTar,None,g,1,0.7546285644639283,None,,,,,,,,,,,,,,,,,,,,325,2023-11-09_10h53.21.779,leap3,2022.2.5,60.09037840812557,
,,,,,,,,,,,,,,,,,,,,11,0,11,0,25,0,25,0,,,,,,poyride,nw,h,upper,,,,,,,3,nw,LoDemNoTar,None,h,1,0.6816611648537219,None,,,,,,,,,,,,,,,,,,,,325,2023-11-09_10h53.21.779,leap3,2022.2.5,60.09037840812557,
,,,,,,,,,,,,,,,,,,,,11,0,11,0,26,0,26,0,,,,,,region,w,g,upper,,,,,,,3,w,LoDemNoTar,None,g,1,0.5410462988074869,None,,,,,,,,,,,,,,,,,,,,325,2023-11-09_10h53.21.779,leap3,2022.2.5,60.09037840812557,
,,,,,,,,,,,,,,,,,,,,11,0,11,0,27,0,27,0,,,,,,divider,w,g,upper,,,,,,,3,w,LoDemNoTar,None,g,1,0.5577404054347426,None,,,,,,,,,,,,,,,,,,,,325,2023-11-09_10h53.21.779,leap3,2022.2.5,60.09037840812557,
,,,,,,,,,,,,,,,,,,,,11,0,11,0,28,0,28,0,,,,,,dabble,w,g,upper,,,,,,,3,w,LoDemNoTar,None,g,1,0.7177270569372922,None,,,,,,,,,,,,,,,,,,,,325,2023-11-09_10h53.21.779,leap3,2022.2.5,60.09037840812557,
,,,,,,,,,,,,,,,,,,,,11,0,11,0,29,0,29,0,,,,,,rudder,w,g,upper,,,,,,,3,w,LoDemNoTar,None,g,1,0.41517753480002284,None,,,,,,,,,,,,,,,,,,,,325,2023-11-09_10h53.21.779,leap3,2022.2.5,60.09037840812557,
,,,,,,,,,,,,,,,,,,,,11,0,11,0,,,,,,,,,,,,,,,,,,,,,,,,,,,,,,,,,,,,,,,,,,,,,,,325,2023-11-09_10h53.21.779,leap3,2022.2.5,60.09037840812557,
,,,,,,,,,,,,,,,,,,,,12,0,12,0,0,0,0,0,,,,,,maroon,w,g,lower,,,,,,,2,w,HiDemNoTar,None,h,0,0.6530459597706795,None,,,,,,,,,,,,,,,,,,,,325,2023-11-09_10h53.21.779,leap3,2022.2.5,60.09037840812557,
,,,,,,,,,,,,,,,,,,,,12,0,12,0,1,0,1,0,,,,,,defensa,nw,h,lower,,,,,,,2,nw,HiDemNoTar,None,h,1,0.6892048816662282,None,,,,,,,,,,,,,,,,,,,,325,2023-11-09_10h53.21.779,leap3,2022.2.5,60.09037840812557,
,,,,,,,,,,,,,,,,,,,,12,0,12,0,2,0,2,0,,,,,,rainfall,w,g,lower,,,,,,,2,w,HiDemNoTar,None,g,1,0.6035724738612771,None,,,,,,,,,,,,,,,,,,,,325,2023-11-09_10h53.21.779,leap3,2022.2.5,60.09037840812557,
,,,,,,,,,,,,,,,,,,,,12,0,12,0,3,0,3,0,,,,,,repayment,w,g,lower,,,,,,,2,w,HiDemNoTar,None,g,1,0.6176084352191538,None,,,,,,,,,,,,,,,,,,,,325,2023-11-09_10h53.21.779,leap3,2022.2.5,60.09037840812557,
,,,,,,,,,,,,,,,,,,,,12,0,12,0,4,0,4,0,,,,,,tapling,nw,h,lower,,,,,,,2,nw,HiDemNoTar,None,g,0,0.4943911952432245,None,,,,,,,,,,,,,,,,,,,,325,2023-11-09_10h53.21.779,leap3,2022.2.5,60.09037840812557,
,,,,,,,,,,,,,,,,,,,,12,0,12,0,5,0,5,0,,,,,,analysis,w,g,lower,,,,,,,2,w,HiDemNoTar,None,g,1,0.5775045061018318,None,,,,,,,,,,,,,,,,,,,,325,2023-11-09_10h53.21.779,leap3,2022.2.5,60.09037840812557,
,,,,,,,,,,,,,,,,,,,,12,0,12,0,6,0,6,0,,,,,,awful,w,g,lower,,,,,,,2,w,HiDemNoTar,None,g,1,0.4896042821928859,None,,,,,,,,,,,,,,,,,,,,325,2023-11-09_10h53.21.779,leap3,2022.2.5,60.09037840812557,
,,,,,,,,,,,,,,,,,,,,12,0,12,0,7,0,7,0,,,,,,ludictous,nw,h,lower,,,,,,,2,nw,HiDemNoTar,None,g,0,0.7642844952642918,None,,,,,,,,,,,,,,,,,,,,325,2023-11-09_10h53.21.779,leap3,2022.2.5,60.09037840812557,
,,,,,,,,,,,,,,,,,,,,12,0,12,0,8,0,8,0,,,,,,prama,nw,h,lower,,,,,,,2,nw,HiDemNoTar,None,h,1,0.6603215110953897,None,,,,,,,,,,,,,,,,,,,,325,2023-11-09_10h53.21.779,leap3,2022.2.5,60.09037840812557,
,,,,,,,,,,,,,,,,,,,,12,0,12,0,9,0,9,0,,,,,,enabled,w,g,lower,,,,,,,2,w,HiDemNoTar,None,g,1,0.5602965818252414,None,,,,,,,,,,,,,,,,,,,,325,2023-11-09_10h53.21.779,leap3,2022.2.5,60.09037840812557,
,,,,,,,,,,,,,,,,,,,,12,0,12,0,10,0,10,0,,,,,,massacre,w,g,lower,,,,,,,2,w,HiDemNoTar,None,g,1,0.6554213729687035,None,,,,,,,,,,,,,,,,,,,,325,2023-11-09_10h53.21.779,leap3,2022.2.5,60.09037840812557,
,,,,,,,,,,,,,,,,,,,,12,0,12,0,11,0,11,0,,,,,,ignoble,w,g,lower,,,,,,,2,w,HiDemNoTar,None,h,0,0.7714610574766994,None,,,,,,,,,,,,,,,,,,,,325,2023-11-09_10h53.21.779,leap3,2022.2.5,60.09037840812557,
,,,,,,,,,,,,,,,,,,,,12,0,12,0,12,0,12,0,,,,,,padicals,nw,h,lower,,,,,,,2,nw,HiDemNoTar,None,h,1,0.5546773637179285,None,,,,,,,,,,,,,,,,,,,,325,2023-11-09_10h53.21.779,leap3,2022.2.5,60.09037840812557,
,,,,,,,,,,,,,,,,,,,,12,0,12,0,13,0,13,0,,,,,,fracture,w,g,lower,,,,,,,2,w,HiDemNoTar,None,g,1,0.6267776959575713,None,,,,,,,,,,,,,,,,,,,,325,2023-11-09_10h53.21.779,leap3,2022.2.5,60.09037840812557,
,,,,,,,,,,,,,,,,,,,,12,0,12,0,14,0,14,0,,,,,,abraid,nw,h,lower,,,,,,,2,nw,HiDemNoTar,None,h,1,0.7683354439213872,None,,,,,,,,,,,,,,,,,,,,325,2023-11-09_10h53.21.779,leap3,2022.2.5,60.09037840812557,
,,,,,,,,,,,,,,,,,,,,12,0,12,0,15,0,15,0,,,,,,brongs,nw,h,lower,,,,,,,2,nw,HiDemNoTar,None,h,1,0.5914974284823984,None,,,,,,,,,,,,,,,,,,,,325,2023-11-09_10h53.21.779,leap3,2022.2.5,60.09037840812557,
,,,,,,,,,,,,,,,,,,,,12,0,12,0,16,0,16,0,,,,,,epic,w,g,lower,,,,,,,2,w,HiDemNoTar,None,g,1,0.5582317104563117,None,,,,,,,,,,,,,,,,,,,,325,2023-11-09_10h53.21.779,leap3,2022.2.5,60.09037840812557,
,,,,,,,,,,,,,,,,,,,,12,0,12,0,17,0,17,0,,,,,,surround,w,g,lower,,,,,,,2,w,HiDemNoTar,None,g,1,0.6062342610675842,None,,,,,,,,,,,,,,,,,,,,325,2023-11-09_10h53.21.779,leap3,2022.2.5,60.09037840812557,
,,,,,,,,,,,,,,,,,,,,12,0,12,0,18,0,18,0,,,,,,anemic,w,g,lower,,,,,,,2,w,HiDemNoTar,None,g,1,0.9003733301069587,None,,,,,,,,,,,,,,,,,,,,325,2023-11-09_10h53.21.779,leap3,2022.2.5,60.09037840812557,
,,,,,,,,,,,,,,,,,,,,12,0,12,0,19,0,19,0,,,,,,stable,w,g,lower,,,,,,,2,w,HiDemNoTar,None,g,1,0.4380424190312624,None,,,,,,,,,,,,,,,,,,,,325,2023-11-09_10h53.21.779,leap3,2022.2.5,60.09037840812557,
,,,,,,,,,,,,,,,,,,,,12,0,12,0,20,0,20,0,,,,,,ganter,nw,h,lower,,,,,,,2,nw,HiDemNoTar,None,g,0,0.37864053319208324,None,,,,,,,,,,,,,,,,,,,,325,2023-11-09_10h53.21.779,leap3,2022.2.5,60.09037840812557,
,,,,,,,,,,,,,,,,,,,,12,0,12,0,21,0,21,0,,,,,,picnic,w,g,lower,,,,,,,2,w,HiDemNoTar,None,g,1,0.5940423486754298,None,,,,,,,,,,,,,,,,,,,,325,2023-11-09_10h53.21.779,leap3,2022.2.5,60.09037840812557,
,,,,,,,,,,,,,,,,,,,,12,0,12,0,22,0,22,0,,,,,,loached,nw,h,lower,,,,,,,2,nw,HiDemNoTar,None,h,1,0.6887274815235287,None,,,,,,,,,,,,,,,,,,,,325,2023-11-09_10h53.21.779,leap3,2022.2.5,60.09037840812557,
,,,,,,,,,,,,,,,,,,,,12,0,12,0,23,0,23,0,,,,,,dusmy,nw,h,lower,,,,,,,2,nw,HiDemNoTar,None,h,1,0.5234705577604473,None,,,,,,,,,,,,,,,,,,,,325,2023-11-09_10h53.21.779,leap3,2022.2.5,60.09037840812557,
,,,,,,,,,,,,,,,,,,,,12,0,12,0,24,0,24,0,,,,,,tasher,nw,h,lower,,,,,,,2,nw,HiDemNoTar,None,h,1,0.6288263450842351,None,,,,,,,,,,,,,,,,,,,,325,2023-11-09_10h53.21.779,leap3,2022.2.5,60.09037840812557,
,,,,,,,,,,,,,,,,,,,,12,0,12,0,25,0,25,0,,,,,,chonemic,nw,h,lower,,,,,,,2,nw,HiDemNoTar,None,h,1,0.8662607397418469,None,,,,,,,,,,,,,,,,,,,,325,2023-11-09_10h53.21.779,leap3,2022.2.5,60.09037840812557,
,,,,,,,,,,,,,,,,,,,,12,0,12,0,26,0,26,0,,,,,,schinter,nw,h,lower,,,,,,,2,nw,HiDemNoTar,None,h,1,0.542186165926978,None,,,,,,,,,,,,,,,,,,,,325,2023-11-09_10h53.21.779,leap3,2022.2.5,60.09037840812557,
,,,,,,,,,,,,,,,,,,,,12,0,12,0,27,0,27,0,,,,,,trocess,nw,h,lower,,,,,,,2,nw,HiDemNoTar,None,h,1,0.5028549500275403,None,,,,,,,,,,,,,,,,,,,,325,2023-11-09_10h53.21.779,leap3,2022.2.5,60.09037840812557,
,,,,,,,,,,,,,,,,,,,,12,0,12,0,28,0,28,0,,,,,,slightly,w,g,lower,,,,,,,2,w,HiDemNoTar,None,g,1,0.575985566014424,None,,,,,,,,,,,,,,,,,,,,325,2023-11-09_10h53.21.779,leap3,2022.2.5,60.09037840812557,
,,,,,,,,,,,,,,,,,,,,12,0,12,0,29,0,29,0,,,,,,peanimate,nw,h,lower,,,,,,,2,nw,HiDemNoTar,None,h,1,0.679330114973709,None,,,,,,,,,,,,,,,,,,,,325,2023-11-09_10h53.21.779,leap3,2022.2.5,60.09037840812557,
,,,,,,,,,,,,,,,,,,,,12,0,12,0,,,,,,,,,,,,,,,,,,,,,,,,,,,,,,,,,,,,,,,,,,,,,,,325,2023-11-09_10h53.21.779,leap3,2022.2.5,60.09037840812557,
,,,,,,,,,,,,,,,,,,,,13,0,13,0,0,0,0,0,,,,,,welayed,nw,h,upper,,,,,,,4,nw,LoDemTar,None,h,1,0.5937361107207835,None,,,,,,,,,,,,,,,,,,,,325,2023-11-09_10h53.21.779,leap3,2022.2.5,60.09037840812557,
,,,,,,,,,,,,,,,,,,,,13,0,13,0,1,0,1,0,,,,,,emission,w,g,upper,,,,,,,4,w,LoDemTar,None,g,1,0.5221049021929502,None,,,,,,,,,,,,,,,,,,,,325,2023-11-09_10h53.21.779,leap3,2022.2.5,60.09037840812557,
,,,,,,,,,,,,,,,,,,,,13,0,13,0,2,0,2,0,,,,,,sweeping,w,g,upper,,,,,,,4,w,LoDemTar,None,g,1,0.47555242967791855,None,,,,,,,,,,,,,,,,,,,,325,2023-11-09_10h53.21.779,leap3,2022.2.5,60.09037840812557,
,,,,,,,,,,,,,,,,,,,,13,0,13,0,3,0,3,0,,,,,,contund,nw,h,upper,,,,,,,4,nw,LoDemTar,None,h,1,0.4789160811342299,None,,,,,,,,,,,,,,,,,,,,325,2023-11-09_10h53.21.779,leap3,2022.2.5,60.09037840812557,
,,,,,,,,,,,,,,,,,,,,13,0,13,0,4,0,4,0,,,,,,turning,w,g,upper,,,,,,,4,w,LoDemTar,None,g,1,0.5063179219141603,None,,,,,,,,,,,,,,,,,,,,325,2023-11-09_10h53.21.779,leap3,2022.2.5,60.09037840812557,
,,,,,,,,,,,,,,,,,,,,13,0,13,0,5,0,5,0,,,,,,burning,w,g,upper,,,,,,,4,w,LoDemTar,None,g,1,0.47544483258388937,None,,,,,,,,,,,,,,,,,,,,325,2023-11-09_10h53.21.779,leap3,2022.2.5,60.09037840812557,
,,,,,,,,,,,,,,,,,,,,13,0,13,0,6,0,6,0,,,,,,insect,w,g,upper,,,,,,,4,w,LoDemTar,None,g,1,0.3986423406749964,None,,,,,,,,,,,,,,,,,,,,325,2023-11-09_10h53.21.779,leap3,2022.2.5,60.09037840812557,
,,,,,,,,,,,,,,,,,,,,13,0,13,0,7,0,7,0,,,,,,flacked,nw,h,upper,,,,,,,4,nw,LoDemTar,q,h,1,0.6293626753613353,None,q,,,0.3053433899767697,,,,,,,,,,,,,,,,325,2023-11-09_10h53.21.779,leap3,2022.2.5,60.09037840812557,
,,,,,,,,,,,,,,,,,,,,13,0,13,0,8,0,8,0,,,,,,gewer,nw,h,upper,,,,,,,4,nw,LoDemTar,None,h,1,0.5947243489790708,None,,,,,,,,,,,,,,,,,,,,325,2023-11-09_10h53.21.779,leap3,2022.2.5,60.09037840812557,
,,,,,,,,,,,,,,,,,,,,13,0,13,0,9,0,9,0,,,,,,unmarked,w,g,upper,,,,,,,4,w,LoDemTar,None,h,0,0.9613782474771142,None,,,,,,,,,,,,,,,,,,,,325,2023-11-09_10h53.21.779,leap3,2022.2.5,60.09037840812557,
,,,,,,,,,,,,,,,,,,,,13,0,13,0,10,0,10,0,,,,,,sponto,nw,h,upper,,,,,,,4,nw,LoDemTar,None,h,1,0.5853799530304968,None,,,,,,,,,,,,,,,,,,,,325,2023-11-09_10h53.21.779,leap3,2022.2.5,60.09037840812557,
,,,,,,,,,,,,,,,,,,,,13,0,13,0,11,0,11,0,,,,,,unrealon,nw,h,upper,,,,,,,4,nw,LoDemTar,None,h,1,0.6880570687353611,None,,,,,,,,,,,,,,,,,,,,325,2023-11-09_10h53.21.779,leap3,2022.2.5,60.09037840812557,
,,,,,,,,,,,,,,,,,,,,13,0,13,0,12,0,12,0,,,,,,reason,w,g,upper,,,,,,,4,w,LoDemTar,None,g,1,0.5227481673937291,None,,,,,,,,,,,,,,,,,,,,325,2023-11-09_10h53.21.779,leap3,2022.2.5,60.09037840812557,
,,,,,,,,,,,,,,,,,,,,13,0,13,0,13,0,13,0,,,,,,ifkling,nw,h,upper,,,,,,,4,nw,LoDemTar,None,h,1,0.5640876423567533,None,,,,,,,,,,,,,,,,,,,,325,2023-11-09_10h53.21.779,leap3,2022.2.5,60.09037840812557,
,,,,,,,,,,,,,,,,,,,,13,0,13,0,14,0,14,0,,,,,,patio,w,g,upper,,,,,,,4,w,LoDemTar,None,h,0,0.5712410295382142,None,,,,,,,,,,,,,,,,,,,,325,2023-11-09_10h53.21.779,leap3,2022.2.5,60.09037840812557,
,,,,,,,,,,,,,,,,,,,,13,0,13,0,15,0,15,0,,,,,,sliding,w,g,upper,,,,,,,4,w,LoDemTar,None,g,1,0.7865365725010633,None,,,,,,,,,,,,,,,,,,,,325,2023-11-09_10h53.21.779,leap3,2022.2.5,60.09037840812557,
,,,,,,,,,,,,,,,,,,,,13,0,13,0,16,0,16,0,,,,,,tuckel,nw,h,upper,,,,,,,4,nw,LoDemTar,None,h,1,0.6092579055111855,None,,,,,,,,,,,,,,,,,,,,325,2023-11-09_10h53.21.779,leap3,2022.2.5,60.09037840812557,
,,,,,,,,,,,,,,,,,,,,13,0,13,0,17,0,17,0,,,,,,dounger,nw,h,upper,,,,,,,4,nw,LoDemTar,None,h,1,0.5193057218566537,None,,,,,,,,,,,,,,,,,,,,325,2023-11-09_10h53.21.779,leap3,2022.2.5,60.09037840812557,
,,,,,,,,,,,,,,,,,,,,13,0,13,0,18,0,18,0,,,,,,intercede,w,g,upper,,,,,,,4,w,LoDemTar,None,h,0,0.9920934173278511,None,,,,,,,,,,,,,,,,,,,,325,2023-11-09_10h53.21.779,leap3,2022.2.5,60.09037840812557,
,,,,,,,,,,,,,,,,,,,,13,0,13,0,19,0,19,0,,,,,,purport,w,g,upper,,,,,,,4,w,LoDemTar,None,h,0,0.6393208713270724,None,,,,,,,,,,,,,,,,,,,,325,2023-11-09_10h53.21.779,leap3,2022.2.5,60.09037840812557,
,,,,,,,,,,,,,,,,,,,,13,0,13,0,20,0,20,0,,,,,,artifact,w,g,upper,,,,,,,4,w,LoDemTar,None,g,1,0.5399620509706438,None,,,,,,,,,,,,,,,,,,,,325,2023-11-09_10h53.21.779,leap3,2022.2.5,60.09037840812557,
,,,,,,,,,,,,,,,,,,,,13,0,13,0,21,0,21,0,,,,,,compose,w,g,upper,,,,,,,4,w,LoDemTar,None,g,1,0.5247269612737,None,,,,,,,,,,,,,,,,,,,,325,2023-11-09_10h53.21.779,leap3,2022.2.5,60.09037840812557,
,,,,,,,,,,,,,,,,,,,,13,0,13,0,22,0,22,0,,,,,,aggepting,nw,h,upper,,,,,,,4,nw,LoDemTar,None,h,1,0.7260434862691909,None,,,,,,,,,,,,,,,,,,,,325,2023-11-09_10h53.21.779,leap3,2022.2.5,60.09037840812557,
,,,,,,,,,,,,,,,,,,,,13,0,13,0,23,0,23,0,,,,,,oleandur,nw,h,upper,,,,,,,4,nw,LoDemTar,None,h,1,0.5504132071509957,None,,,,,,,,,,,,,,,,,,,,325,2023-11-09_10h53.21.779,leap3,2022.2.5,60.09037840812557,
,,,,,,,,,,,,,,,,,,,,13,0,13,0,24,0,24,0,,,,,,eugenifs,nw,h,upper,,,,,,,4,nw,LoDemTar,None,h,1,0.5574821722693741,None,,,,,,,,,,,,,,,,,,,,325,2023-11-09_10h53.21.779,leap3,2022.2.5,60.09037840812557,
,,,,,,,,,,,,,,,,,,,,13,0,13,0,25,0,25,0,,,,,,gontracts,nw,h,upper,,,,,,,4,nw,LoDemTar,None,h,1,0.5183346990961581,None,,,,,,,,,,,,,,,,,,,,325,2023-11-09_10h53.21.779,leap3,2022.2.5,60.09037840812557,
,,,,,,,,,,,,,,,,,,,,13,0,13,0,26,0,26,0,,,,,,fidelity,w,g,upper,,,,,,,4,w,LoDemTar,None,g,1,0.7043389957398176,None,,,,,,,,,,,,,,,,,,,,325,2023-11-09_10h53.21.779,leap3,2022.2.5,60.09037840812557,
,,,,,,,,,,,,,,,,,,,,13,0,13,0,27,0,27,0,,,,,,rander,nw,h,upper,,,,,,,4,nw,LoDemTar,None,h,1,0.5305103890132159,None,,,,,,,,,,,,,,,,,,,,325,2023-11-09_10h53.21.779,leap3,2022.2.5,60.09037840812557,
,,,,,,,,,,,,,,,,,,,,13,0,13,0,28,0,28,0,,,,,,spider,target,q,upper,,,,,,,4,target,LoDemTar,None,g,0,0.5555080135818571,q,q,0.2520983766298741,,,,,,,,,,,,,,,,,,325,2023-11-09_10h53.21.779,leap3,2022.2.5,60.09037840812557,
,,,,,,,,,,,,,,,,,,,,13,0,13,0,29,0,29,0,,,,,,potter,w,g,upper,,,,,,,4,aftertar1,LoDemTar,None,g,1,0.7161044923122972,None,,,,,,,,,,,,,,,,,,,,325,2023-11-09_10h53.21.779,leap3,2022.2.5,60.09037840812557,
,,,,,,,,,,,,,,,,,,,,13,0,13,0,,,,,,,,,,,,,,,,,,,,,,,,,,,,,,,,,,,,,,,,,,,,,,,325,2023-11-09_10h53.21.779,leap3,2022.2.5,60.09037840812557,
,,,,,,,,,,,,,,,,,,,,14,0,14,0,0,0,0,0,,,,,,louches,nw,h,upper,,,,,,,3,nw,LoDemNoTar,None,h,1,0.5977036303374916,None,,,,,,,,,,,,,,,,,,,,325,2023-11-09_10h53.21.779,leap3,2022.2.5,60.09037840812557,
,,,,,,,,,,,,,,,,,,,,14,0,14,0,1,0,1,0,,,,,,sputter,w,g,upper,,,,,,,3,w,LoDemNoTar,None,g,1,0.7084574825130403,None,,,,,,,,,,,,,,,,,,,,325,2023-11-09_10h53.21.779,leap3,2022.2.5,60.09037840812557,
,,,,,,,,,,,,,,,,,,,,14,0,14,0,2,0,2,0,,,,,,fuhrek,nw,h,upper,,,,,,,3,nw,LoDemNoTar,None,h,1,0.5025222266558558,None,,,,,,,,,,,,,,,,,,,,325,2023-11-09_10h53.21.779,leap3,2022.2.5,60.09037840812557,
,,,,,,,,,,,,,,,,,,,,14,0,14,0,3,0,3,0,,,,,,arbitrary,w,g,upper,,,,,,,3,w,LoDemNoTar,None,g,1,0.4965087063610554,None,,,,,,,,,,,,,,,,,,,,325,2023-11-09_10h53.21.779,leap3,2022.2.5,60.09037840812557,
,,,,,,,,,,,,,,,,,,,,14,0,14,0,4,0,4,0,,,,,,realize,w,g,upper,,,,,,,3,w,LoDemNoTar,None,g,1,0.43521013180725276,None,,,,,,,,,,,,,,,,,,,,325,2023-11-09_10h53.21.779,leap3,2022.2.5,60.09037840812557,
,,,,,,,,,,,,,,,,,,,,14,0,14,0,5,0,5,0,,,,,,foster,w,g,upper,,,,,,,3,w,LoDemNoTar,None,g,1,0.3518978487700224,None,,,,,,,,,,,,,,,,,,,,325,2023-11-09_10h53.21.779,leap3,2022.2.5,60.09037840812557,
,,,,,,,,,,,,,,,,,,,,14,0,14,0,6,0,6,0,,,,,,esdings,nw,h,upper,,,,,,,3,nw,LoDemNoTar,None,h,1,0.37603966263122857,None,,,,,,,,,,,,,,,,,,,,325,2023-11-09_10h53.21.779,leap3,2022.2.5,60.09037840812557,
,,,,,,,,,,,,,,,,,,,,14,0,14,0,7,0,7,0,,,,,,handed,w,g,upper,,,,,,,3,w,LoDemNoTar,None,g,1,0.4873318311292678,None,,,,,,,,,,,,,,,,,,,,325,2023-11-09_10h53.21.779,leap3,2022.2.5,60.09037840812557,
,,,,,,,,,,,,,,,,,,,,14,0,14,0,8,0,8,0,,,,,,chiffol,nw,h,upper,,,,,,,3,nw,LoDemNoTar,None,h,1,0.48201222950592637,None,,,,,,,,,,,,,,,,,,,,325,2023-11-09_10h53.21.779,leap3,2022.2.5,60.09037840812557,
,,,,,,,,,,,,,,,,,,,,14,0,14,0,9,0,9,0,,,,,,moozy,nw,h,upper,,,,,,,3,nw,LoDemNoTar,None,h,1,0.4773663515225053,None,,,,,,,,,,,,,,,,,,,,325,2023-11-09_10h53.21.779,leap3,2022.2.5,60.09037840812557,
,,,,,,,,,,,,,,,,,,,,14,0,14,0,10,0,10,0,,,,,,profats,nw,h,upper,,,,,,,3,nw,LoDemNoTar,None,h,1,0.5116895011160523,None,,,,,,,,,,,,,,,,,,,,325,2023-11-09_10h53.21.779,leap3,2022.2.5,60.09037840812557,
,,,,,,,,,,,,,,,,,,,,14,0,14,0,11,0,11,0,,,,,,remain,w,g,upper,,,,,,,3,w,LoDemNoTar,None,g,1,0.489656921941787,None,,,,,,,,,,,,,,,,,,,,325,2023-11-09_10h53.21.779,leap3,2022.2.5,60.09037840812557,
,,,,,,,,,,,,,,,,,,,,14,0,14,0,12,0,12,0,,,,,,levels,w,g,upper,,,,,,,3,w,LoDemNoTar,None,g,1,0.4442595459986478,None,,,,,,,,,,,,,,,,,,,,325,2023-11-09_10h53.21.779,leap3,2022.2.5,60.09037840812557,
,,,,,,,,,,,,,,,,,,,,14,0,14,0,13,0,13,0,,,,,,restock,w,g,upper,,,,,,,3,w,LoDemNoTar,None,h,0,0.4969076435081661,None,,,,,,,,,,,,,,,,,,,,325,2023-11-09_10h53.21.779,leap3,2022.2.5,60.09037840812557,
,,,,,,,,,,,,,,,,,,,,14,0,14,0,14,0,14,0,,,,,,leuter,nw,h,upper,,,,,,,3,nw,LoDemNoTar,None,h,1,0.5315608677919954,None,,,,,,,,,,,,,,,,,,,,325,2023-11-09_10h53.21.779,leap3,2022.2.5,60.09037840812557,
,,,,,,,,,,,,,,,,,,,,14,0,14,0,15,0,15,0,,,,,,mitro,nw,h,upper,,,,,,,3,nw,LoDemNoTar,None,h,1,0.5489823310635984,None,,,,,,,,,,,,,,,,,,,,325,2023-11-09_10h53.21.779,leap3,2022.2.5,60.09037840812557,
,,,,,,,,,,,,,,,,,,,,14,0,14,0,16,0,16,0,,,,,,peags,nw,h,upper,,,,,,,3,nw,LoDemNoTar,None,h,1,0.3976627103984356,None,,,,,,,,,,,,,,,,,,,,325,2023-11-09_10h53.21.779,leap3,2022.2.5,60.09037840812557,
,,,,,,,,,,,,,,,,,,,,14,0,14,0,17,0,17,0,,,,,,blanned,nw,h,upper,,,,,,,3,nw,LoDemNoTar,None,g,0,0.5083268426824361,None,,,,,,,,,,,,,,,,,,,,325,2023-11-09_10h53.21.779,leap3,2022.2.5,60.09037840812557,
,,,,,,,,,,,,,,,,,,,,14,0,14,0,18,0,18,0,,,,,,usually,w,g,upper,,,,,,,3,w,LoDemNoTar,None,g,1,0.5414117977488786,None,,,,,,,,,,,,,,,,,,,,325,2023-11-09_10h53.21.779,leap3,2022.2.5,60.09037840812557,
,,,,,,,,,,,,,,,,,,,,14,0,14,0,19,0,19,0,,,,,,vopings,nw,h,upper,,,,,,,3,nw,LoDemNoTar,None,h,1,0.4771160641685128,None,,,,,,,,,,,,,,,,,,,,325,2023-11-09_10h53.21.779,leap3,2022.2.5,60.09037840812557,
,,,,,,,,,,,,,,,,,,,,14,0,14,0,20,0,20,0,,,,,,aefated,nw,h,upper,,,,,,,3,nw,LoDemNoTar,None,h,1,0.4335435351822525,None,,,,,,,,,,,,,,,,,,,,325,2023-11-09_10h53.21.779,leap3,2022.2.5,60.09037840812557,
,,,,,,,,,,,,,,,,,,,,14,0,14,0,21,0,21,0,,,,,,season,w,g,upper,,,,,,,3,w,LoDemNoTar,None,g,1,0.6308362591080368,None,,,,,,,,,,,,,,,,,,,,325,2023-11-09_10h53.21.779,leap3,2022.2.5,60.09037840812557,
,,,,,,,,,,,,,,,,,,,,14,0,14,0,22,0,22,0,,,,,,gerby,nw,h,upper,,,,,,,3,nw,LoDemNoTar,None,h,1,0.47619172208942473,None,,,,,,,,,,,,,,,,,,,,325,2023-11-09_10h53.21.779,leap3,2022.2.5,60.09037840812557,
,,,,,,,,,,,,,,,,,,,,14,0,14,0,23,0,23,0,,,,,,equitable,w,g,upper,,,,,,,3,w,LoDemNoTar,None,g,1,0.67121696122922,None,,,,,,,,,,,,,,,,,,,,325,2023-11-09_10h53.21.779,leap3,2022.2.5,60.09037840812557,
,,,,,,,,,,,,,,,,,,,,14,0,14,0,24,0,24,0,,,,,,catgup,nw,h,upper,,,,,,,3,nw,LoDemNoTar,None,h,1,0.49100470007397234,None,,,,,,,,,,,,,,,,,,,,325,2023-11-09_10h53.21.779,leap3,2022.2.5,60.09037840812557,
,,,,,,,,,,,,,,,,,,,,14,0,14,0,25,0,25,0,,,,,,partner,w,g,upper,,,,,,,3,w,LoDemNoTar,None,g,1,0.5176725629717112,None,,,,,,,,,,,,,,,,,,,,325,2023-11-09_10h53.21.779,leap3,2022.2.5,60.09037840812557,
,,,,,,,,,,,,,,,,,,,,14,0,14,0,26,0,26,0,,,,,,painter,w,g,upper,,,,,,,3,w,LoDemNoTar,None,g,1,0.5590537523385137,None,,,,,,,,,,,,,,,,,,,,325,2023-11-09_10h53.21.779,leap3,2022.2.5,60.09037840812557,
,,,,,,,,,,,,,,,,,,,,14,0,14,0,27,0,27,0,,,,,,setwixt,nw,h,upper,,,,,,,3,nw,LoDemNoTar,None,h,1,0.6230333161074668,None,,,,,,,,,,,,,,,,,,,,325,2023-11-09_10h53.21.779,leap3,2022.2.5,60.09037840812557,
,,,,,,,,,,,,,,,,,,,,14,0,14,0,28,0,28,0,,,,,,medium,w,g,upper,,,,,,,3,w,LoDemNoTar,None,g,1,0.4284013861324638,None,,,,,,,,,,,,,,,,,,,,325,2023-11-09_10h53.21.779,leap3,2022.2.5,60.09037840812557,
,,,,,,,,,,,,,,,,,,,,14,0,14,0,29,0,29,0,,,,,,statute,w,g,upper,,,,,,,3,w,LoDemNoTar,None,g,1,0.5217754894401878,None,,,,,,,,,,,,,,,,,,,,325,2023-11-09_10h53.21.779,leap3,2022.2.5,60.09037840812557,
,,,,,,,,,,,,,,,,,,,,14,0,14,0,,,,,,,,,,,,,,,,,,,,,,,,,,,,,,,,,,,,,,,,,,,,,,,325,2023-11-09_10h53.21.779,leap3,2022.2.5,60.09037840812557,
,,,,,,,,,,,,,,,,,,,,15,0,15,0,0,0,0,0,,,,,,topefuls,nw,h,lower,,,,,,,1,nw,HiDemTar,None,h,1,0.6747140327934176,None,,,,,,,,,,,,,,,,,,,,325,2023-11-09_10h53.21.779,leap3,2022.2.5,60.09037840812557,
,,,,,,,,,,,,,,,,,,,,15,0,15,0,1,0,1,0,,,,,,borrent,nw,h,lower,,,,,,,1,nw,HiDemTar,None,h,1,0.47006696299649775,None,,,,,,,,,,,,,,,,,,,,325,2023-11-09_10h53.21.779,leap3,2022.2.5,60.09037840812557,
,,,,,,,,,,,,,,,,,,,,15,0,15,0,2,0,2,0,,,,,,urgency,w,g,lower,,,,,,,1,w,HiDemTar,None,g,1,0.5613599724601954,None,,,,,,,,,,,,,,,,,,,,325,2023-11-09_10h53.21.779,leap3,2022.2.5,60.09037840812557,
,,,,,,,,,,,,,,,,,,,,15,0,15,0,3,0,3,0,,,,,,huzzles,nw,h,lower,,,,,,,1,nw,HiDemTar,None,h,1,0.6494671141263098,None,,,,,,,,,,,,,,,,,,,,325,2023-11-09_10h53.21.779,leap3,2022.2.5,60.09037840812557,
,,,,,,,,,,,,,,,,,,,,15,0,15,0,4,0,4,0,,,,,,deeper,w,g,lower,,,,,,,1,w,HiDemTar,None,g,1,0.47811257909052074,None,,,,,,,,,,,,,,,,,,,,325,2023-11-09_10h53.21.779,leap3,2022.2.5,60.09037840812557,
,,,,,,,,,,,,,,,,,,,,15,0,15,0,5,0,5,0,,,,,,newstrint,nw,h,lower,,,,,,,1,nw,HiDemTar,None,h,1,0.4175387122668326,None,,,,,,,,,,,,,,,,,,,,325,2023-11-09_10h53.21.779,leap3,2022.2.5,60.09037840812557,
,,,,,,,,,,,,,,,,,,,,15,0,15,0,6,0,6,0,,,,,,stelled,nw,h,lower,,,,,,,1,nw,HiDemTar,None,h,1,0.6698350829537958,None,,,,,,,,,,,,,,,,,,,,325,2023-11-09_10h53.21.779,leap3,2022.2.5,60.09037840812557,
,,,,,,,,,,,,,,,,,,,,15,0,15,0,7,0,7,0,,,,,,incorrect,w,g,lower,,,,,,,1,w,HiDemTar,None,g,1,0.4891858121845871,None,,,,,,,,,,,,,,,,,,,,325,2023-11-09_10h53.21.779,leap3,2022.2.5,60.09037840812557,
,,,,,,,,,,,,,,,,,,,,15,0,15,0,8,0,8,0,,,,,,filny,nw,h,lower,,,,,,,1,nw,HiDemTar,None,h,1,0.7478098866995424,None,,,,,,,,,,,,,,,,,,,,325,2023-11-09_10h53.21.779,leap3,2022.2.5,60.09037840812557,
,,,,,,,,,,,,,,,,,,,,15,0,15,0,9,0,9,0,,,,,,clattest,nw,h,lower,,,,,,,1,nw,HiDemTar,None,h,1,0.5325163302477449,None,,,,,,,,,,,,,,,,,,,,325,2023-11-09_10h53.21.779,leap3,2022.2.5,60.09037840812557,
