demoRace_loop.thisRepN,demoRace_loop.thisTrialN,demoRace_loop.thisN,demoRace_loop.thisIndex,LDTunderstand.thisRepN,LDTunderstand.thisTrialN,LDTunderstand.thisN,LDTunderstand.thisIndex,pracBlocks.thisRepN,pracBlocks.thisTrialN,pracBlocks.thisN,pracBlocks.thisIndex,pracTrial.thisRepN,pracTrial.thisTrialN,pracTrial.thisN,pracTrial.thisIndex,PMunderstand.thisRepN,PMunderstand.thisTrialN,PMunderstand.thisN,PMunderstand.thisIndex,LDT_block.thisRepN,LDT_block.thisTrialN,LDT_block.thisN,LDT_block.thisIndex,LDT_trial.thisRepN,LDT_trial.thisTrialN,LDT_trial.thisN,LDT_trial.thisIndex,ageTextbox.text,genderTextbox.text,race,raceResp,LDTunderstand,stim,word_type,corr_key,stim_location,LDTpracKey.keys,LDTpracKey.corr,LDTpracKey.rt,PMunderstand,cueTextbox.text,intentionTextbox.text,block_type,role,block_desc,LDTResp.keys,LDTResp.corr,LDTResp.rt,pressedQ,lateQ,postQ1,Q2Textbox.text,Q3Textbox.text,Q4,Q5,Q6Key.keys,Q6Key.rt,postQ7_correct,postQ7,Q8Textbox.text,education,medTextbox.text,health,healthLimit,psych,participant,date,expName,psychopyVersion,frameRate,
0,0,0,0,,,,,,,,,,,,,,,,,,,,,,,,,"
20
"," female
",American Indian or Alaska Native,n,,,,,,,,,,,,,,,,,,,,,,,,,,,,,,,,,,,326,2023-11-10_11h22.50.290,leap3,2022.2.5,60.0212422034136,
1,0,1,0,,,,,,,,,,,,,,,,,,,,,,,,,,,Asian,n,,,,,,,,,,,,,,,,,,,,,,,,,,,,,,,,,,,326,2023-11-10_11h22.50.290,leap3,2022.2.5,60.0212422034136,
2,0,2,0,,,,,,,,,,,,,,,,,,,,,,,,,,,Black or African American,n,,,,,,,,,,,,,,,,,,,,,,,,,,,,,,,,,,,326,2023-11-10_11h22.50.290,leap3,2022.2.5,60.0212422034136,
3,0,3,0,,,,,,,,,,,,,,,,,,,,,,,,,,,Native Hawaiian or other Pacific Islander,n,,,,,,,,,,,,,,,,,,,,,,,,,,,,,,,,,,,326,2023-11-10_11h22.50.290,leap3,2022.2.5,60.0212422034136,
4,0,4,0,,,,,,,,,,,,,,,,,,,,,,,,,,,White,y,,,,,,,,,,,,,,,,,,,,,,,,,,,,,,,,,,,326,2023-11-10_11h22.50.290,leap3,2022.2.5,60.0212422034136,
,,,,0,0,0,0,,,,,,,,,,,,,,,,,,,,,,,,,y,,,,,,,,,,,,,,,,,,,,,,,,,,,,,,,,,,326,2023-11-10_11h22.50.290,leap3,2022.2.5,60.0212422034136,
,,,,,,,,0,0,0,0,0,0,0,0,,,,,,,,,,,,,,,,,,turative,nw,h,upper,h,1,0.8889957328792661,,,,,,,,,,,,,,,,,,,,,,,,,,,326,2023-11-10_11h22.50.290,leap3,2022.2.5,60.0212422034136,
,,,,,,,,0,0,0,0,1,0,1,0,,,,,,,,,,,,,,,,,,unscrew,w,g,upper,g,1,0.7239695633761585,,,,,,,,,,,,,,,,,,,,,,,,,,,326,2023-11-10_11h22.50.290,leap3,2022.2.5,60.0212422034136,
,,,,,,,,0,0,0,0,2,0,2,0,,,,,,,,,,,,,,,,,,lurshing,nw,h,upper,h,1,0.8257372351363301,,,,,,,,,,,,,,,,,,,,,,,,,,,326,2023-11-10_11h22.50.290,leap3,2022.2.5,60.0212422034136,
,,,,,,,,0,0,0,0,3,0,3,0,,,,,,,,,,,,,,,,,,hasking,nw,h,upper,h,1,0.794000058202073,,,,,,,,,,,,,,,,,,,,,,,,,,,326,2023-11-10_11h22.50.290,leap3,2022.2.5,60.0212422034136,
,,,,,,,,0,0,0,0,4,0,4,0,,,,,,,,,,,,,,,,,,slumber,w,g,upper,g,1,0.52831463329494,,,,,,,,,,,,,,,,,,,,,,,,,,,326,2023-11-10_11h22.50.290,leap3,2022.2.5,60.0212422034136,
,,,,,,,,0,0,0,0,5,0,5,0,,,,,,,,,,,,,,,,,,alolition,nw,h,upper,h,1,0.5858506194781512,,,,,,,,,,,,,,,,,,,,,,,,,,,326,2023-11-10_11h22.50.290,leap3,2022.2.5,60.0212422034136,
,,,,,,,,0,0,0,0,6,0,6,0,,,,,,,,,,,,,,,,,,tricycle,w,g,upper,g,1,0.5523167361970991,,,,,,,,,,,,,,,,,,,,,,,,,,,326,2023-11-10_11h22.50.290,leap3,2022.2.5,60.0212422034136,
,,,,,,,,0,0,0,0,7,0,7,0,,,,,,,,,,,,,,,,,,hiring,w,g,upper,g,1,0.6001603740733117,,,,,,,,,,,,,,,,,,,,,,,,,,,326,2023-11-10_11h22.50.290,leap3,2022.2.5,60.0212422034136,
,,,,,,,,0,0,0,0,8,0,8,0,,,,,,,,,,,,,,,,,,grimace,w,g,upper,h,0,0.5748935909941792,,,,,,,,,,,,,,,,,,,,,,,,,,,326,2023-11-10_11h22.50.290,leap3,2022.2.5,60.0212422034136,
,,,,,,,,0,0,0,0,9,0,9,0,,,,,,,,,,,,,,,,,,trotch,nw,h,upper,h,1,0.6461152685806155,,,,,,,,,,,,,,,,,,,,,,,,,,,326,2023-11-10_11h22.50.290,leap3,2022.2.5,60.0212422034136,
,,,,,,,,0,0,0,0,10,0,10,0,,,,,,,,,,,,,,,,,,crinklo,nw,h,upper,h,1,0.5711015374399722,,,,,,,,,,,,,,,,,,,,,,,,,,,326,2023-11-10_11h22.50.290,leap3,2022.2.5,60.0212422034136,
,,,,,,,,0,0,0,0,11,0,11,0,,,,,,,,,,,,,,,,,,grocus,nw,h,upper,h,1,0.5625189291313291,,,,,,,,,,,,,,,,,,,,,,,,,,,326,2023-11-10_11h22.50.290,leap3,2022.2.5,60.0212422034136,
,,,,,,,,0,0,0,0,12,0,12,0,,,,,,,,,,,,,,,,,,busted,w,g,upper,g,1,0.4335937451105565,,,,,,,,,,,,,,,,,,,,,,,,,,,326,2023-11-10_11h22.50.290,leap3,2022.2.5,60.0212422034136,
,,,,,,,,0,0,0,0,13,0,13,0,,,,,,,,,,,,,,,,,,picture,w,g,upper,g,1,0.5029942172113806,,,,,,,,,,,,,,,,,,,,,,,,,,,326,2023-11-10_11h22.50.290,leap3,2022.2.5,60.0212422034136,
,,,,,,,,0,0,0,0,,,,,,,,,,,,,,,,,,,,,,,,,,,,,,,,,,,,,,,,,,,,,,,,,,,,,,,326,2023-11-10_11h22.50.290,leap3,2022.2.5,60.0212422034136,
,,,,,,,,1,0,1,0,0,0,0,0,,,,,,,,,,,,,,,,,,grutch,nw,h,lower,g,0,0.6905508919153363,,,,,,,,,,,,,,,,,,,,,,,,,,,326,2023-11-10_11h22.50.290,leap3,2022.2.5,60.0212422034136,
,,,,,,,,1,0,1,0,1,0,1,0,,,,,,,,,,,,,,,,,,reputable,w,g,lower,g,1,0.5803545587696135,,,,,,,,,,,,,,,,,,,,,,,,,,,326,2023-11-10_11h22.50.290,leap3,2022.2.5,60.0212422034136,
,,,,,,,,1,0,1,0,2,0,2,0,,,,,,,,,,,,,,,,,,latador,nw,h,lower,h,1,0.6436852291226387,,,,,,,,,,,,,,,,,,,,,,,,,,,326,2023-11-10_11h22.50.290,leap3,2022.2.5,60.0212422034136,
,,,,,,,,1,0,1,0,3,0,3,0,,,,,,,,,,,,,,,,,,julled,nw,h,lower,h,1,0.6392595113720745,,,,,,,,,,,,,,,,,,,,,,,,,,,326,2023-11-10_11h22.50.290,leap3,2022.2.5,60.0212422034136,
,,,,,,,,1,0,1,0,4,0,4,0,,,,,,,,,,,,,,,,,,umpire,w,g,lower,g,1,0.5332114605698735,,,,,,,,,,,,,,,,,,,,,,,,,,,326,2023-11-10_11h22.50.290,leap3,2022.2.5,60.0212422034136,
,,,,,,,,1,0,1,0,5,0,5,0,,,,,,,,,,,,,,,,,,curlecs,nw,h,lower,h,1,0.6064953610766679,,,,,,,,,,,,,,,,,,,,,,,,,,,326,2023-11-10_11h22.50.290,leap3,2022.2.5,60.0212422034136,
,,,,,,,,1,0,1,0,6,0,6,0,,,,,,,,,,,,,,,,,,sponsor,w,g,lower,g,1,0.4844822157174349,,,,,,,,,,,,,,,,,,,,,,,,,,,326,2023-11-10_11h22.50.290,leap3,2022.2.5,60.0212422034136,
,,,,,,,,1,0,1,0,7,0,7,0,,,,,,,,,,,,,,,,,,overshoot,w,g,lower,g,1,0.6143198236823082,,,,,,,,,,,,,,,,,,,,,,,,,,,326,2023-11-10_11h22.50.290,leap3,2022.2.5,60.0212422034136,
,,,,,,,,1,0,1,0,8,0,8,0,,,,,,,,,,,,,,,,,,infinity,w,g,lower,g,1,0.5640583958011121,,,,,,,,,,,,,,,,,,,,,,,,,,,326,2023-11-10_11h22.50.290,leap3,2022.2.5,60.0212422034136,
,,,,,,,,1,0,1,0,9,0,9,0,,,,,,,,,,,,,,,,,,treeps,nw,h,lower,h,1,0.5729853147640824,,,,,,,,,,,,,,,,,,,,,,,,,,,326,2023-11-10_11h22.50.290,leap3,2022.2.5,60.0212422034136,
,,,,,,,,1,0,1,0,10,0,10,0,,,,,,,,,,,,,,,,,,raestro,nw,h,lower,h,1,0.5963593814522028,,,,,,,,,,,,,,,,,,,,,,,,,,,326,2023-11-10_11h22.50.290,leap3,2022.2.5,60.0212422034136,
,,,,,,,,1,0,1,0,11,0,11,0,,,,,,,,,,,,,,,,,,lumbigo,nw,h,lower,h,1,0.5791680107358843,,,,,,,,,,,,,,,,,,,,,,,,,,,326,2023-11-10_11h22.50.290,leap3,2022.2.5,60.0212422034136,
,,,,,,,,1,0,1,0,12,0,12,0,,,,,,,,,,,,,,,,,,summary,w,g,lower,g,1,0.5226172830443829,,,,,,,,,,,,,,,,,,,,,,,,,,,326,2023-11-10_11h22.50.290,leap3,2022.2.5,60.0212422034136,
,,,,,,,,1,0,1,0,13,0,13,0,,,,,,,,,,,,,,,,,,revival,w,g,lower,g,1,0.5550798298791051,,,,,,,,,,,,,,,,,,,,,,,,,,,326,2023-11-10_11h22.50.290,leap3,2022.2.5,60.0212422034136,
,,,,,,,,1,0,1,0,,,,,,,,,,,,,,,,,,,,,,,,,,,,,,,,,,,,,,,,,,,,,,,,,,,,,,,326,2023-11-10_11h22.50.290,leap3,2022.2.5,60.0212422034136,
,,,,,,,,,,,,,,,,0,0,0,0,,,,,,,,,,,,,,,,,,,,,y,,,,,,,,,,,,,,,,,,,,,,,,,,326,2023-11-10_11h22.50.290,leap3,2022.2.5,60.0212422034136,
,,,,,,,,,,,,,,,,,,,,0,0,0,0,0,0,0,0,,,,,,measure,w,g,lower,,,,,"animals
","q
 ",3,w,LoDemNoTar,g,1,0.556297829374671,,,,,,,,,,,,,,,,,,326,2023-11-10_11h22.50.290,leap3,2022.2.5,60.0212422034136,
,,,,,,,,,,,,,,,,,,,,0,0,0,0,1,0,1,0,,,,,,scabry,nw,h,lower,,,,,,,3,nw,LoDemNoTar,h,1,0.6209815749898553,,,,,,,,,,,,,,,,,,326,2023-11-10_11h22.50.290,leap3,2022.2.5,60.0212422034136,
,,,,,,,,,,,,,,,,,,,,0,0,0,0,2,0,2,0,,,,,,tibs,nw,h,lower,,,,,,,3,nw,LoDemNoTar,h,1,0.538973038084805,,,,,,,,,,,,,,,,,,326,2023-11-10_11h22.50.290,leap3,2022.2.5,60.0212422034136,
,,,,,,,,,,,,,,,,,,,,0,0,0,0,3,0,3,0,,,,,,brimitive,nw,h,lower,,,,,,,3,nw,LoDemNoTar,h,1,0.5323185701854527,,,,,,,,,,,,,,,,,,326,2023-11-10_11h22.50.290,leap3,2022.2.5,60.0212422034136,
,,,,,,,,,,,,,,,,,,,,0,0,0,0,4,0,4,0,,,,,,handcuff,w,g,lower,,,,,,,3,w,LoDemNoTar,g,1,0.4863292444497347,,,,,,,,,,,,,,,,,,326,2023-11-10_11h22.50.290,leap3,2022.2.5,60.0212422034136,
,,,,,,,,,,,,,,,,,,,,0,0,0,0,5,0,5,0,,,,,,bullet,w,g,lower,,,,,,,3,w,LoDemNoTar,g,1,0.5137658473104239,,,,,,,,,,,,,,,,,,326,2023-11-10_11h22.50.290,leap3,2022.2.5,60.0212422034136,
,,,,,,,,,,,,,,,,,,,,0,0,0,0,6,0,6,0,,,,,,unwose,nw,h,lower,,,,,,,3,nw,LoDemNoTar,h,1,0.5483316699974239,,,,,,,,,,,,,,,,,,326,2023-11-10_11h22.50.290,leap3,2022.2.5,60.0212422034136,
,,,,,,,,,,,,,,,,,,,,0,0,0,0,7,0,7,0,,,,,,thamp,nw,h,lower,,,,,,,3,nw,LoDemNoTar,h,1,0.5339427900034934,,,,,,,,,,,,,,,,,,326,2023-11-10_11h22.50.290,leap3,2022.2.5,60.0212422034136,
,,,,,,,,,,,,,,,,,,,,0,0,0,0,8,0,8,0,,,,,,noils,nw,h,lower,,,,,,,3,nw,LoDemNoTar,h,1,0.5101850153878331,,,,,,,,,,,,,,,,,,326,2023-11-10_11h22.50.290,leap3,2022.2.5,60.0212422034136,
,,,,,,,,,,,,,,,,,,,,0,0,0,0,9,0,9,0,,,,,,tuckel,nw,h,lower,,,,,,,3,nw,LoDemNoTar,h,1,0.5511480658315122,,,,,,,,,,,,,,,,,,326,2023-11-10_11h22.50.290,leap3,2022.2.5,60.0212422034136,
,,,,,,,,,,,,,,,,,,,,0,0,0,0,10,0,10,0,,,,,,obviously,w,g,lower,,,,,,,3,w,LoDemNoTar,g,1,0.4734861215110868,,,,,,,,,,,,,,,,,,326,2023-11-10_11h22.50.290,leap3,2022.2.5,60.0212422034136,
,,,,,,,,,,,,,,,,,,,,0,0,0,0,11,0,11,0,,,,,,parlayid,nw,h,lower,,,,,,,3,nw,LoDemNoTar,h,1,0.5239240084774792,,,,,,,,,,,,,,,,,,326,2023-11-10_11h22.50.290,leap3,2022.2.5,60.0212422034136,
,,,,,,,,,,,,,,,,,,,,0,0,0,0,12,0,12,0,,,,,,apop,nw,h,lower,,,,,,,3,nw,LoDemNoTar,h,1,0.5835606218315661,,,,,,,,,,,,,,,,,,326,2023-11-10_11h22.50.290,leap3,2022.2.5,60.0212422034136,
,,,,,,,,,,,,,,,,,,,,0,0,0,0,13,0,13,0,,,,,,paying,w,g,lower,,,,,,,3,w,LoDemNoTar,g,1,0.5193158723413944,,,,,,,,,,,,,,,,,,326,2023-11-10_11h22.50.290,leap3,2022.2.5,60.0212422034136,
,,,,,,,,,,,,,,,,,,,,0,0,0,0,14,0,14,0,,,,,,tinion,nw,h,lower,,,,,,,3,nw,LoDemNoTar,h,1,0.5290896634105593,,,,,,,,,,,,,,,,,,326,2023-11-10_11h22.50.290,leap3,2022.2.5,60.0212422034136,
,,,,,,,,,,,,,,,,,,,,0,0,0,0,15,0,15,0,,,,,,seasoning,w,g,lower,,,,,,,3,w,LoDemNoTar,g,1,0.5785131580196321,,,,,,,,,,,,,,,,,,326,2023-11-10_11h22.50.290,leap3,2022.2.5,60.0212422034136,
,,,,,,,,,,,,,,,,,,,,0,0,0,0,16,0,16,0,,,,,,relaying,w,g,lower,,,,,,,3,w,LoDemNoTar,h,0,0.5631545800715685,,,,,,,,,,,,,,,,,,326,2023-11-10_11h22.50.290,leap3,2022.2.5,60.0212422034136,
,,,,,,,,,,,,,,,,,,,,0,0,0,0,17,0,17,0,,,,,,maunches,nw,h,lower,,,,,,,3,nw,LoDemNoTar,h,1,0.6041285556275398,,,,,,,,,,,,,,,,,,326,2023-11-10_11h22.50.290,leap3,2022.2.5,60.0212422034136,
,,,,,,,,,,,,,,,,,,,,0,0,0,0,18,0,18,0,,,,,,curtail,w,g,lower,,,,,,,3,w,LoDemNoTar,h,0,0.5616184240207076,,,,,,,,,,,,,,,,,,326,2023-11-10_11h22.50.290,leap3,2022.2.5,60.0212422034136,
,,,,,,,,,,,,,,,,,,,,0,0,0,0,19,0,19,0,,,,,,begut,nw,h,lower,,,,,,,3,nw,LoDemNoTar,h,1,0.6823268302250654,,,,,,,,,,,,,,,,,,326,2023-11-10_11h22.50.290,leap3,2022.2.5,60.0212422034136,
,,,,,,,,,,,,,,,,,,,,0,0,0,0,20,0,20,0,,,,,,blocking,w,g,lower,,,,,,,3,w,LoDemNoTar,g,1,0.48634943971410394,,,,,,,,,,,,,,,,,,326,2023-11-10_11h22.50.290,leap3,2022.2.5,60.0212422034136,
,,,,,,,,,,,,,,,,,,,,0,0,0,0,21,0,21,0,,,,,,ronvince,nw,h,lower,,,,,,,3,nw,LoDemNoTar,h,1,0.5937085195910186,,,,,,,,,,,,,,,,,,326,2023-11-10_11h22.50.290,leap3,2022.2.5,60.0212422034136,
,,,,,,,,,,,,,,,,,,,,0,0,0,0,22,0,22,0,,,,,,daylight,w,g,lower,,,,,,,3,w,LoDemNoTar,g,1,0.4890979665797204,,,,,,,,,,,,,,,,,,326,2023-11-10_11h22.50.290,leap3,2022.2.5,60.0212422034136,
,,,,,,,,,,,,,,,,,,,,0,0,0,0,23,0,23,0,,,,,,irregular,w,g,lower,,,,,,,3,w,LoDemNoTar,g,1,0.5964404933620244,,,,,,,,,,,,,,,,,,326,2023-11-10_11h22.50.290,leap3,2022.2.5,60.0212422034136,
,,,,,,,,,,,,,,,,,,,,0,0,0,0,24,0,24,0,,,,,,dishwater,w,g,lower,,,,,,,3,w,LoDemNoTar,g,1,0.475841008592397,,,,,,,,,,,,,,,,,,326,2023-11-10_11h22.50.290,leap3,2022.2.5,60.0212422034136,
,,,,,,,,,,,,,,,,,,,,0,0,0,0,25,0,25,0,,,,,,nollow,nw,h,lower,,,,,,,3,nw,LoDemNoTar,h,1,0.6078600238543004,,,,,,,,,,,,,,,,,,326,2023-11-10_11h22.50.290,leap3,2022.2.5,60.0212422034136,
,,,,,,,,,,,,,,,,,,,,0,0,0,0,26,0,26,0,,,,,,treason,w,g,lower,,,,,,,3,w,LoDemNoTar,g,1,0.8225536847021431,,,,,,,,,,,,,,,,,,326,2023-11-10_11h22.50.290,leap3,2022.2.5,60.0212422034136,
,,,,,,,,,,,,,,,,,,,,0,0,0,0,27,0,27,0,,,,,,bellicove,nw,h,lower,,,,,,,3,nw,LoDemNoTar,h,1,0.5957131367176771,,,,,,,,,,,,,,,,,,326,2023-11-10_11h22.50.290,leap3,2022.2.5,60.0212422034136,
,,,,,,,,,,,,,,,,,,,,0,0,0,0,28,0,28,0,,,,,,other,w,g,lower,,,,,,,3,w,LoDemNoTar,g,1,0.6109733877237886,,,,,,,,,,,,,,,,,,326,2023-11-10_11h22.50.290,leap3,2022.2.5,60.0212422034136,
,,,,,,,,,,,,,,,,,,,,0,0,0,0,29,0,29,0,,,,,,overwork,w,g,lower,,,,,,,3,w,LoDemNoTar,g,1,0.5376481036655605,,,,,,,,,,,,,,,,,,326,2023-11-10_11h22.50.290,leap3,2022.2.5,60.0212422034136,
,,,,,,,,,,,,,,,,,,,,0,0,0,0,,,,,,,,,,,,,,,,,,,,,,,,,,,,,,,,,,,,,,,,,,,326,2023-11-10_11h22.50.290,leap3,2022.2.5,60.0212422034136,
,,,,,,,,,,,,,,,,,,,,1,0,1,0,0,0,0,0,,,,,,welayed,nw,h,upper,,,,,,,2,nw,HiDemNoTar,h,1,0.7151684504933655,,,,,,,,,,,,,,,,,,326,2023-11-10_11h22.50.290,leap3,2022.2.5,60.0212422034136,
,,,,,,,,,,,,,,,,,,,,1,0,1,0,1,0,1,0,,,,,,cabinet,w,g,upper,,,,,,,2,w,HiDemNoTar,g,1,0.5337411696091294,,,,,,,,,,,,,,,,,,326,2023-11-10_11h22.50.290,leap3,2022.2.5,60.0212422034136,
,,,,,,,,,,,,,,,,,,,,1,0,1,0,2,0,2,0,,,,,,fomes,nw,h,upper,,,,,,,2,nw,HiDemNoTar,h,1,0.5026710948441178,,,,,,,,,,,,,,,,,,326,2023-11-10_11h22.50.290,leap3,2022.2.5,60.0212422034136,
,,,,,,,,,,,,,,,,,,,,1,0,1,0,3,0,3,0,,,,,,soluced,nw,h,upper,,,,,,,2,nw,HiDemNoTar,h,1,0.4890281113330275,,,,,,,,,,,,,,,,,,326,2023-11-10_11h22.50.290,leap3,2022.2.5,60.0212422034136,
,,,,,,,,,,,,,,,,,,,,1,0,1,0,4,0,4,0,,,,,,sazer,nw,h,upper,,,,,,,2,nw,HiDemNoTar,h,1,0.585365604609251,,,,,,,,,,,,,,,,,,326,2023-11-10_11h22.50.290,leap3,2022.2.5,60.0212422034136,
,,,,,,,,,,,,,,,,,,,,1,0,1,0,5,0,5,0,,,,,,metebing,nw,h,upper,,,,,,,2,nw,HiDemNoTar,h,1,0.45965807093307376,,,,,,,,,,,,,,,,,,326,2023-11-10_11h22.50.290,leap3,2022.2.5,60.0212422034136,
,,,,,,,,,,,,,,,,,,,,1,0,1,0,6,0,6,0,,,,,,acting,w,g,upper,,,,,,,2,w,HiDemNoTar,g,1,0.4084027768112719,,,,,,,,,,,,,,,,,,326,2023-11-10_11h22.50.290,leap3,2022.2.5,60.0212422034136,
,,,,,,,,,,,,,,,,,,,,1,0,1,0,7,0,7,0,,,,,,function,w,g,upper,,,,,,,2,w,HiDemNoTar,g,1,0.4390388212632388,,,,,,,,,,,,,,,,,,326,2023-11-10_11h22.50.290,leap3,2022.2.5,60.0212422034136,
,,,,,,,,,,,,,,,,,,,,1,0,1,0,8,0,8,0,,,,,,demise,w,g,upper,,,,,,,2,w,HiDemNoTar,g,1,0.6285004618111998,,,,,,,,,,,,,,,,,,326,2023-11-10_11h22.50.290,leap3,2022.2.5,60.0212422034136,
,,,,,,,,,,,,,,,,,,,,1,0,1,0,9,0,9,0,,,,,,efcorted,nw,h,upper,,,,,,,2,nw,HiDemNoTar,h,1,0.6905982345342636,,,,,,,,,,,,,,,,,,326,2023-11-10_11h22.50.290,leap3,2022.2.5,60.0212422034136,
,,,,,,,,,,,,,,,,,,,,1,0,1,0,10,0,10,0,,,,,,pegend,nw,h,upper,,,,,,,2,nw,HiDemNoTar,h,1,0.4859081257600337,,,,,,,,,,,,,,,,,,326,2023-11-10_11h22.50.290,leap3,2022.2.5,60.0212422034136,
,,,,,,,,,,,,,,,,,,,,1,0,1,0,11,0,11,0,,,,,,reconcile,w,g,upper,,,,,,,2,w,HiDemNoTar,g,1,0.6012949442956597,,,,,,,,,,,,,,,,,,326,2023-11-10_11h22.50.290,leap3,2022.2.5,60.0212422034136,
,,,,,,,,,,,,,,,,,,,,1,0,1,0,12,0,12,0,,,,,,latpin,nw,h,upper,,,,,,,2,nw,HiDemNoTar,h,1,0.4960000733844936,,,,,,,,,,,,,,,,,,326,2023-11-10_11h22.50.290,leap3,2022.2.5,60.0212422034136,
,,,,,,,,,,,,,,,,,,,,1,0,1,0,13,0,13,0,,,,,,company,w,g,upper,,,,,,,2,w,HiDemNoTar,g,1,0.4904258807655424,,,,,,,,,,,,,,,,,,326,2023-11-10_11h22.50.290,leap3,2022.2.5,60.0212422034136,
,,,,,,,,,,,,,,,,,,,,1,0,1,0,14,0,14,0,,,,,,nopping,nw,h,upper,,,,,,,2,nw,HiDemNoTar,h,1,0.6617387011647224,,,,,,,,,,,,,,,,,,326,2023-11-10_11h22.50.290,leap3,2022.2.5,60.0212422034136,
,,,,,,,,,,,,,,,,,,,,1,0,1,0,15,0,15,0,,,,,,potter,w,g,upper,,,,,,,2,w,HiDemNoTar,g,1,0.37844078661873937,,,,,,,,,,,,,,,,,,326,2023-11-10_11h22.50.290,leap3,2022.2.5,60.0212422034136,
,,,,,,,,,,,,,,,,,,,,1,0,1,0,16,0,16,0,,,,,,computer,w,g,upper,,,,,,,2,w,HiDemNoTar,g,1,0.4744640963617712,,,,,,,,,,,,,,,,,,326,2023-11-10_11h22.50.290,leap3,2022.2.5,60.0212422034136,
,,,,,,,,,,,,,,,,,,,,1,0,1,0,17,0,17,0,,,,,,abraid,nw,h,upper,,,,,,,2,nw,HiDemNoTar,h,1,0.6624889015220106,,,,,,,,,,,,,,,,,,326,2023-11-10_11h22.50.290,leap3,2022.2.5,60.0212422034136,
,,,,,,,,,,,,,,,,,,,,1,0,1,0,18,0,18,0,,,,,,intersect,w,g,upper,,,,,,,2,w,HiDemNoTar,g,1,0.7392089571803808,,,,,,,,,,,,,,,,,,326,2023-11-10_11h22.50.290,leap3,2022.2.5,60.0212422034136,
,,,,,,,,,,,,,,,,,,,,1,0,1,0,19,0,19,0,,,,,,disease,w,g,upper,,,,,,,2,w,HiDemNoTar,g,1,0.5246119680814445,,,,,,,,,,,,,,,,,,326,2023-11-10_11h22.50.290,leap3,2022.2.5,60.0212422034136,
,,,,,,,,,,,,,,,,,,,,1,0,1,0,20,0,20,0,,,,,,delegate,w,g,upper,,,,,,,2,w,HiDemNoTar,g,1,0.574209273327142,,,,,,,,,,,,,,,,,,326,2023-11-10_11h22.50.290,leap3,2022.2.5,60.0212422034136,
,,,,,,,,,,,,,,,,,,,,1,0,1,0,21,0,21,0,,,,,,abstain,w,g,upper,,,,,,,2,w,HiDemNoTar,g,1,0.5346022776793689,,,,,,,,,,,,,,,,,,326,2023-11-10_11h22.50.290,leap3,2022.2.5,60.0212422034136,
,,,,,,,,,,,,,,,,,,,,1,0,1,0,22,0,22,0,,,,,,vintnel,nw,h,upper,,,,,,,2,nw,HiDemNoTar,h,1,0.5361046644393355,,,,,,,,,,,,,,,,,,326,2023-11-10_11h22.50.290,leap3,2022.2.5,60.0212422034136,
,,,,,,,,,,,,,,,,,,,,1,0,1,0,23,0,23,0,,,,,,joses,nw,h,upper,,,,,,,2,nw,HiDemNoTar,h,1,0.4804706643335521,,,,,,,,,,,,,,,,,,326,2023-11-10_11h22.50.290,leap3,2022.2.5,60.0212422034136,
,,,,,,,,,,,,,,,,,,,,1,0,1,0,24,0,24,0,,,,,,serving,w,g,upper,,,,,,,2,w,HiDemNoTar,g,1,0.42041260143741965,,,,,,,,,,,,,,,,,,326,2023-11-10_11h22.50.290,leap3,2022.2.5,60.0212422034136,
,,,,,,,,,,,,,,,,,,,,1,0,1,0,25,0,25,0,,,,,,huntry,nw,h,upper,,,,,,,2,nw,HiDemNoTar,g,0,0.3864695178344846,,,,,,,,,,,,,,,,,,326,2023-11-10_11h22.50.290,leap3,2022.2.5,60.0212422034136,
,,,,,,,,,,,,,,,,,,,,1,0,1,0,26,0,26,0,,,,,,glating,nw,h,upper,,,,,,,2,nw,HiDemNoTar,h,1,0.6578046195209026,,,,,,,,,,,,,,,,,,326,2023-11-10_11h22.50.290,leap3,2022.2.5,60.0212422034136,
,,,,,,,,,,,,,,,,,,,,1,0,1,0,27,0,27,0,,,,,,stretches,w,g,upper,,,,,,,2,w,HiDemNoTar,g,1,0.4945086119696498,,,,,,,,,,,,,,,,,,326,2023-11-10_11h22.50.290,leap3,2022.2.5,60.0212422034136,
,,,,,,,,,,,,,,,,,,,,1,0,1,0,28,0,28,0,,,,,,mestowal,nw,h,upper,,,,,,,2,nw,HiDemNoTar,h,1,0.5778655889444053,,,,,,,,,,,,,,,,,,326,2023-11-10_11h22.50.290,leap3,2022.2.5,60.0212422034136,
,,,,,,,,,,,,,,,,,,,,1,0,1,0,29,0,29,0,,,,,,regional,w,g,upper,,,,,,,2,w,HiDemNoTar,g,1,0.5299573929514736,,,,,,,,,,,,,,,,,,326,2023-11-10_11h22.50.290,leap3,2022.2.5,60.0212422034136,
,,,,,,,,,,,,,,,,,,,,1,0,1,0,,,,,,,,,,,,,,,,,,,,,,,,,,,,,,,,,,,,,,,,,,,326,2023-11-10_11h22.50.290,leap3,2022.2.5,60.0212422034136,
,,,,,,,,,,,,,,,,,,,,2,0,2,0,0,0,0,0,,,,,,axis,w,g,upper,,,,,,,1,w,HiDemTar,g,1,0.5392789449542761,,,,,,,,,,,,,,,,,,326,2023-11-10_11h22.50.290,leap3,2022.2.5,60.0212422034136,
,,,,,,,,,,,,,,,,,,,,2,0,2,0,1,0,1,0,,,,,,slutches,nw,h,upper,,,,,,,1,nw,HiDemTar,h,1,0.5885898764245212,,,,,,,,,,,,,,,,,,326,2023-11-10_11h22.50.290,leap3,2022.2.5,60.0212422034136,
,,,,,,,,,,,,,,,,,,,,2,0,2,0,2,0,2,0,,,,,,oppose,w,g,upper,,,,,,,1,w,HiDemTar,g,1,0.5804028946440667,,,,,,,,,,,,,,,,,,326,2023-11-10_11h22.50.290,leap3,2022.2.5,60.0212422034136,
,,,,,,,,,,,,,,,,,,,,2,0,2,0,3,0,3,0,,,,,,cooray,nw,h,upper,,,,,,,1,nw,HiDemTar,h,1,0.5325662090908736,,,,,,,,,,,,,,,,,,326,2023-11-10_11h22.50.290,leap3,2022.2.5,60.0212422034136,
,,,,,,,,,,,,,,,,,,,,2,0,2,0,4,0,4,0,,,,,,undertake,w,g,upper,,,,,,,1,w,HiDemTar,g,1,0.4548181868158281,,,,,,,,,,,,,,,,,,326,2023-11-10_11h22.50.290,leap3,2022.2.5,60.0212422034136,
,,,,,,,,,,,,,,,,,,,,2,0,2,0,5,0,5,0,,,,,,achieve,w,g,upper,,,,,,,1,w,HiDemTar,g,1,0.45123371318913996,,,,,,,,,,,,,,,,,,326,2023-11-10_11h22.50.290,leap3,2022.2.5,60.0212422034136,
,,,,,,,,,,,,,,,,,,,,2,0,2,0,6,0,6,0,,,,,,dusmy,nw,h,upper,,,,,,,1,nw,HiDemTar,h,1,0.6799087093677372,,,,,,,,,,,,,,,,,,326,2023-11-10_11h22.50.290,leap3,2022.2.5,60.0212422034136,
,,,,,,,,,,,,,,,,,,,,2,0,2,0,7,0,7,0,,,,,,leuter,nw,h,upper,,,,,,,1,nw,HiDemTar,h,1,0.5561432205140591,,,,,,,,,,,,,,,,,,326,2023-11-10_11h22.50.290,leap3,2022.2.5,60.0212422034136,
,,,,,,,,,,,,,,,,,,,,2,0,2,0,8,0,8,0,,,,,,matter,w,g,upper,,,,,,,1,w,HiDemTar,g,1,0.5166057490278035,,,,,,,,,,,,,,,,,,326,2023-11-10_11h22.50.290,leap3,2022.2.5,60.0212422034136,
,,,,,,,,,,,,,,,,,,,,2,0,2,0,9,0,9,0,,,,,,scrooner,nw,h,upper,,,,,,,1,nw,HiDemTar,h,1,0.5020457070786506,,,,,,,,,,,,,,,,,,326,2023-11-10_11h22.50.290,leap3,2022.2.5,60.0212422034136,
,,,,,,,,,,,,,,,,,,,,2,0,2,0,10,0,10,0,,,,,,vibrate,w,g,upper,,,,,,,1,w,HiDemTar,g,1,0.48908174433745444,,,,,,,,,,,,,,,,,,326,2023-11-10_11h22.50.290,leap3,2022.2.5,60.0212422034136,
,,,,,,,,,,,,,,,,,,,,2,0,2,0,11,0,11,0,,,,,,schinter,nw,h,upper,,,,,,,1,nw,HiDemTar,h,1,0.6284945022780448,,,,,,,,,,,,,,,,,,326,2023-11-10_11h22.50.290,leap3,2022.2.5,60.0212422034136,
,,,,,,,,,,,,,,,,,,,,2,0,2,0,12,0,12,0,,,,,,etuip,nw,h,upper,,,,,,,1,nw,HiDemTar,h,1,0.6345073604024947,,,,,,,,,,,,,,,,,,326,2023-11-10_11h22.50.290,leap3,2022.2.5,60.0212422034136,
,,,,,,,,,,,,,,,,,,,,2,0,2,0,13,0,13,0,,,,,,infested,w,g,upper,,,,,,,1,w,HiDemTar,g,1,0.487908439245075,,,,,,,,,,,,,,,,,,326,2023-11-10_11h22.50.290,leap3,2022.2.5,60.0212422034136,
,,,,,,,,,,,,,,,,,,,,2,0,2,0,14,0,14,0,,,,,,terrify,w,g,upper,,,,,,,1,w,HiDemTar,g,1,0.7152621424756944,,,,,,,,,,,,,,,,,,326,2023-11-10_11h22.50.290,leap3,2022.2.5,60.0212422034136,
,,,,,,,,,,,,,,,,,,,,2,0,2,0,15,0,15,0,,,,,,opert,nw,h,upper,,,,,,,1,nw,HiDemTar,h,1,0.6619638274423778,,,,,,,,,,,,,,,,,,326,2023-11-10_11h22.50.290,leap3,2022.2.5,60.0212422034136,
,,,,,,,,,,,,,,,,,,,,2,0,2,0,16,0,16,0,,,,,,fuhrek,nw,h,upper,,,,,,,1,nw,HiDemTar,h,1,0.5786856445483863,,,,,,,,,,,,,,,,,,326,2023-11-10_11h22.50.290,leap3,2022.2.5,60.0212422034136,
,,,,,,,,,,,,,,,,,,,,2,0,2,0,17,0,17,0,,,,,,minimum,w,g,upper,,,,,,,1,w,HiDemTar,g,1,0.5867276187054813,,,,,,,,,,,,,,,,,,326,2023-11-10_11h22.50.290,leap3,2022.2.5,60.0212422034136,
,,,,,,,,,,,,,,,,,,,,2,0,2,0,18,0,18,0,,,,,,olerates,nw,h,upper,,,,,,,1,nw,HiDemTar,h,1,0.8341662278398871,,,,,,,,,,,,,,,,,,326,2023-11-10_11h22.50.290,leap3,2022.2.5,60.0212422034136,
,,,,,,,,,,,,,,,,,,,,2,0,2,0,19,0,19,0,,,,,,distrust,w,g,upper,,,,,,,1,w,HiDemTar,h,0,0.6703931512311101,,,,,,,,,,,,,,,,,,326,2023-11-10_11h22.50.290,leap3,2022.2.5,60.0212422034136,
,,,,,,,,,,,,,,,,,,,,2,0,2,0,20,0,20,0,,,,,,bloodless,w,g,upper,,,,,,,1,w,HiDemTar,h,0,1.0104934053961188,,,,,,,,,,,,,,,,,,326,2023-11-10_11h22.50.290,leap3,2022.2.5,60.0212422034136,
,,,,,,,,,,,,,,,,,,,,2,0,2,0,21,0,21,0,,,,,,antwers,nw,h,upper,,,,,,,1,nw,HiDemTar,h,1,0.5691843223758042,,,,,,,,,,,,,,,,,,326,2023-11-10_11h22.50.290,leap3,2022.2.5,60.0212422034136,
,,,,,,,,,,,,,,,,,,,,2,0,2,0,22,0,22,0,,,,,,attrove,nw,h,upper,,,,,,,1,nw,HiDemTar,h,1,0.5771776295732707,,,,,,,,,,,,,,,,,,326,2023-11-10_11h22.50.290,leap3,2022.2.5,60.0212422034136,
,,,,,,,,,,,,,,,,,,,,2,0,2,0,23,0,23,0,,,,,,porghum,nw,h,upper,,,,,,,1,nw,HiDemTar,h,1,0.4972670709248632,,,,,,,,,,,,,,,,,,326,2023-11-10_11h22.50.290,leap3,2022.2.5,60.0212422034136,
,,,,,,,,,,,,,,,,,,,,2,0,2,0,24,0,24,0,,,,,,unspoken,w,g,upper,,,,,,,1,w,HiDemTar,g,1,0.47659120871685445,,,,,,,,,,,,,,,,,,326,2023-11-10_11h22.50.290,leap3,2022.2.5,60.0212422034136,
,,,,,,,,,,,,,,,,,,,,2,0,2,0,25,0,25,0,,,,,,thesis,w,g,upper,,,,,,,1,w,HiDemTar,g,1,0.486384532880038,,,,,,,,,,,,,,,,,,326,2023-11-10_11h22.50.290,leap3,2022.2.5,60.0212422034136,
,,,,,,,,,,,,,,,,,,,,2,0,2,0,26,0,26,0,,,,,,labitable,nw,h,upper,,,,,,,1,nw,HiDemTar,h,1,0.6590090449899435,,,,,,,,,,,,,,,,,,326,2023-11-10_11h22.50.290,leap3,2022.2.5,60.0212422034136,
,,,,,,,,,,,,,,,,,,,,2,0,2,0,27,0,27,0,,,,,,pariah,w,g,upper,,,,,,,1,w,HiDemTar,h,0,0.6487111733295023,,,,,,,,,,,,,,,,,,326,2023-11-10_11h22.50.290,leap3,2022.2.5,60.0212422034136,
,,,,,,,,,,,,,,,,,,,,2,0,2,0,28,0,28,0,,,,,,entropy,w,g,upper,,,,,,,1,w,HiDemTar,g,1,1.10915267909877,,,,,,,,,,,,,,,,,,326,2023-11-10_11h22.50.290,leap3,2022.2.5,60.0212422034136,
,,,,,,,,,,,,,,,,,,,,2,0,2,0,29,0,29,0,,,,,,kangaroo,target,q,upper,,,,,,,1,target,HiDemTar,g,0,0.5598690605256706,,,,,,,,,,,,,,,,,,326,2023-11-10_11h22.50.290,leap3,2022.2.5,60.0212422034136,
,,,,,,,,,,,,,,,,,,,,2,0,2,0,,,,,,,,,,,,,,,,,,,,,,,,,,,,,,,,,,,,,,,,,,,326,2023-11-10_11h22.50.290,leap3,2022.2.5,60.0212422034136,
,,,,,,,,,,,,,,,,,,,,3,0,3,0,0,0,0,0,,,,,,footstep,w,g,lower,,,,,,,4,w,LoDemTar,g,1,0.808713715756312,,,,,,,,,,,,,,,,,,326,2023-11-10_11h22.50.290,leap3,2022.2.5,60.0212422034136,
,,,,,,,,,,,,,,,,,,,,3,0,3,0,1,0,1,0,,,,,,graveyard,w,g,lower,,,,,,,4,w,LoDemTar,g,1,0.5273350027855486,,,,,,,,,,,,,,,,,,326,2023-11-10_11h22.50.290,leap3,2022.2.5,60.0212422034136,
,,,,,,,,,,,,,,,,,,,,3,0,3,0,2,0,2,0,,,,,,misobeyed,nw,h,lower,,,,,,,4,nw,LoDemTar,g,0,0.6253301538527012,,,,,,,,,,,,,,,,,,326,2023-11-10_11h22.50.290,leap3,2022.2.5,60.0212422034136,
,,,,,,,,,,,,,,,,,,,,3,0,3,0,3,0,3,0,,,,,,outflow,w,g,lower,,,,,,,4,w,LoDemTar,g,1,0.8713882092852145,,,,,,,,,,,,,,,,,,326,2023-11-10_11h22.50.290,leap3,2022.2.5,60.0212422034136,
,,,,,,,,,,,,,,,,,,,,3,0,3,0,4,0,4,0,,,,,,companion,w,g,lower,,,,,,,4,w,LoDemTar,g,1,0.6024434191640466,,,,,,,,,,,,,,,,,,326,2023-11-10_11h22.50.290,leap3,2022.2.5,60.0212422034136,
,,,,,,,,,,,,,,,,,,,,3,0,3,0,5,0,5,0,,,,,,louches,nw,h,lower,,,,,,,4,nw,LoDemTar,h,1,0.7132509043440223,,,,,,,,,,,,,,,,,,326,2023-11-10_11h22.50.290,leap3,2022.2.5,60.0212422034136,
,,,,,,,,,,,,,,,,,,,,3,0,3,0,6,0,6,0,,,,,,crundle,nw,h,lower,,,,,,,4,nw,LoDemTar,h,1,0.6511491583660245,,,,,,,,,,,,,,,,,,326,2023-11-10_11h22.50.290,leap3,2022.2.5,60.0212422034136,
,,,,,,,,,,,,,,,,,,,,3,0,3,0,7,0,7,0,,,,,,explosion,w,g,lower,,,,,,,4,w,LoDemTar,g,1,0.5843462462071329,,,,,,,,,,,,,,,,,,326,2023-11-10_11h22.50.290,leap3,2022.2.5,60.0212422034136,
,,,,,,,,,,,,,,,,,,,,3,0,3,0,8,0,8,0,,,,,,wrecber,nw,h,lower,,,,,,,4,nw,LoDemTar,h,1,0.5917419753968716,,,,,,,,,,,,,,,,,,326,2023-11-10_11h22.50.290,leap3,2022.2.5,60.0212422034136,
,,,,,,,,,,,,,,,,,,,,3,0,3,0,9,0,9,0,,,,,,ladybug,target,q,lower,,,,,,,4,target,LoDemTar,g,0,0.5911520121153444,,,,,,,,,,,,,,,,,,326,2023-11-10_11h22.50.290,leap3,2022.2.5,60.0212422034136,
,,,,,,,,,,,,,,,,,,,,3,0,3,0,10,0,10,0,,,,,,thaken,nw,h,lower,,,,,,,4,aftertar1,LoDemTar,h,1,0.8864756429102272,,,,,,,,,,,,,,,,,,326,2023-11-10_11h22.50.290,leap3,2022.2.5,60.0212422034136,
,,,,,,,,,,,,,,,,,,,,3,0,3,0,11,0,11,0,,,,,,rivet,w,g,lower,,,,,,,4,aftertar2,LoDemTar,h,0,0.5778645956888795,,,,,,,,,,,,,,,,,,326,2023-11-10_11h22.50.290,leap3,2022.2.5,60.0212422034136,
,,,,,,,,,,,,,,,,,,,,3,0,3,0,12,0,12,0,,,,,,probable,w,g,lower,,,,,,,4,aftertar3,LoDemTar,g,1,0.7138743053656071,,,,,,,,,,,,,,,,,,326,2023-11-10_11h22.50.290,leap3,2022.2.5,60.0212422034136,
,,,,,,,,,,,,,,,,,,,,3,0,3,0,13,0,13,0,,,,,,gaining,w,g,lower,,,,,,,4,w,LoDemTar,g,1,0.7395886923186481,,,,,,,,,,,,,,,,,,326,2023-11-10_11h22.50.290,leap3,2022.2.5,60.0212422034136,
,,,,,,,,,,,,,,,,,,,,3,0,3,0,14,0,14,0,,,,,,rawhide,w,g,lower,,,,,,,4,w,LoDemTar,h,0,0.7329862019978464,,,,,,,,,,,,,,,,,,326,2023-11-10_11h22.50.290,leap3,2022.2.5,60.0212422034136,
,,,,,,,,,,,,,,,,,,,,3,0,3,0,15,0,15,0,,,,,,previous,w,g,lower,,,,,,,4,w,LoDemTar,g,1,0.5189692440908402,,,,,,,,,,,,,,,,,,326,2023-11-10_11h22.50.290,leap3,2022.2.5,60.0212422034136,
,,,,,,,,,,,,,,,,,,,,3,0,3,0,16,0,16,0,,,,,,fuestion,nw,h,lower,,,,,,,4,w,LoDemTar,h,1,0.9209812108892947,,,,,,,,,,,,,,,,,,326,2023-11-10_11h22.50.290,leap3,2022.2.5,60.0212422034136,
,,,,,,,,,,,,,,,,,,,,3,0,3,0,17,0,17,0,,,,,,dredigest,nw,h,lower,,,,,,,4,nw,LoDemTar,h,1,0.7778757195919752,,,,,,,,,,,,,,,,,,326,2023-11-10_11h22.50.290,leap3,2022.2.5,60.0212422034136,
,,,,,,,,,,,,,,,,,,,,3,0,3,0,18,0,18,0,,,,,,vinegar,w,g,lower,,,,,,,4,nw,LoDemTar,g,1,0.7706054651644081,,,,,,,,,,,,,,,,,,326,2023-11-10_11h22.50.290,leap3,2022.2.5,60.0212422034136,
,,,,,,,,,,,,,,,,,,,,3,0,3,0,19,0,19,0,,,,,,doads,nw,h,lower,,,,,,,4,w,LoDemTar,h,1,0.6672033104114234,,,,,,,,,,,,,,,,,,326,2023-11-10_11h22.50.290,leap3,2022.2.5,60.0212422034136,
,,,,,,,,,,,,,,,,,,,,3,0,3,0,20,0,20,0,,,,,,glattery,nw,h,lower,,,,,,,4,nw,LoDemTar,h,1,0.5839353906922042,,,,,,,,,,,,,,,,,,326,2023-11-10_11h22.50.290,leap3,2022.2.5,60.0212422034136,
,,,,,,,,,,,,,,,,,,,,3,0,3,0,21,0,21,0,,,,,,digar,nw,h,lower,,,,,,,4,nw,LoDemTar,h,1,0.687929495004937,,,,,,,,,,,,,,,,,,326,2023-11-10_11h22.50.290,leap3,2022.2.5,60.0212422034136,
,,,,,,,,,,,,,,,,,,,,3,0,3,0,22,0,22,0,,,,,,talate,nw,h,lower,,,,,,,4,nw,LoDemTar,h,1,0.6582657971885055,,,,,,,,,,,,,,,,,,326,2023-11-10_11h22.50.290,leap3,2022.2.5,60.0212422034136,
,,,,,,,,,,,,,,,,,,,,3,0,3,0,23,0,23,0,,,,,,guitar,w,g,lower,,,,,,,4,nw,LoDemTar,g,1,0.6710393961984664,,,,,,,,,,,,,,,,,,326,2023-11-10_11h22.50.290,leap3,2022.2.5,60.0212422034136,
,,,,,,,,,,,,,,,,,,,,3,0,3,0,24,0,24,0,,,,,,deceit,w,g,lower,,,,,,,4,w,LoDemTar,g,1,0.9470644076354802,,,,,,,,,,,,,,,,,,326,2023-11-10_11h22.50.290,leap3,2022.2.5,60.0212422034136,
,,,,,,,,,,,,,,,,,,,,3,0,3,0,25,0,25,0,,,,,,dehydrate,w,g,lower,,,,,,,4,w,LoDemTar,g,1,0.6524250945076346,,,,,,,,,,,,,,,,,,326,2023-11-10_11h22.50.290,leap3,2022.2.5,60.0212422034136,
,,,,,,,,,,,,,,,,,,,,3,0,3,0,26,0,26,0,,,,,,carony,nw,h,lower,,,,,,,4,w,LoDemTar,h,1,0.7451102451886982,,,,,,,,,,,,,,,,,,326,2023-11-10_11h22.50.290,leap3,2022.2.5,60.0212422034136,
,,,,,,,,,,,,,,,,,,,,3,0,3,0,27,0,27,0,,,,,,ebince,nw,h,lower,,,,,,,4,nw,LoDemTar,h,1,0.6184803559444845,,,,,,,,,,,,,,,,,,326,2023-11-10_11h22.50.290,leap3,2022.2.5,60.0212422034136,
,,,,,,,,,,,,,,,,,,,,3,0,3,0,28,0,28,0,,,,,,ringlat,nw,h,lower,,,,,,,4,nw,LoDemTar,h,1,0.5125279841013253,,,,,,,,,,,,,,,,,,326,2023-11-10_11h22.50.290,leap3,2022.2.5,60.0212422034136,
,,,,,,,,,,,,,,,,,,,,3,0,3,0,29,0,29,0,,,,,,castaway,w,g,lower,,,,,,,4,nw,LoDemTar,h,0,0.5552552961744368,,,,,,,,,,,,,,,,,,326,2023-11-10_11h22.50.290,leap3,2022.2.5,60.0212422034136,
,,,,,,,,,,,,,,,,,,,,3,0,3,0,,,,,,,,,,,,,,,,,,,,,,,,,,,,,,,,,,,,,,,,,,,326,2023-11-10_11h22.50.290,leap3,2022.2.5,60.0212422034136,
,,,,,,,,,,,,,,,,,,,,4,0,4,0,0,0,0,0,,,,,,ronic,nw,h,upper,,,,,,,1,nw,HiDemTar,h,1,1.1631118059158325,,,,,,,,,,,,,,,,,,326,2023-11-10_11h22.50.290,leap3,2022.2.5,60.0212422034136,
,,,,,,,,,,,,,,,,,,,,4,0,4,0,1,0,1,0,,,,,,educate,w,g,upper,,,,,,,1,w,HiDemTar,g,1,0.5957767020445317,,,,,,,,,,,,,,,,,,326,2023-11-10_11h22.50.290,leap3,2022.2.5,60.0212422034136,
,,,,,,,,,,,,,,,,,,,,4,0,4,0,2,0,2,0,,,,,,guivers,nw,h,upper,,,,,,,1,nw,HiDemTar,h,1,0.683437232626602,,,,,,,,,,,,,,,,,,326,2023-11-10_11h22.50.290,leap3,2022.2.5,60.0212422034136,
,,,,,,,,,,,,,,,,,,,,4,0,4,0,3,0,3,0,,,,,,baults,nw,h,upper,,,,,,,1,nw,HiDemTar,h,1,0.5672340004239231,,,,,,,,,,,,,,,,,,326,2023-11-10_11h22.50.290,leap3,2022.2.5,60.0212422034136,
,,,,,,,,,,,,,,,,,,,,4,0,4,0,4,0,4,0,,,,,,garment,w,g,upper,,,,,,,1,w,HiDemTar,g,1,0.71927634277381,,,,,,,,,,,,,,,,,,326,2023-11-10_11h22.50.290,leap3,2022.2.5,60.0212422034136,
,,,,,,,,,,,,,,,,,,,,4,0,4,0,5,0,5,0,,,,,,unsmilung,nw,h,upper,,,,,,,1,nw,HiDemTar,h,1,0.8812421190086752,,,,,,,,,,,,,,,,,,326,2023-11-10_11h22.50.290,leap3,2022.2.5,60.0212422034136,
,,,,,,,,,,,,,,,,,,,,4,0,4,0,6,0,6,0,,,,,,mebase,nw,h,upper,,,,,,,1,nw,HiDemTar,h,1,0.6683395360596478,,,,,,,,,,,,,,,,,,326,2023-11-10_11h22.50.290,leap3,2022.2.5,60.0212422034136,
,,,,,,,,,,,,,,,,,,,,4,0,4,0,7,0,7,0,,,,,,cavern,w,g,upper,,,,,,,1,w,HiDemTar,g,1,0.6562982597388327,,,,,,,,,,,,,,,,,,326,2023-11-10_11h22.50.290,leap3,2022.2.5,60.0212422034136,
,,,,,,,,,,,,,,,,,,,,4,0,4,0,8,0,8,0,,,,,,flooted,nw,h,upper,,,,,,,1,nw,HiDemTar,h,1,0.7810125895775855,,,,,,,,,,,,,,,,,,326,2023-11-10_11h22.50.290,leap3,2022.2.5,60.0212422034136,
,,,,,,,,,,,,,,,,,,,,4,0,4,0,9,0,9,0,,,,,,spigat,nw,h,upper,,,,,,,1,nw,HiDemTar,h,1,0.5970539622940123,,,,,,,,,,,,,,,,,,326,2023-11-10_11h22.50.290,leap3,2022.2.5,60.0212422034136,
,,,,,,,,,,,,,,,,,,,,4,0,4,0,10,0,10,0,,,,,,quickel,nw,h,upper,,,,,,,1,nw,HiDemTar,h,1,0.5695273091550916,,,,,,,,,,,,,,,,,,326,2023-11-10_11h22.50.290,leap3,2022.2.5,60.0212422034136,
,,,,,,,,,,,,,,,,,,,,4,0,4,0,11,0,11,0,,,,,,chonemic,nw,h,upper,,,,,,,1,nw,HiDemTar,h,1,0.7233282846864313,,,,,,,,,,,,,,,,,,326,2023-11-10_11h22.50.290,leap3,2022.2.5,60.0212422034136,
,,,,,,,,,,,,,,,,,,,,4,0,4,0,12,0,12,0,,,,,,cervical,w,g,upper,,,,,,,1,w,HiDemTar,g,1,0.7727339016273618,,,,,,,,,,,,,,,,,,326,2023-11-10_11h22.50.290,leap3,2022.2.5,60.0212422034136,
,,,,,,,,,,,,,,,,,,,,4,0,4,0,13,0,13,0,,,,,,target,w,g,upper,,,,,,,1,w,HiDemTar,g,1,0.6059577066916972,,,,,,,,,,,,,,,,,,326,2023-11-10_11h22.50.290,leap3,2022.2.5,60.0212422034136,
,,,,,,,,,,,,,,,,,,,,4,0,4,0,14,0,14,0,,,,,,virulent,w,g,upper,,,,,,,1,w,HiDemTar,g,1,0.8686837144196033,,,,,,,,,,,,,,,,,,326,2023-11-10_11h22.50.290,leap3,2022.2.5,60.0212422034136,
,,,,,,,,,,,,,,,,,,,,4,0,4,0,15,0,15,0,,,,,,butler,w,g,upper,,,,,,,1,w,HiDemTar,g,1,0.6237526147160679,,,,,,,,,,,,,,,,,,326,2023-11-10_11h22.50.290,leap3,2022.2.5,60.0212422034136,
,,,,,,,,,,,,,,,,,,,,4,0,4,0,16,0,16,0,,,,,,dorte,nw,h,upper,,,,,,,1,nw,HiDemTar,h,1,0.7657367782667279,,,,,,,,,,,,,,,,,,326,2023-11-10_11h22.50.290,leap3,2022.2.5,60.0212422034136,
,,,,,,,,,,,,,,,,,,,,4,0,4,0,17,0,17,0,,,,,,ganter,nw,h,upper,,,,,,,1,nw,HiDemTar,h,1,0.8303688773885369,,,,,,,,,,,,,,,,,,326,2023-11-10_11h22.50.290,leap3,2022.2.5,60.0212422034136,
,,,,,,,,,,,,,,,,,,,,4,0,4,0,18,0,18,0,,,,,,glamorous,w,g,upper,,,,,,,1,w,HiDemTar,g,1,0.6203561874572188,,,,,,,,,,,,,,,,,,326,2023-11-10_11h22.50.290,leap3,2022.2.5,60.0212422034136,
,,,,,,,,,,,,,,,,,,,,4,0,4,0,19,0,19,0,,,,,,expounded,w,g,upper,,,,,,,1,w,HiDemTar,g,1,0.6983402608893812,,,,,,,,,,,,,,,,,,326,2023-11-10_11h22.50.290,leap3,2022.2.5,60.0212422034136,
,,,,,,,,,,,,,,,,,,,,4,0,4,0,20,0,20,0,,,,,,crocodile,target,q,upper,,,,,,,1,target,HiDemTar,q,1,0.7896971667651087,q,,,,,,,,,,,,,,,,,326,2023-11-10_11h22.50.290,leap3,2022.2.5,60.0212422034136,
,,,,,,,,,,,,,,,,,,,,4,0,4,0,21,0,21,0,,,,,,enunciate,w,g,upper,,,,,,,1,aftertar1,HiDemTar,g,1,0.8290648001711816,,,,,,,,,,,,,,,,,,326,2023-11-10_11h22.50.290,leap3,2022.2.5,60.0212422034136,
,,,,,,,,,,,,,,,,,,,,4,0,4,0,22,0,22,0,,,,,,exemplify,w,g,upper,,,,,,,1,aftertar2,HiDemTar,g,1,0.5070418552495539,,,,,,,,,,,,,,,,,,326,2023-11-10_11h22.50.290,leap3,2022.2.5,60.0212422034136,
,,,,,,,,,,,,,,,,,,,,4,0,4,0,23,0,23,0,,,,,,mandlers,nw,h,upper,,,,,,,1,aftertar3,HiDemTar,h,1,0.6537831358145922,,,,,,,,,,,,,,,,,,326,2023-11-10_11h22.50.290,leap3,2022.2.5,60.0212422034136,
,,,,,,,,,,,,,,,,,,,,4,0,4,0,24,0,24,0,,,,,,batire,nw,h,upper,,,,,,,1,nw,HiDemTar,h,1,0.7056022388860583,,,,,,,,,,,,,,,,,,326,2023-11-10_11h22.50.290,leap3,2022.2.5,60.0212422034136,
,,,,,,,,,,,,,,,,,,,,4,0,4,0,25,0,25,0,,,,,,trallion,nw,h,upper,,,,,,,1,nw,HiDemTar,h,1,0.5401814365759492,,,,,,,,,,,,,,,,,,326,2023-11-10_11h22.50.290,leap3,2022.2.5,60.0212422034136,
,,,,,,,,,,,,,,,,,,,,4,0,4,0,26,0,26,0,,,,,,unrealon,nw,h,upper,,,,,,,1,nw,HiDemTar,h,1,0.6216341101098806,,,,,,,,,,,,,,,,,,326,2023-11-10_11h22.50.290,leap3,2022.2.5,60.0212422034136,
,,,,,,,,,,,,,,,,,,,,4,0,4,0,27,0,27,0,,,,,,populace,w,g,upper,,,,,,,1,nw,HiDemTar,h,0,0.8197018643841147,,,,,,,,,,,,,,,,,,326,2023-11-10_11h22.50.290,leap3,2022.2.5,60.0212422034136,
,,,,,,,,,,,,,,,,,,,,4,0,4,0,28,0,28,0,,,,,,befriend,w,g,upper,,,,,,,1,w,HiDemTar,g,1,0.6897268635220826,,,,,,,,,,,,,,,,,,326,2023-11-10_11h22.50.290,leap3,2022.2.5,60.0212422034136,
,,,,,,,,,,,,,,,,,,,,4,0,4,0,29,0,29,0,,,,,,arrive,w,g,upper,,,,,,,1,w,HiDemTar,g,1,0.5251628651749343,,,,,,,,,,,,,,,,,,326,2023-11-10_11h22.50.290,leap3,2022.2.5,60.0212422034136,
,,,,,,,,,,,,,,,,,,,,4,0,4,0,,,,,,,,,,,,,,,,,,,,,,,,,,,,,,,,,,,,,,,,,,,326,2023-11-10_11h22.50.290,leap3,2022.2.5,60.0212422034136,
,,,,,,,,,,,,,,,,,,,,5,0,5,0,0,0,0,0,,,,,,spaceship,w,g,lower,,,,,,,3,w,LoDemNoTar,g,1,0.8621580319013447,,,,,,,,,,,,,,,,,,326,2023-11-10_11h22.50.290,leap3,2022.2.5,60.0212422034136,
,,,,,,,,,,,,,,,,,,,,5,0,5,0,1,0,1,0,,,,,,cassette,w,g,lower,,,,,,,3,w,LoDemNoTar,g,1,0.8188195680268109,,,,,,,,,,,,,,,,,,326,2023-11-10_11h22.50.290,leap3,2022.2.5,60.0212422034136,
,,,,,,,,,,,,,,,,,,,,5,0,5,0,2,0,2,0,,,,,,compose,w,g,lower,,,,,,,3,w,LoDemNoTar,g,1,0.4969326921273023,,,,,,,,,,,,,,,,,,326,2023-11-10_11h22.50.290,leap3,2022.2.5,60.0212422034136,
,,,,,,,,,,,,,,,,,,,,5,0,5,0,3,0,3,0,,,,,,reforest,w,g,lower,,,,,,,3,w,LoDemNoTar,h,0,0.7799088086467236,,,,,,,,,,,,,,,,,,326,2023-11-10_11h22.50.290,leap3,2022.2.5,60.0212422034136,
,,,,,,,,,,,,,,,,,,,,5,0,5,0,4,0,4,0,,,,,,rascaps,nw,h,lower,,,,,,,3,nw,LoDemNoTar,h,1,0.5629665332380682,,,,,,,,,,,,,,,,,,326,2023-11-10_11h22.50.290,leap3,2022.2.5,60.0212422034136,
,,,,,,,,,,,,,,,,,,,,5,0,5,0,5,0,5,0,,,,,,intended,w,g,lower,,,,,,,3,w,LoDemNoTar,g,1,0.5803088711109012,,,,,,,,,,,,,,,,,,326,2023-11-10_11h22.50.290,leap3,2022.2.5,60.0212422034136,
,,,,,,,,,,,,,,,,,,,,5,0,5,0,6,0,6,0,,,,,,patio,w,g,lower,,,,,,,3,w,LoDemNoTar,g,1,0.5411756336688995,,,,,,,,,,,,,,,,,,326,2023-11-10_11h22.50.290,leap3,2022.2.5,60.0212422034136,
,,,,,,,,,,,,,,,,,,,,5,0,5,0,7,0,7,0,,,,,,godomy,nw,h,lower,,,,,,,3,nw,LoDemNoTar,h,1,0.5987705504521728,,,,,,,,,,,,,,,,,,326,2023-11-10_11h22.50.290,leap3,2022.2.5,60.0212422034136,
,,,,,,,,,,,,,,,,,,,,5,0,5,0,8,0,8,0,,,,,,rainfall,w,g,lower,,,,,,,3,w,LoDemNoTar,g,1,0.605888182297349,,,,,,,,,,,,,,,,,,326,2023-11-10_11h22.50.290,leap3,2022.2.5,60.0212422034136,
,,,,,,,,,,,,,,,,,,,,5,0,5,0,9,0,9,0,,,,,,uncle,w,g,lower,,,,,,,3,w,LoDemNoTar,g,1,0.5316481573972851,,,,,,,,,,,,,,,,,,326,2023-11-10_11h22.50.290,leap3,2022.2.5,60.0212422034136,
,,,,,,,,,,,,,,,,,,,,5,0,5,0,10,0,10,0,,,,,,mitro,nw,h,lower,,,,,,,3,nw,LoDemNoTar,h,1,0.7015973087400198,,,,,,,,,,,,,,,,,,326,2023-11-10_11h22.50.290,leap3,2022.2.5,60.0212422034136,
,,,,,,,,,,,,,,,,,,,,5,0,5,0,11,0,11,0,,,,,,picnic,w,g,lower,,,,,,,3,w,LoDemNoTar,g,1,0.584355846978724,,,,,,,,,,,,,,,,,,326,2023-11-10_11h22.50.290,leap3,2022.2.5,60.0212422034136,
,,,,,,,,,,,,,,,,,,,,5,0,5,0,12,0,12,0,,,,,,saturate,w,g,lower,,,,,,,3,w,LoDemNoTar,g,1,0.639713405398652,,,,,,,,,,,,,,,,,,326,2023-11-10_11h22.50.290,leap3,2022.2.5,60.0212422034136,
,,,,,,,,,,,,,,,,,,,,5,0,5,0,13,0,13,0,,,,,,unburnid,nw,h,lower,,,,,,,3,nw,LoDemNoTar,h,1,0.5805584965273738,,,,,,,,,,,,,,,,,,326,2023-11-10_11h22.50.290,leap3,2022.2.5,60.0212422034136,
,,,,,,,,,,,,,,,,,,,,5,0,5,0,14,0,14,0,,,,,,scatter,w,g,lower,,,,,,,3,w,LoDemNoTar,g,1,0.6051234153565019,,,,,,,,,,,,,,,,,,326,2023-11-10_11h22.50.290,leap3,2022.2.5,60.0212422034136,
,,,,,,,,,,,,,,,,,,,,5,0,5,0,15,0,15,0,,,,,,derisury,nw,h,lower,,,,,,,3,nw,LoDemNoTar,h,1,0.5559154457878321,,,,,,,,,,,,,,,,,,326,2023-11-10_11h22.50.290,leap3,2022.2.5,60.0212422034136,
,,,,,,,,,,,,,,,,,,,,5,0,5,0,16,0,16,0,,,,,,collute,nw,h,lower,,,,,,,3,nw,LoDemNoTar,g,0,0.5485064738895744,,,,,,,,,,,,,,,,,,326,2023-11-10_11h22.50.290,leap3,2022.2.5,60.0212422034136,
,,,,,,,,,,,,,,,,,,,,5,0,5,0,17,0,17,0,,,,,,gunrunker,nw,h,lower,,,,,,,3,nw,LoDemNoTar,h,1,0.5979912159964442,,,,,,,,,,,,,,,,,,326,2023-11-10_11h22.50.290,leap3,2022.2.5,60.0212422034136,
,,,,,,,,,,,,,,,,,,,,5,0,5,0,18,0,18,0,,,,,,gewer,nw,h,lower,,,,,,,3,nw,LoDemNoTar,h,1,0.5972986216656864,,,,,,,,,,,,,,,,,,326,2023-11-10_11h22.50.290,leap3,2022.2.5,60.0212422034136,
,,,,,,,,,,,,,,,,,,,,5,0,5,0,19,0,19,0,,,,,,eugenifs,nw,h,lower,,,,,,,3,nw,LoDemNoTar,h,1,0.5556979340035468,,,,,,,,,,,,,,,,,,326,2023-11-10_11h22.50.290,leap3,2022.2.5,60.0212422034136,
,,,,,,,,,,,,,,,,,,,,5,0,5,0,20,0,20,0,,,,,,organize,w,g,lower,,,,,,,3,w,LoDemNoTar,g,1,0.588437254074961,,,,,,,,,,,,,,,,,,326,2023-11-10_11h22.50.290,leap3,2022.2.5,60.0212422034136,
,,,,,,,,,,,,,,,,,,,,5,0,5,0,21,0,21,0,,,,,,ucility,nw,h,lower,,,,,,,3,nw,LoDemNoTar,h,1,0.6518046732526273,,,,,,,,,,,,,,,,,,326,2023-11-10_11h22.50.290,leap3,2022.2.5,60.0212422034136,
,,,,,,,,,,,,,,,,,,,,5,0,5,0,22,0,22,0,,,,,,nelvet,nw,h,lower,,,,,,,3,nw,LoDemNoTar,h,1,0.5604080392513424,,,,,,,,,,,,,,,,,,326,2023-11-10_11h22.50.290,leap3,2022.2.5,60.0212422034136,
,,,,,,,,,,,,,,,,,,,,5,0,5,0,23,0,23,0,,,,,,nimp,nw,h,lower,,,,,,,3,nw,LoDemNoTar,h,1,0.553151027765125,,,,,,,,,,,,,,,,,,326,2023-11-10_11h22.50.290,leap3,2022.2.5,60.0212422034136,
,,,,,,,,,,,,,,,,,,,,5,0,5,0,24,0,24,0,,,,,,reborn,w,g,lower,,,,,,,3,w,LoDemNoTar,g,1,0.6097967717796564,,,,,,,,,,,,,,,,,,326,2023-11-10_11h22.50.290,leap3,2022.2.5,60.0212422034136,
,,,,,,,,,,,,,,,,,,,,5,0,5,0,25,0,25,0,,,,,,illness,w,g,lower,,,,,,,3,w,LoDemNoTar,g,1,0.5204732862766832,,,,,,,,,,,,,,,,,,326,2023-11-10_11h22.50.290,leap3,2022.2.5,60.0212422034136,
,,,,,,,,,,,,,,,,,,,,5,0,5,0,26,0,26,0,,,,,,destroy,w,g,lower,,,,,,,3,w,LoDemNoTar,g,1,0.4905556591693312,,,,,,,,,,,,,,,,,,326,2023-11-10_11h22.50.290,leap3,2022.2.5,60.0212422034136,
,,,,,,,,,,,,,,,,,,,,5,0,5,0,27,0,27,0,,,,,,chraps,nw,h,lower,,,,,,,3,nw,LoDemNoTar,h,1,0.573914622887969,,,,,,,,,,,,,,,,,,326,2023-11-10_11h22.50.290,leap3,2022.2.5,60.0212422034136,
,,,,,,,,,,,,,,,,,,,,5,0,5,0,28,0,28,0,,,,,,chining,nw,h,lower,,,,,,,3,nw,LoDemNoTar,h,1,1.0370205640792847,,,,,,,,,,,,,,,,,,326,2023-11-10_11h22.50.290,leap3,2022.2.5,60.0212422034136,
,,,,,,,,,,,,,,,,,,,,5,0,5,0,29,0,29,0,,,,,,inforl,nw,h,lower,,,,,,,3,nw,LoDemNoTar,h,1,0.522247479762882,,,,,,,,,,,,,,,,,,326,2023-11-10_11h22.50.290,leap3,2022.2.5,60.0212422034136,
,,,,,,,,,,,,,,,,,,,,5,0,5,0,,,,,,,,,,,,,,,,,,,,,,,,,,,,,,,,,,,,,,,,,,,326,2023-11-10_11h22.50.290,leap3,2022.2.5,60.0212422034136,
,,,,,,,,,,,,,,,,,,,,6,0,6,0,0,0,0,0,,,,,,inversion,w,g,lower,,,,,,,3,w,LoDemNoTar,g,1,0.6925065109971911,,,,,,,,,,,,,,,,,,326,2023-11-10_11h22.50.290,leap3,2022.2.5,60.0212422034136,
,,,,,,,,,,,,,,,,,,,,6,0,6,0,1,0,1,0,,,,,,geborn,nw,h,lower,,,,,,,3,nw,LoDemNoTar,h,1,0.6399782600346953,,,,,,,,,,,,,,,,,,326,2023-11-10_11h22.50.290,leap3,2022.2.5,60.0212422034136,
,,,,,,,,,,,,,,,,,,,,6,0,6,0,2,0,2,0,,,,,,sweeping,w,g,lower,,,,,,,3,w,LoDemNoTar,g,1,0.6133779350202531,,,,,,,,,,,,,,,,,,326,2023-11-10_11h22.50.290,leap3,2022.2.5,60.0212422034136,
,,,,,,,,,,,,,,,,,,,,6,0,6,0,3,0,3,0,,,,,,system,w,g,lower,,,,,,,3,w,LoDemNoTar,g,1,0.5240117416251451,,,,,,,,,,,,,,,,,,326,2023-11-10_11h22.50.290,leap3,2022.2.5,60.0212422034136,
,,,,,,,,,,,,,,,,,,,,6,0,6,0,4,0,4,0,,,,,,forecast,w,g,lower,,,,,,,3,w,LoDemNoTar,g,1,0.5090669984929264,,,,,,,,,,,,,,,,,,326,2023-11-10_11h22.50.290,leap3,2022.2.5,60.0212422034136,
,,,,,,,,,,,,,,,,,,,,6,0,6,0,5,0,5,0,,,,,,mullet,w,g,lower,,,,,,,3,w,LoDemNoTar,g,1,0.98387685790658,,,,,,,,,,,,,,,,,,326,2023-11-10_11h22.50.290,leap3,2022.2.5,60.0212422034136,
,,,,,,,,,,,,,,,,,,,,6,0,6,0,6,0,6,0,,,,,,trewl,nw,h,lower,,,,,,,3,nw,LoDemNoTar,h,1,0.5750578006263822,,,,,,,,,,,,,,,,,,326,2023-11-10_11h22.50.290,leap3,2022.2.5,60.0212422034136,
,,,,,,,,,,,,,,,,,,,,6,0,6,0,7,0,7,0,,,,,,dentures,w,g,lower,,,,,,,3,w,LoDemNoTar,h,0,0.6311589381657541,,,,,,,,,,,,,,,,,,326,2023-11-10_11h22.50.290,leap3,2022.2.5,60.0212422034136,
,,,,,,,,,,,,,,,,,,,,6,0,6,0,8,0,8,0,,,,,,ghists,nw,h,lower,,,,,,,3,nw,LoDemNoTar,h,1,0.5571599304676056,,,,,,,,,,,,,,,,,,326,2023-11-10_11h22.50.290,leap3,2022.2.5,60.0212422034136,
,,,,,,,,,,,,,,,,,,,,6,0,6,0,9,0,9,0,,,,,,budget,w,g,lower,,,,,,,3,w,LoDemNoTar,g,1,0.5818711812607944,,,,,,,,,,,,,,,,,,326,2023-11-10_11h22.50.290,leap3,2022.2.5,60.0212422034136,
,,,,,,,,,,,,,,,,,,,,6,0,6,0,10,0,10,0,,,,,,upstairs,w,g,lower,,,,,,,3,w,LoDemNoTar,g,1,0.5499294043984264,,,,,,,,,,,,,,,,,,326,2023-11-10_11h22.50.290,leap3,2022.2.5,60.0212422034136,
,,,,,,,,,,,,,,,,,,,,6,0,6,0,11,0,11,0,,,,,,knowledge,w,g,lower,,,,,,,3,w,LoDemNoTar,g,1,0.6872729870956391,,,,,,,,,,,,,,,,,,326,2023-11-10_11h22.50.290,leap3,2022.2.5,60.0212422034136,
,,,,,,,,,,,,,,,,,,,,6,0,6,0,12,0,12,0,,,,,,reses,nw,h,lower,,,,,,,3,nw,LoDemNoTar,h,1,0.7146440385840833,,,,,,,,,,,,,,,,,,326,2023-11-10_11h22.50.290,leap3,2022.2.5,60.0212422034136,
,,,,,,,,,,,,,,,,,,,,6,0,6,0,13,0,13,0,,,,,,baladroit,nw,h,lower,,,,,,,3,nw,LoDemNoTar,h,1,0.876458847662434,,,,,,,,,,,,,,,,,,326,2023-11-10_11h22.50.290,leap3,2022.2.5,60.0212422034136,
,,,,,,,,,,,,,,,,,,,,6,0,6,0,14,0,14,0,,,,,,chyme,nw,h,lower,,,,,,,3,nw,LoDemNoTar,h,1,0.5923925242386758,,,,,,,,,,,,,,,,,,326,2023-11-10_11h22.50.290,leap3,2022.2.5,60.0212422034136,
,,,,,,,,,,,,,,,,,,,,6,0,6,0,15,0,15,0,,,,,,maroon,w,g,lower,,,,,,,3,w,LoDemNoTar,g,1,0.7517945091240108,,,,,,,,,,,,,,,,,,326,2023-11-10_11h22.50.290,leap3,2022.2.5,60.0212422034136,
,,,,,,,,,,,,,,,,,,,,6,0,6,0,16,0,16,0,,,,,,gounts,nw,h,lower,,,,,,,3,nw,LoDemNoTar,h,1,0.5045035565271974,,,,,,,,,,,,,,,,,,326,2023-11-10_11h22.50.290,leap3,2022.2.5,60.0212422034136,
,,,,,,,,,,,,,,,,,,,,6,0,6,0,17,0,17,0,,,,,,filny,nw,h,lower,,,,,,,3,nw,LoDemNoTar,h,1,0.4992438782937825,,,,,,,,,,,,,,,,,,326,2023-11-10_11h22.50.290,leap3,2022.2.5,60.0212422034136,
,,,,,,,,,,,,,,,,,,,,6,0,6,0,18,0,18,0,,,,,,shazer,nw,h,lower,,,,,,,3,nw,LoDemNoTar,h,1,0.6225018394179642,,,,,,,,,,,,,,,,,,326,2023-11-10_11h22.50.290,leap3,2022.2.5,60.0212422034136,
,,,,,,,,,,,,,,,,,,,,6,0,6,0,19,0,19,0,,,,,,mustled,nw,h,lower,,,,,,,3,nw,LoDemNoTar,h,1,0.7565287824254483,,,,,,,,,,,,,,,,,,326,2023-11-10_11h22.50.290,leap3,2022.2.5,60.0212422034136,
,,,,,,,,,,,,,,,,,,,,6,0,6,0,20,0,20,0,,,,,,infancy,w,g,lower,,,,,,,3,w,LoDemNoTar,g,1,0.6373449447564781,,,,,,,,,,,,,,,,,,326,2023-11-10_11h22.50.290,leap3,2022.2.5,60.0212422034136,
,,,,,,,,,,,,,,,,,,,,6,0,6,0,21,0,21,0,,,,,,thacked,nw,h,lower,,,,,,,3,nw,LoDemNoTar,h,1,0.6106747642625123,,,,,,,,,,,,,,,,,,326,2023-11-10_11h22.50.290,leap3,2022.2.5,60.0212422034136,
,,,,,,,,,,,,,,,,,,,,6,0,6,0,22,0,22,0,,,,,,imotope,nw,h,lower,,,,,,,3,nw,LoDemNoTar,h,1,0.5933049477171153,,,,,,,,,,,,,,,,,,326,2023-11-10_11h22.50.290,leap3,2022.2.5,60.0212422034136,
,,,,,,,,,,,,,,,,,,,,6,0,6,0,23,0,23,0,,,,,,peags,nw,h,lower,,,,,,,3,nw,LoDemNoTar,h,1,0.5517221379559487,,,,,,,,,,,,,,,,,,326,2023-11-10_11h22.50.290,leap3,2022.2.5,60.0212422034136,
,,,,,,,,,,,,,,,,,,,,6,0,6,0,24,0,24,0,,,,,,helpful,w,g,lower,,,,,,,3,w,LoDemNoTar,g,1,0.5598200624808669,,,,,,,,,,,,,,,,,,326,2023-11-10_11h22.50.290,leap3,2022.2.5,60.0212422034136,
,,,,,,,,,,,,,,,,,,,,6,0,6,0,25,0,25,0,,,,,,haurded,nw,h,lower,,,,,,,3,nw,LoDemNoTar,h,1,0.6008503197226673,,,,,,,,,,,,,,,,,,326,2023-11-10_11h22.50.290,leap3,2022.2.5,60.0212422034136,
,,,,,,,,,,,,,,,,,,,,6,0,6,0,26,0,26,0,,,,,,endgume,nw,h,lower,,,,,,,3,nw,LoDemNoTar,h,1,0.5765145001932979,,,,,,,,,,,,,,,,,,326,2023-11-10_11h22.50.290,leap3,2022.2.5,60.0212422034136,
,,,,,,,,,,,,,,,,,,,,6,0,6,0,27,0,27,0,,,,,,whirling,w,g,lower,,,,,,,3,w,LoDemNoTar,g,1,0.6245349284727126,,,,,,,,,,,,,,,,,,326,2023-11-10_11h22.50.290,leap3,2022.2.5,60.0212422034136,
,,,,,,,,,,,,,,,,,,,,6,0,6,0,28,0,28,0,,,,,,binder,w,g,lower,,,,,,,3,w,LoDemNoTar,g,1,0.66253955475986,,,,,,,,,,,,,,,,,,326,2023-11-10_11h22.50.290,leap3,2022.2.5,60.0212422034136,
,,,,,,,,,,,,,,,,,,,,6,0,6,0,29,0,29,0,,,,,,standard,w,g,lower,,,,,,,3,w,LoDemNoTar,g,1,0.6753346731420606,,,,,,,,,,,,,,,,,,326,2023-11-10_11h22.50.290,leap3,2022.2.5,60.0212422034136,
,,,,,,,,,,,,,,,,,,,,6,0,6,0,,,,,,,,,,,,,,,,,,,,,,,,,,,,,,,,,,,,,,,,,,,326,2023-11-10_11h22.50.290,leap3,2022.2.5,60.0212422034136,
,,,,,,,,,,,,,,,,,,,,7,0,7,0,0,0,0,0,,,,,,potent,w,g,lower,,,,,,,3,w,LoDemNoTar,g,1,0.6865237799938768,,,,,,,,,,,,,,,,,,326,2023-11-10_11h22.50.290,leap3,2022.2.5,60.0212422034136,
,,,,,,,,,,,,,,,,,,,,7,0,7,0,1,0,1,0,,,,,,brials,nw,h,lower,,,,,,,3,nw,LoDemNoTar,h,1,0.7213091007433832,,,,,,,,,,,,,,,,,,326,2023-11-10_11h22.50.290,leap3,2022.2.5,60.0212422034136,
,,,,,,,,,,,,,,,,,,,,7,0,7,0,2,0,2,0,,,,,,cripet,nw,h,lower,,,,,,,3,nw,LoDemNoTar,h,1,1.6033475662115961,,,,,,,,,,,,,,,,,,326,2023-11-10_11h22.50.290,leap3,2022.2.5,60.0212422034136,
,,,,,,,,,,,,,,,,,,,,7,0,7,0,3,0,3,0,,,,,,widely,w,g,lower,,,,,,,3,w,LoDemNoTar,g,1,0.7453757617622614,,,,,,,,,,,,,,,,,,326,2023-11-10_11h22.50.290,leap3,2022.2.5,60.0212422034136,
,,,,,,,,,,,,,,,,,,,,7,0,7,0,4,0,4,0,,,,,,bingu,nw,h,lower,,,,,,,3,nw,LoDemNoTar,h,1,0.793897096067667,,,,,,,,,,,,,,,,,,326,2023-11-10_11h22.50.290,leap3,2022.2.5,60.0212422034136,
,,,,,,,,,,,,,,,,,,,,7,0,7,0,5,0,5,0,,,,,,nomma,nw,h,lower,,,,,,,3,nw,LoDemNoTar,h,1,0.5204832183662802,,,,,,,,,,,,,,,,,,326,2023-11-10_11h22.50.290,leap3,2022.2.5,60.0212422034136,
,,,,,,,,,,,,,,,,,,,,7,0,7,0,6,0,6,0,,,,,,crudios,nw,h,lower,,,,,,,3,nw,LoDemNoTar,h,1,0.506104601547122,,,,,,,,,,,,,,,,,,326,2023-11-10_11h22.50.290,leap3,2022.2.5,60.0212422034136,
,,,,,,,,,,,,,,,,,,,,7,0,7,0,7,0,7,0,,,,,,snocks,nw,h,lower,,,,,,,3,nw,LoDemNoTar,h,1,0.6118712441530079,,,,,,,,,,,,,,,,,,326,2023-11-10_11h22.50.290,leap3,2022.2.5,60.0212422034136,
,,,,,,,,,,,,,,,,,,,,7,0,7,0,8,0,8,0,,,,,,entitle,w,g,lower,,,,,,,3,w,LoDemNoTar,g,1,0.6178311314433813,,,,,,,,,,,,,,,,,,326,2023-11-10_11h22.50.290,leap3,2022.2.5,60.0212422034136,
,,,,,,,,,,,,,,,,,,,,7,0,7,0,9,0,9,0,,,,,,cherry,w,g,lower,,,,,,,3,w,LoDemNoTar,g,1,0.703851219965145,,,,,,,,,,,,,,,,,,326,2023-11-10_11h22.50.290,leap3,2022.2.5,60.0212422034136,
,,,,,,,,,,,,,,,,,,,,7,0,7,0,10,0,10,0,,,,,,sampling,w,g,lower,,,,,,,3,w,LoDemNoTar,g,1,0.6178748323582113,,,,,,,,,,,,,,,,,,326,2023-11-10_11h22.50.290,leap3,2022.2.5,60.0212422034136,
,,,,,,,,,,,,,,,,,,,,7,0,7,0,11,0,11,0,,,,,,asthmatic,w,g,lower,,,,,,,3,w,LoDemNoTar,g,1,0.584077418781817,,,,,,,,,,,,,,,,,,326,2023-11-10_11h22.50.290,leap3,2022.2.5,60.0212422034136,
,,,,,,,,,,,,,,,,,,,,7,0,7,0,12,0,12,0,,,,,,recollect,w,g,lower,,,,,,,3,w,LoDemNoTar,g,1,0.5672396286390722,,,,,,,,,,,,,,,,,,326,2023-11-10_11h22.50.290,leap3,2022.2.5,60.0212422034136,
,,,,,,,,,,,,,,,,,,,,7,0,7,0,13,0,13,0,,,,,,bluads,nw,h,lower,,,,,,,3,nw,LoDemNoTar,h,1,0.6473498214036226,,,,,,,,,,,,,,,,,,326,2023-11-10_11h22.50.290,leap3,2022.2.5,60.0212422034136,
,,,,,,,,,,,,,,,,,,,,7,0,7,0,14,0,14,0,,,,,,bulmed,nw,h,lower,,,,,,,3,nw,LoDemNoTar,h,1,0.6120440617669374,,,,,,,,,,,,,,,,,,326,2023-11-10_11h22.50.290,leap3,2022.2.5,60.0212422034136,
,,,,,,,,,,,,,,,,,,,,7,0,7,0,15,0,15,0,,,,,,assent,w,g,lower,,,,,,,3,w,LoDemNoTar,g,1,0.8100608317181468,,,,,,,,,,,,,,,,,,326,2023-11-10_11h22.50.290,leap3,2022.2.5,60.0212422034136,
,,,,,,,,,,,,,,,,,,,,7,0,7,0,16,0,16,0,,,,,,desert,w,g,lower,,,,,,,3,w,LoDemNoTar,g,1,0.608109317952767,,,,,,,,,,,,,,,,,,326,2023-11-10_11h22.50.290,leap3,2022.2.5,60.0212422034136,
,,,,,,,,,,,,,,,,,,,,7,0,7,0,17,0,17,0,,,,,,jungle,w,g,lower,,,,,,,3,w,LoDemNoTar,g,1,0.6529243453405797,,,,,,,,,,,,,,,,,,326,2023-11-10_11h22.50.290,leap3,2022.2.5,60.0212422034136,
,,,,,,,,,,,,,,,,,,,,7,0,7,0,18,0,18,0,,,,,,slowning,nw,h,lower,,,,,,,3,nw,LoDemNoTar,h,1,0.6576036610640585,,,,,,,,,,,,,,,,,,326,2023-11-10_11h22.50.290,leap3,2022.2.5,60.0212422034136,
,,,,,,,,,,,,,,,,,,,,7,0,7,0,19,0,19,0,,,,,,levels,w,g,lower,,,,,,,3,w,LoDemNoTar,g,1,0.6688010450452566,,,,,,,,,,,,,,,,,,326,2023-11-10_11h22.50.290,leap3,2022.2.5,60.0212422034136,
,,,,,,,,,,,,,,,,,,,,7,0,7,0,20,0,20,0,,,,,,pressures,w,g,lower,,,,,,,3,w,LoDemNoTar,g,1,0.5690098495688289,,,,,,,,,,,,,,,,,,326,2023-11-10_11h22.50.290,leap3,2022.2.5,60.0212422034136,
,,,,,,,,,,,,,,,,,,,,7,0,7,0,21,0,21,0,,,,,,goblet,w,g,lower,,,,,,,3,w,LoDemNoTar,g,1,0.857063225703314,,,,,,,,,,,,,,,,,,326,2023-11-10_11h22.50.290,leap3,2022.2.5,60.0212422034136,
,,,,,,,,,,,,,,,,,,,,7,0,7,0,22,0,22,0,,,,,,recipus,nw,h,lower,,,,,,,3,nw,LoDemNoTar,h,1,0.893109584460035,,,,,,,,,,,,,,,,,,326,2023-11-10_11h22.50.290,leap3,2022.2.5,60.0212422034136,
,,,,,,,,,,,,,,,,,,,,7,0,7,0,23,0,23,0,,,,,,alticles,nw,h,lower,,,,,,,3,nw,LoDemNoTar,g,0,0.5438036520499736,,,,,,,,,,,,,,,,,,326,2023-11-10_11h22.50.290,leap3,2022.2.5,60.0212422034136,
,,,,,,,,,,,,,,,,,,,,7,0,7,0,24,0,24,0,,,,,,cayward,nw,h,lower,,,,,,,3,nw,LoDemNoTar,h,1,0.648608542047441,,,,,,,,,,,,,,,,,,326,2023-11-10_11h22.50.290,leap3,2022.2.5,60.0212422034136,
,,,,,,,,,,,,,,,,,,,,7,0,7,0,25,0,25,0,,,,,,aligning,w,g,lower,,,,,,,3,w,LoDemNoTar,g,1,0.6452789907343686,,,,,,,,,,,,,,,,,,326,2023-11-10_11h22.50.290,leap3,2022.2.5,60.0212422034136,
,,,,,,,,,,,,,,,,,,,,7,0,7,0,26,0,26,0,,,,,,elderly,w,g,lower,,,,,,,3,w,LoDemNoTar,g,1,0.6249229402747005,,,,,,,,,,,,,,,,,,326,2023-11-10_11h22.50.290,leap3,2022.2.5,60.0212422034136,
,,,,,,,,,,,,,,,,,,,,7,0,7,0,27,0,27,0,,,,,,grefab,nw,h,lower,,,,,,,3,nw,LoDemNoTar,h,1,0.5823532163631171,,,,,,,,,,,,,,,,,,326,2023-11-10_11h22.50.290,leap3,2022.2.5,60.0212422034136,
,,,,,,,,,,,,,,,,,,,,7,0,7,0,28,0,28,0,,,,,,metrol,nw,h,lower,,,,,,,3,nw,LoDemNoTar,h,1,0.6296519164461643,,,,,,,,,,,,,,,,,,326,2023-11-10_11h22.50.290,leap3,2022.2.5,60.0212422034136,
,,,,,,,,,,,,,,,,,,,,7,0,7,0,29,0,29,0,,,,,,pimorous,nw,h,lower,,,,,,,3,nw,LoDemNoTar,h,1,0.6430340183433145,,,,,,,,,,,,,,,,,,326,2023-11-10_11h22.50.290,leap3,2022.2.5,60.0212422034136,
,,,,,,,,,,,,,,,,,,,,7,0,7,0,,,,,,,,,,,,,,,,,,,,,,,,,,,,,,,,,,,,,,,,,,,326,2023-11-10_11h22.50.290,leap3,2022.2.5,60.0212422034136,
,,,,,,,,,,,,,,,,,,,,8,0,8,0,0,0,0,0,,,,,,located,w,g,upper,,,,,,,1,w,HiDemTar,g,1,0.6885082020889968,,,,,,,,,,,,,,,,,,326,2023-11-10_11h22.50.290,leap3,2022.2.5,60.0212422034136,
,,,,,,,,,,,,,,,,,,,,8,0,8,0,1,0,1,0,,,,,,earterner,nw,h,upper,,,,,,,1,nw,HiDemTar,h,1,0.5872722256463021,,,,,,,,,,,,,,,,,,326,2023-11-10_11h22.50.290,leap3,2022.2.5,60.0212422034136,
,,,,,,,,,,,,,,,,,,,,8,0,8,0,2,0,2,0,,,,,,drine,nw,h,upper,,,,,,,1,nw,HiDemTar,h,1,0.5368813502136618,,,,,,,,,,,,,,,,,,326,2023-11-10_11h22.50.290,leap3,2022.2.5,60.0212422034136,
,,,,,,,,,,,,,,,,,,,,8,0,8,0,3,0,3,0,,,,,,mubby,nw,h,upper,,,,,,,1,nw,HiDemTar,h,1,0.48164628678932786,,,,,,,,,,,,,,,,,,326,2023-11-10_11h22.50.290,leap3,2022.2.5,60.0212422034136,
,,,,,,,,,,,,,,,,,,,,8,0,8,0,4,0,4,0,,,,,,bookend,w,g,upper,,,,,,,1,w,HiDemTar,h,0,0.5409726891666651,,,,,,,,,,,,,,,,,,326,2023-11-10_11h22.50.290,leap3,2022.2.5,60.0212422034136,
,,,,,,,,,,,,,,,,,,,,8,0,8,0,5,0,5,0,,,,,,sunhess,nw,h,upper,,,,,,,1,nw,HiDemTar,h,1,0.6696700986940414,,,,,,,,,,,,,,,,,,326,2023-11-10_11h22.50.290,leap3,2022.2.5,60.0212422034136,
,,,,,,,,,,,,,,,,,,,,8,0,8,0,6,0,6,0,,,,,,outlaved,nw,h,upper,,,,,,,1,nw,HiDemTar,h,1,0.5217104875482619,,,,,,,,,,,,,,,,,,326,2023-11-10_11h22.50.290,leap3,2022.2.5,60.0212422034136,
,,,,,,,,,,,,,,,,,,,,8,0,8,0,7,0,7,0,,,,,,meteoroid,w,g,upper,,,,,,,1,w,HiDemTar,g,1,0.6591179664246738,,,,,,,,,,,,,,,,,,326,2023-11-10_11h22.50.290,leap3,2022.2.5,60.0212422034136,
,,,,,,,,,,,,,,,,,,,,8,0,8,0,8,0,8,0,,,,,,column,w,g,upper,,,,,,,1,w,HiDemTar,h,0,0.583090835949406,,,,,,,,,,,,,,,,,,326,2023-11-10_11h22.50.290,leap3,2022.2.5,60.0212422034136,
,,,,,,,,,,,,,,,,,,,,8,0,8,0,9,0,9,0,,,,,,bickering,w,g,upper,,,,,,,1,w,HiDemTar,h,0,0.5984454415738583,,,,,,,,,,,,,,,,,,326,2023-11-10_11h22.50.290,leap3,2022.2.5,60.0212422034136,
,,,,,,,,,,,,,,,,,,,,8,0,8,0,10,0,10,0,,,,,,become,w,g,upper,,,,,,,1,w,HiDemTar,g,1,0.5012355837970972,,,,,,,,,,,,,,,,,,326,2023-11-10_11h22.50.290,leap3,2022.2.5,60.0212422034136,
,,,,,,,,,,,,,,,,,,,,8,0,8,0,11,0,11,0,,,,,,refebs,nw,h,upper,,,,,,,1,nw,HiDemTar,h,1,0.6476838688831776,,,,,,,,,,,,,,,,,,326,2023-11-10_11h22.50.290,leap3,2022.2.5,60.0212422034136,
,,,,,,,,,,,,,,,,,,,,8,0,8,0,12,0,12,0,,,,,,season,w,g,upper,,,,,,,1,w,HiDemTar,g,1,0.41936278459616005,,,,,,,,,,,,,,,,,,326,2023-11-10_11h22.50.290,leap3,2022.2.5,60.0212422034136,
,,,,,,,,,,,,,,,,,,,,8,0,8,0,13,0,13,0,,,,,,dialect,w,g,upper,,,,,,,1,w,HiDemTar,g,1,0.7854416179470718,,,,,,,,,,,,,,,,,,326,2023-11-10_11h22.50.290,leap3,2022.2.5,60.0212422034136,
,,,,,,,,,,,,,,,,,,,,8,0,8,0,14,0,14,0,,,,,,happen,w,g,upper,,,,,,,1,w,HiDemTar,g,1,0.4968972678761929,,,,,,,,,,,,,,,,,,326,2023-11-10_11h22.50.290,leap3,2022.2.5,60.0212422034136,
,,,,,,,,,,,,,,,,,,,,8,0,8,0,15,0,15,0,,,,,,envelop,w,g,upper,,,,,,,1,w,HiDemTar,g,1,0.5395782305859029,,,,,,,,,,,,,,,,,,326,2023-11-10_11h22.50.290,leap3,2022.2.5,60.0212422034136,
,,,,,,,,,,,,,,,,,,,,8,0,8,0,16,0,16,0,,,,,,sliding,w,g,upper,,,,,,,1,w,HiDemTar,g,1,0.5242517658043653,,,,,,,,,,,,,,,,,,326,2023-11-10_11h22.50.290,leap3,2022.2.5,60.0212422034136,
,,,,,,,,,,,,,,,,,,,,8,0,8,0,17,0,17,0,,,,,,thrapping,nw,h,upper,,,,,,,1,nw,HiDemTar,g,0,0.6383388112299144,,,,,,,,,,,,,,,,,,326,2023-11-10_11h22.50.290,leap3,2022.2.5,60.0212422034136,
,,,,,,,,,,,,,,,,,,,,8,0,8,0,18,0,18,0,,,,,,perform,w,g,upper,,,,,,,1,w,HiDemTar,g,1,0.5070421863347292,,,,,,,,,,,,,,,,,,326,2023-11-10_11h22.50.290,leap3,2022.2.5,60.0212422034136,
,,,,,,,,,,,,,,,,,,,,8,0,8,0,19,0,19,0,,,,,,bropic,nw,h,upper,,,,,,,1,nw,HiDemTar,h,1,0.6370936639141291,,,,,,,,,,,,,,,,,,326,2023-11-10_11h22.50.290,leap3,2022.2.5,60.0212422034136,
,,,,,,,,,,,,,,,,,,,,8,0,8,0,20,0,20,0,,,,,,walsams,nw,h,upper,,,,,,,1,nw,HiDemTar,h,1,0.5617816406302154,,,,,,,,,,,,,,,,,,326,2023-11-10_11h22.50.290,leap3,2022.2.5,60.0212422034136,
,,,,,,,,,,,,,,,,,,,,8,0,8,0,21,0,21,0,,,,,,gestalion,nw,h,upper,,,,,,,1,nw,HiDemTar,h,1,0.9048393256962299,,,,,,,,,,,,,,,,,,326,2023-11-10_11h22.50.290,leap3,2022.2.5,60.0212422034136,
,,,,,,,,,,,,,,,,,,,,8,0,8,0,22,0,22,0,,,,,,gelented,nw,h,upper,,,,,,,1,nw,HiDemTar,h,1,0.5788909066468477,,,,,,,,,,,,,,,,,,326,2023-11-10_11h22.50.290,leap3,2022.2.5,60.0212422034136,
,,,,,,,,,,,,,,,,,,,,8,0,8,0,23,0,23,0,,,,,,dileting,nw,h,upper,,,,,,,1,nw,HiDemTar,h,1,0.6663915317039937,,,,,,,,,,,,,,,,,,326,2023-11-10_11h22.50.290,leap3,2022.2.5,60.0212422034136,
,,,,,,,,,,,,,,,,,,,,8,0,8,0,24,0,24,0,,,,,,female,w,g,upper,,,,,,,1,w,HiDemTar,g,1,0.49433877412229776,,,,,,,,,,,,,,,,,,326,2023-11-10_11h22.50.290,leap3,2022.2.5,60.0212422034136,
,,,,,,,,,,,,,,,,,,,,8,0,8,0,25,0,25,0,,,,,,giraffe,target,q,upper,,,,,,,1,target,HiDemTar,g,0,0.6569852260872722,,,,,,,,,,,,,,,,,,326,2023-11-10_11h22.50.290,leap3,2022.2.5,60.0212422034136,
,,,,,,,,,,,,,,,,,,,,8,0,8,0,26,0,26,0,,,,,,uncounted,w,g,upper,,,,,,,1,aftertar1,HiDemTar,h,0,1.5090603772550821,q,1,,,,,,,,,,,,,,,,326,2023-11-10_11h22.50.290,leap3,2022.2.5,60.0212422034136,
,,,,,,,,,,,,,,,,,,,,8,0,8,0,27,0,27,0,,,,,,mantos,nw,h,upper,,,,,,,1,aftertar2,HiDemTar,h,1,0.5910735491197556,,,,,,,,,,,,,,,,,,326,2023-11-10_11h22.50.290,leap3,2022.2.5,60.0212422034136,
,,,,,,,,,,,,,,,,,,,,8,0,8,0,28,0,28,0,,,,,,acroad,nw,h,upper,,,,,,,1,aftertar3,HiDemTar,h,1,0.5177628321107477,,,,,,,,,,,,,,,,,,326,2023-11-10_11h22.50.290,leap3,2022.2.5,60.0212422034136,
,,,,,,,,,,,,,,,,,,,,8,0,8,0,29,0,29,0,,,,,,agony,w,g,upper,,,,,,,1,nw,HiDemTar,g,1,0.5918353367596865,,,,,,,,,,,,,,,,,,326,2023-11-10_11h22.50.290,leap3,2022.2.5,60.0212422034136,
,,,,,,,,,,,,,,,,,,,,8,0,8,0,,,,,,,,,,,,,,,,,,,,,,,,,,,,,,,,,,,,,,,,,,,326,2023-11-10_11h22.50.290,leap3,2022.2.5,60.0212422034136,
,,,,,,,,,,,,,,,,,,,,9,0,9,0,0,0,0,0,,,,,,egect,nw,h,upper,,,,,,,1,nw,HiDemTar,h,1,0.5581796201877296,,,,,,,,,,,,,,,,,,326,2023-11-10_11h22.50.290,leap3,2022.2.5,60.0212422034136,
,,,,,,,,,,,,,,,,,,,,9,0,9,0,1,0,1,0,,,,,,ufionize,nw,h,upper,,,,,,,1,nw,HiDemTar,h,1,0.7982486544642597,,,,,,,,,,,,,,,,,,326,2023-11-10_11h22.50.290,leap3,2022.2.5,60.0212422034136,
,,,,,,,,,,,,,,,,,,,,9,0,9,0,2,0,2,0,,,,,,brouhuha,nw,h,upper,,,,,,,1,nw,HiDemTar,h,1,0.5490318788215518,,,,,,,,,,,,,,,,,,326,2023-11-10_11h22.50.290,leap3,2022.2.5,60.0212422034136,
,,,,,,,,,,,,,,,,,,,,9,0,9,0,3,0,3,0,,,,,,markot,nw,h,upper,,,,,,,1,nw,HiDemTar,h,1,0.4859802988357842,,,,,,,,,,,,,,,,,,326,2023-11-10_11h22.50.290,leap3,2022.2.5,60.0212422034136,
,,,,,,,,,,,,,,,,,,,,9,0,9,0,4,0,4,0,,,,,,surround,w,g,upper,,,,,,,1,w,HiDemTar,g,1,0.6407046234235168,,,,,,,,,,,,,,,,,,326,2023-11-10_11h22.50.290,leap3,2022.2.5,60.0212422034136,
,,,,,,,,,,,,,,,,,,,,9,0,9,0,5,0,5,0,,,,,,handed,w,g,upper,,,,,,,1,w,HiDemTar,g,1,0.8458578963764012,,,,,,,,,,,,,,,,,,326,2023-11-10_11h22.50.290,leap3,2022.2.5,60.0212422034136,
,,,,,,,,,,,,,,,,,,,,9,0,9,0,6,0,6,0,,,,,,burrowing,w,g,upper,,,,,,,1,w,HiDemTar,g,1,0.9212391129694879,,,,,,,,,,,,,,,,,,326,2023-11-10_11h22.50.290,leap3,2022.2.5,60.0212422034136,
,,,,,,,,,,,,,,,,,,,,9,0,9,0,7,0,7,0,,,,,,flieves,nw,h,upper,,,,,,,1,nw,HiDemTar,h,1,0.5307320919819176,,,,,,,,,,,,,,,,,,326,2023-11-10_11h22.50.290,leap3,2022.2.5,60.0212422034136,
,,,,,,,,,,,,,,,,,,,,9,0,9,0,8,0,8,0,,,,,,listless,w,g,upper,,,,,,,1,w,HiDemTar,g,1,0.6683342391625047,,,,,,,,,,,,,,,,,,326,2023-11-10_11h22.50.290,leap3,2022.2.5,60.0212422034136,
,,,,,,,,,,,,,,,,,,,,9,0,9,0,9,0,9,0,,,,,,violate,w,g,upper,,,,,,,1,w,HiDemTar,g,1,0.45613352046348155,,,,,,,,,,,,,,,,,,326,2023-11-10_11h22.50.290,leap3,2022.2.5,60.0212422034136,
,,,,,,,,,,,,,,,,,,,,9,0,9,0,10,0,10,0,,,,,,miability,nw,h,upper,,,,,,,1,nw,HiDemTar,h,1,0.6762540491763502,,,,,,,,,,,,,,,,,,326,2023-11-10_11h22.50.290,leap3,2022.2.5,60.0212422034136,
,,,,,,,,,,,,,,,,,,,,9,0,9,0,11,0,11,0,,,,,,roodies,nw,h,upper,,,,,,,1,nw,HiDemTar,h,1,0.5996038485318422,,,,,,,,,,,,,,,,,,326,2023-11-10_11h22.50.290,leap3,2022.2.5,60.0212422034136,
,,,,,,,,,,,,,,,,,,,,9,0,9,0,12,0,12,0,,,,,,catgup,nw,h,upper,,,,,,,1,nw,HiDemTar,h,1,0.502296325750649,,,,,,,,,,,,,,,,,,326,2023-11-10_11h22.50.290,leap3,2022.2.5,60.0212422034136,
,,,,,,,,,,,,,,,,,,,,9,0,9,0,13,0,13,0,,,,,,gairs,nw,h,upper,,,,,,,1,nw,HiDemTar,h,1,0.6409737817011774,,,,,,,,,,,,,,,,,,326,2023-11-10_11h22.50.290,leap3,2022.2.5,60.0212422034136,
,,,,,,,,,,,,,,,,,,,,9,0,9,0,14,0,14,0,,,,,,phraining,nw,h,upper,,,,,,,1,nw,HiDemTar,h,1,0.6136633157730103,,,,,,,,,,,,,,,,,,326,2023-11-10_11h22.50.290,leap3,2022.2.5,60.0212422034136,
,,,,,,,,,,,,,,,,,,,,9,0,9,0,15,0,15,0,,,,,,aqueduct,w,g,upper,,,,,,,1,w,HiDemTar,h,0,0.5069802766665816,,,,,,,,,,,,,,,,,,326,2023-11-10_11h22.50.290,leap3,2022.2.5,60.0212422034136,
,,,,,,,,,,,,,,,,,,,,9,0,9,0,16,0,16,0,,,,,,hanling,nw,h,upper,,,,,,,1,nw,HiDemTar,h,1,0.7006782637909055,,,,,,,,,,,,,,,,,,326,2023-11-10_11h22.50.290,leap3,2022.2.5,60.0212422034136,
,,,,,,,,,,,,,,,,,,,,9,0,9,0,17,0,17,0,,,,,,ordinary,w,g,upper,,,,,,,1,w,HiDemTar,g,1,0.6713790718931705,,,,,,,,,,,,,,,,,,326,2023-11-10_11h22.50.290,leap3,2022.2.5,60.0212422034136,
,,,,,,,,,,,,,,,,,,,,9,0,9,0,18,0,18,0,,,,,,teliever,nw,h,upper,,,,,,,1,nw,HiDemTar,h,1,0.5307572532910854,,,,,,,,,,,,,,,,,,326,2023-11-10_11h22.50.290,leap3,2022.2.5,60.0212422034136,
,,,,,,,,,,,,,,,,,,,,9,0,9,0,19,0,19,0,,,,,,number,w,g,upper,,,,,,,1,w,HiDemTar,g,1,0.612133450107649,,,,,,,,,,,,,,,,,,326,2023-11-10_11h22.50.290,leap3,2022.2.5,60.0212422034136,
,,,,,,,,,,,,,,,,,,,,9,0,9,0,20,0,20,0,,,,,,dabble,w,g,upper,,,,,,,1,w,HiDemTar,g,1,0.7620999957434833,,,,,,,,,,,,,,,,,,326,2023-11-10_11h22.50.290,leap3,2022.2.5,60.0212422034136,
,,,,,,,,,,,,,,,,,,,,9,0,9,0,21,0,21,0,,,,,,buaint,nw,h,upper,,,,,,,1,nw,HiDemTar,h,1,0.6022374948952347,,,,,,,,,,,,,,,,,,326,2023-11-10_11h22.50.290,leap3,2022.2.5,60.0212422034136,
,,,,,,,,,,,,,,,,,,,,9,0,9,0,22,0,22,0,,,,,,fonducts,nw,h,upper,,,,,,,1,nw,HiDemTar,h,1,0.7361177748534828,,,,,,,,,,,,,,,,,,326,2023-11-10_11h22.50.290,leap3,2022.2.5,60.0212422034136,
,,,,,,,,,,,,,,,,,,,,9,0,9,0,23,0,23,0,,,,,,offonents,nw,h,upper,,,,,,,1,nw,HiDemTar,h,1,1.0415972489863634,,,,,,,,,,,,,,,,,,326,2023-11-10_11h22.50.290,leap3,2022.2.5,60.0212422034136,
,,,,,,,,,,,,,,,,,,,,9,0,9,0,24,0,24,0,,,,,,index,w,g,upper,,,,,,,1,w,HiDemTar,g,1,0.7491866862401366,,,,,,,,,,,,,,,,,,326,2023-11-10_11h22.50.290,leap3,2022.2.5,60.0212422034136,
,,,,,,,,,,,,,,,,,,,,9,0,9,0,25,0,25,0,,,,,,phonology,w,g,upper,,,,,,,1,w,HiDemTar,g,1,0.7175104257185012,,,,,,,,,,,,,,,,,,326,2023-11-10_11h22.50.290,leap3,2022.2.5,60.0212422034136,
,,,,,,,,,,,,,,,,,,,,9,0,9,0,26,0,26,0,,,,,,crazy,w,g,upper,,,,,,,1,w,HiDemTar,g,1,0.5115685486234725,,,,,,,,,,,,,,,,,,326,2023-11-10_11h22.50.290,leap3,2022.2.5,60.0212422034136,
,,,,,,,,,,,,,,,,,,,,9,0,9,0,27,0,27,0,,,,,,octopus,target,q,upper,,,,,,,1,target,HiDemTar,g,0,0.5695518080610782,q,1,,,,,,,,,,,,,,,,326,2023-11-10_11h22.50.290,leap3,2022.2.5,60.0212422034136,
,,,,,,,,,,,,,,,,,,,,9,0,9,0,28,0,28,0,,,,,,efficient,w,g,upper,,,,,,,1,aftertar1,HiDemTar,g,1,0.616797205992043,,,,,,,,,,,,,,,,,,326,2023-11-10_11h22.50.290,leap3,2022.2.5,60.0212422034136,
,,,,,,,,,,,,,,,,,,,,9,0,9,0,29,0,29,0,,,,,,diatonic,w,g,upper,,,,,,,1,aftertar2,HiDemTar,h,0,0.8308396560605615,,,,,,,,,,,,,,,,,,326,2023-11-10_11h22.50.290,leap3,2022.2.5,60.0212422034136,
,,,,,,,,,,,,,,,,,,,,9,0,9,0,,,,,,,,,,,,,,,,,,,,,,,,,,,,,,,,,,,,,,,,,,,326,2023-11-10_11h22.50.290,leap3,2022.2.5,60.0212422034136,
,,,,,,,,,,,,,,,,,,,,10,0,10,0,0,0,0,0,,,,,,actual,w,g,lower,,,,,,,3,w,LoDemNoTar,g,1,0.5647158969659358,,,,,,,,,,,,,,,,,,326,2023-11-10_11h22.50.290,leap3,2022.2.5,60.0212422034136,
,,,,,,,,,,,,,,,,,,,,10,0,10,0,1,0,1,0,,,,,,fashing,nw,h,lower,,,,,,,3,nw,LoDemNoTar,h,1,0.692758122459054,,,,,,,,,,,,,,,,,,326,2023-11-10_11h22.50.290,leap3,2022.2.5,60.0212422034136,
,,,,,,,,,,,,,,,,,,,,10,0,10,0,2,0,2,0,,,,,,provide,w,g,lower,,,,,,,3,w,LoDemNoTar,g,1,0.7115035268943757,,,,,,,,,,,,,,,,,,326,2023-11-10_11h22.50.290,leap3,2022.2.5,60.0212422034136,
,,,,,,,,,,,,,,,,,,,,10,0,10,0,3,0,3,0,,,,,,servant,w,g,lower,,,,,,,3,w,LoDemNoTar,g,1,0.6095418494660407,,,,,,,,,,,,,,,,,,326,2023-11-10_11h22.50.290,leap3,2022.2.5,60.0212422034136,
,,,,,,,,,,,,,,,,,,,,10,0,10,0,4,0,4,0,,,,,,lonnote,nw,h,lower,,,,,,,3,nw,LoDemNoTar,h,1,0.7592783027794212,,,,,,,,,,,,,,,,,,326,2023-11-10_11h22.50.290,leap3,2022.2.5,60.0212422034136,
,,,,,,,,,,,,,,,,,,,,10,0,10,0,5,0,5,0,,,,,,deficit,w,g,lower,,,,,,,3,w,LoDemNoTar,g,1,0.5912933782674372,,,,,,,,,,,,,,,,,,326,2023-11-10_11h22.50.290,leap3,2022.2.5,60.0212422034136,
,,,,,,,,,,,,,,,,,,,,10,0,10,0,6,0,6,0,,,,,,medium,w,g,lower,,,,,,,3,w,LoDemNoTar,g,1,0.4942563381046057,,,,,,,,,,,,,,,,,,326,2023-11-10_11h22.50.290,leap3,2022.2.5,60.0212422034136,
,,,,,,,,,,,,,,,,,,,,10,0,10,0,7,0,7,0,,,,,,mabit,nw,h,lower,,,,,,,3,nw,LoDemNoTar,h,1,0.704726894851774,,,,,,,,,,,,,,,,,,326,2023-11-10_11h22.50.290,leap3,2022.2.5,60.0212422034136,
,,,,,,,,,,,,,,,,,,,,10,0,10,0,8,0,8,0,,,,,,noblest,w,g,lower,,,,,,,3,w,LoDemNoTar,h,0,0.682757549919188,,,,,,,,,,,,,,,,,,326,2023-11-10_11h22.50.290,leap3,2022.2.5,60.0212422034136,
,,,,,,,,,,,,,,,,,,,,10,0,10,0,9,0,9,0,,,,,,slightly,w,g,lower,,,,,,,3,w,LoDemNoTar,g,1,0.6210550721734762,,,,,,,,,,,,,,,,,,326,2023-11-10_11h22.50.290,leap3,2022.2.5,60.0212422034136,
,,,,,,,,,,,,,,,,,,,,10,0,10,0,10,0,10,0,,,,,,gigoho,nw,h,lower,,,,,,,3,nw,LoDemNoTar,h,1,0.6824585953727365,,,,,,,,,,,,,,,,,,326,2023-11-10_11h22.50.290,leap3,2022.2.5,60.0212422034136,
,,,,,,,,,,,,,,,,,,,,10,0,10,0,11,0,11,0,,,,,,ignoble,w,g,lower,,,,,,,3,w,LoDemNoTar,h,0,0.9500095890834928,,,,,,,,,,,,,,,,,,326,2023-11-10_11h22.50.290,leap3,2022.2.5,60.0212422034136,
,,,,,,,,,,,,,,,,,,,,10,0,10,0,12,0,12,0,,,,,,intrude,w,g,lower,,,,,,,3,w,LoDemNoTar,g,1,0.6945038444828242,,,,,,,,,,,,,,,,,,326,2023-11-10_11h22.50.290,leap3,2022.2.5,60.0212422034136,
,,,,,,,,,,,,,,,,,,,,10,0,10,0,13,0,13,0,,,,,,peadgear,nw,h,lower,,,,,,,3,nw,LoDemNoTar,h,1,0.9212377886287868,,,,,,,,,,,,,,,,,,326,2023-11-10_11h22.50.290,leap3,2022.2.5,60.0212422034136,
,,,,,,,,,,,,,,,,,,,,10,0,10,0,14,0,14,0,,,,,,century,w,g,lower,,,,,,,3,w,LoDemNoTar,g,1,0.42655987315811217,,,,,,,,,,,,,,,,,,326,2023-11-10_11h22.50.290,leap3,2022.2.5,60.0212422034136,
,,,,,,,,,,,,,,,,,,,,10,0,10,0,15,0,15,0,,,,,,image,w,g,lower,,,,,,,3,w,LoDemNoTar,g,1,0.4318900688085705,,,,,,,,,,,,,,,,,,326,2023-11-10_11h22.50.290,leap3,2022.2.5,60.0212422034136,
,,,,,,,,,,,,,,,,,,,,10,0,10,0,16,0,16,0,,,,,,flacked,nw,h,lower,,,,,,,3,nw,LoDemNoTar,h,1,0.5812587053515017,,,,,,,,,,,,,,,,,,326,2023-11-10_11h22.50.290,leap3,2022.2.5,60.0212422034136,
,,,,,,,,,,,,,,,,,,,,10,0,10,0,17,0,17,0,,,,,,ready,w,g,lower,,,,,,,3,w,LoDemNoTar,g,1,0.4766617261338979,,,,,,,,,,,,,,,,,,326,2023-11-10_11h22.50.290,leap3,2022.2.5,60.0212422034136,
,,,,,,,,,,,,,,,,,,,,10,0,10,0,18,0,18,0,,,,,,ahead,w,g,lower,,,,,,,3,w,LoDemNoTar,g,1,0.4870900388341397,,,,,,,,,,,,,,,,,,326,2023-11-10_11h22.50.290,leap3,2022.2.5,60.0212422034136,
,,,,,,,,,,,,,,,,,,,,10,0,10,0,19,0,19,0,,,,,,nearsipe,nw,h,lower,,,,,,,3,nw,LoDemNoTar,h,1,0.5856192028149962,,,,,,,,,,,,,,,,,,326,2023-11-10_11h22.50.290,leap3,2022.2.5,60.0212422034136,
,,,,,,,,,,,,,,,,,,,,10,0,10,0,20,0,20,0,,,,,,ifkling,nw,h,lower,,,,,,,3,nw,LoDemNoTar,h,1,0.5768637771252543,,,,,,,,,,,,,,,,,,326,2023-11-10_11h22.50.290,leap3,2022.2.5,60.0212422034136,
,,,,,,,,,,,,,,,,,,,,10,0,10,0,21,0,21,0,,,,,,booster,w,g,lower,,,,,,,3,w,LoDemNoTar,g,1,0.4884752274956554,,,,,,,,,,,,,,,,,,326,2023-11-10_11h22.50.290,leap3,2022.2.5,60.0212422034136,
,,,,,,,,,,,,,,,,,,,,10,0,10,0,22,0,22,0,,,,,,fuack,nw,h,lower,,,,,,,3,nw,LoDemNoTar,h,1,0.5711607986595482,,,,,,,,,,,,,,,,,,326,2023-11-10_11h22.50.290,leap3,2022.2.5,60.0212422034136,
,,,,,,,,,,,,,,,,,,,,10,0,10,0,23,0,23,0,,,,,,urique,nw,h,lower,,,,,,,3,nw,LoDemNoTar,h,1,0.6665789163671434,,,,,,,,,,,,,,,,,,326,2023-11-10_11h22.50.290,leap3,2022.2.5,60.0212422034136,
,,,,,,,,,,,,,,,,,,,,10,0,10,0,24,0,24,0,,,,,,insole,w,g,lower,,,,,,,3,w,LoDemNoTar,h,0,0.5826187329366803,,,,,,,,,,,,,,,,,,326,2023-11-10_11h22.50.290,leap3,2022.2.5,60.0212422034136,
,,,,,,,,,,,,,,,,,,,,10,0,10,0,25,0,25,0,,,,,,culer,nw,h,lower,,,,,,,3,nw,LoDemNoTar,h,1,0.6139821340329945,,,,,,,,,,,,,,,,,,326,2023-11-10_11h22.50.290,leap3,2022.2.5,60.0212422034136,
,,,,,,,,,,,,,,,,,,,,10,0,10,0,26,0,26,0,,,,,,planofoad,nw,h,lower,,,,,,,3,nw,LoDemNoTar,h,1,0.548034701962024,,,,,,,,,,,,,,,,,,326,2023-11-10_11h22.50.290,leap3,2022.2.5,60.0212422034136,
,,,,,,,,,,,,,,,,,,,,10,0,10,0,27,0,27,0,,,,,,sheerio,nw,h,lower,,,,,,,3,nw,LoDemNoTar,h,1,0.676751313265413,,,,,,,,,,,,,,,,,,326,2023-11-10_11h22.50.290,leap3,2022.2.5,60.0212422034136,
,,,,,,,,,,,,,,,,,,,,10,0,10,0,28,0,28,0,,,,,,eggays,nw,h,lower,,,,,,,3,nw,LoDemNoTar,h,1,0.4710769390221685,,,,,,,,,,,,,,,,,,326,2023-11-10_11h22.50.290,leap3,2022.2.5,60.0212422034136,
,,,,,,,,,,,,,,,,,,,,10,0,10,0,29,0,29,0,,,,,,snays,nw,h,lower,,,,,,,3,nw,LoDemNoTar,h,1,0.43448398681357503,,,,,,,,,,,,,,,,,,326,2023-11-10_11h22.50.290,leap3,2022.2.5,60.0212422034136,
,,,,,,,,,,,,,,,,,,,,10,0,10,0,,,,,,,,,,,,,,,,,,,,,,,,,,,,,,,,,,,,,,,,,,,326,2023-11-10_11h22.50.290,leap3,2022.2.5,60.0212422034136,
,,,,,,,,,,,,,,,,,,,,11,0,11,0,0,0,0,0,,,,,,stranded,w,g,upper,,,,,,,2,w,HiDemNoTar,g,1,0.6880278221797198,,,,,,,,,,,,,,,,,,326,2023-11-10_11h22.50.290,leap3,2022.2.5,60.0212422034136,
,,,,,,,,,,,,,,,,,,,,11,0,11,0,1,0,1,0,,,,,,humanize,w,g,upper,,,,,,,2,w,HiDemNoTar,g,1,0.4669544796925038,,,,,,,,,,,,,,,,,,326,2023-11-10_11h22.50.290,leap3,2022.2.5,60.0212422034136,
,,,,,,,,,,,,,,,,,,,,11,0,11,0,2,0,2,0,,,,,,awful,w,g,upper,,,,,,,2,w,HiDemNoTar,g,1,0.4307313305325806,,,,,,,,,,,,,,,,,,326,2023-11-10_11h22.50.290,leap3,2022.2.5,60.0212422034136,
,,,,,,,,,,,,,,,,,,,,11,0,11,0,3,0,3,0,,,,,,sustain,w,g,upper,,,,,,,2,w,HiDemNoTar,g,1,0.46716305264271796,,,,,,,,,,,,,,,,,,326,2023-11-10_11h22.50.290,leap3,2022.2.5,60.0212422034136,
,,,,,,,,,,,,,,,,,,,,11,0,11,0,4,0,4,0,,,,,,region,w,g,upper,,,,,,,2,w,HiDemNoTar,g,1,0.5031342590227723,,,,,,,,,,,,,,,,,,326,2023-11-10_11h22.50.290,leap3,2022.2.5,60.0212422034136,
,,,,,,,,,,,,,,,,,,,,11,0,11,0,5,0,5,0,,,,,,miurnal,nw,h,upper,,,,,,,2,nw,HiDemNoTar,h,1,0.7211630996316671,,,,,,,,,,,,,,,,,,326,2023-11-10_11h22.50.290,leap3,2022.2.5,60.0212422034136,
,,,,,,,,,,,,,,,,,,,,11,0,11,0,6,0,6,0,,,,,,slimped,nw,h,upper,,,,,,,2,nw,HiDemNoTar,h,1,1.130566160660237,,,,,,,,,,,,,,,,,,326,2023-11-10_11h22.50.290,leap3,2022.2.5,60.0212422034136,
,,,,,,,,,,,,,,,,,,,,11,0,11,0,7,0,7,0,,,,,,plogging,nw,h,upper,,,,,,,2,nw,HiDemNoTar,h,1,0.6199655272066593,,,,,,,,,,,,,,,,,,326,2023-11-10_11h22.50.290,leap3,2022.2.5,60.0212422034136,
,,,,,,,,,,,,,,,,,,,,11,0,11,0,8,0,8,0,,,,,,hatred,w,g,upper,,,,,,,2,w,HiDemNoTar,g,1,0.6172153449151665,,,,,,,,,,,,,,,,,,326,2023-11-10_11h22.50.290,leap3,2022.2.5,60.0212422034136,
,,,,,,,,,,,,,,,,,,,,11,0,11,0,9,0,9,0,,,,,,atble,nw,h,upper,,,,,,,2,nw,HiDemNoTar,h,1,0.5993532298598439,,,,,,,,,,,,,,,,,,326,2023-11-10_11h22.50.290,leap3,2022.2.5,60.0212422034136,
,,,,,,,,,,,,,,,,,,,,11,0,11,0,10,0,10,0,,,,,,student,w,g,upper,,,,,,,2,w,HiDemNoTar,g,1,0.5340136385057122,,,,,,,,,,,,,,,,,,326,2023-11-10_11h22.50.290,leap3,2022.2.5,60.0212422034136,
,,,,,,,,,,,,,,,,,,,,11,0,11,0,11,0,11,0,,,,,,amms,nw,h,upper,,,,,,,2,nw,HiDemNoTar,h,1,0.591254974482581,,,,,,,,,,,,,,,,,,326,2023-11-10_11h22.50.290,leap3,2022.2.5,60.0212422034136,
,,,,,,,,,,,,,,,,,,,,11,0,11,0,12,0,12,0,,,,,,stifle,w,g,upper,,,,,,,2,w,HiDemNoTar,g,1,0.6057431746739894,,,,,,,,,,,,,,,,,,326,2023-11-10_11h22.50.290,leap3,2022.2.5,60.0212422034136,
,,,,,,,,,,,,,,,,,,,,11,0,11,0,13,0,13,0,,,,,,puggers,nw,h,upper,,,,,,,2,nw,HiDemNoTar,h,1,0.5388968924526125,,,,,,,,,,,,,,,,,,326,2023-11-10_11h22.50.290,leap3,2022.2.5,60.0212422034136,
,,,,,,,,,,,,,,,,,,,,11,0,11,0,14,0,14,0,,,,,,funtair,nw,h,upper,,,,,,,2,nw,HiDemNoTar,h,1,0.7158888545818627,,,,,,,,,,,,,,,,,,326,2023-11-10_11h22.50.290,leap3,2022.2.5,60.0212422034136,
,,,,,,,,,,,,,,,,,,,,11,0,11,0,15,0,15,0,,,,,,prame,nw,h,upper,,,,,,,2,nw,HiDemNoTar,h,1,0.4622592725791037,,,,,,,,,,,,,,,,,,326,2023-11-10_11h22.50.290,leap3,2022.2.5,60.0212422034136,
,,,,,,,,,,,,,,,,,,,,11,0,11,0,16,0,16,0,,,,,,halents,nw,h,upper,,,,,,,2,nw,HiDemNoTar,h,1,0.5623686243779957,,,,,,,,,,,,,,,,,,326,2023-11-10_11h22.50.290,leap3,2022.2.5,60.0212422034136,
,,,,,,,,,,,,,,,,,,,,11,0,11,0,17,0,17,0,,,,,,emotion,w,g,upper,,,,,,,2,w,HiDemNoTar,g,1,0.5702851237729192,,,,,,,,,,,,,,,,,,326,2023-11-10_11h22.50.290,leap3,2022.2.5,60.0212422034136,
,,,,,,,,,,,,,,,,,,,,11,0,11,0,18,0,18,0,,,,,,dominion,w,g,upper,,,,,,,2,w,HiDemNoTar,g,1,0.6896480694413185,,,,,,,,,,,,,,,,,,326,2023-11-10_11h22.50.290,leap3,2022.2.5,60.0212422034136,
,,,,,,,,,,,,,,,,,,,,11,0,11,0,19,0,19,0,,,,,,attract,w,g,upper,,,,,,,2,w,HiDemNoTar,g,1,0.5325079411268234,,,,,,,,,,,,,,,,,,326,2023-11-10_11h22.50.290,leap3,2022.2.5,60.0212422034136,
,,,,,,,,,,,,,,,,,,,,11,0,11,0,20,0,20,0,,,,,,arbitrary,w,g,upper,,,,,,,2,w,HiDemNoTar,g,1,0.5577565154526383,,,,,,,,,,,,,,,,,,326,2023-11-10_11h22.50.290,leap3,2022.2.5,60.0212422034136,
,,,,,,,,,,,,,,,,,,,,11,0,11,0,21,0,21,0,,,,,,oginous,nw,h,upper,,,,,,,2,nw,HiDemNoTar,h,1,0.7098710304126143,,,,,,,,,,,,,,,,,,326,2023-11-10_11h22.50.290,leap3,2022.2.5,60.0212422034136,
,,,,,,,,,,,,,,,,,,,,11,0,11,0,22,0,22,0,,,,,,deserve,w,g,upper,,,,,,,2,w,HiDemNoTar,g,1,0.5435917684808373,,,,,,,,,,,,,,,,,,326,2023-11-10_11h22.50.290,leap3,2022.2.5,60.0212422034136,
,,,,,,,,,,,,,,,,,,,,11,0,11,0,23,0,23,0,,,,,,unamufed,nw,h,upper,,,,,,,2,nw,HiDemNoTar,h,1,0.8242325307801366,,,,,,,,,,,,,,,,,,326,2023-11-10_11h22.50.290,leap3,2022.2.5,60.0212422034136,
,,,,,,,,,,,,,,,,,,,,11,0,11,0,24,0,24,0,,,,,,neuran,nw,h,upper,,,,,,,2,nw,HiDemNoTar,h,1,0.9096368327736855,,,,,,,,,,,,,,,,,,326,2023-11-10_11h22.50.290,leap3,2022.2.5,60.0212422034136,
,,,,,,,,,,,,,,,,,,,,11,0,11,0,25,0,25,0,,,,,,culinary,w,g,upper,,,,,,,2,w,HiDemNoTar,g,1,0.6556725411210209,,,,,,,,,,,,,,,,,,326,2023-11-10_11h22.50.290,leap3,2022.2.5,60.0212422034136,
,,,,,,,,,,,,,,,,,,,,11,0,11,0,26,0,26,0,,,,,,runabouk,nw,h,upper,,,,,,,2,nw,HiDemNoTar,h,1,0.6276744469068944,,,,,,,,,,,,,,,,,,326,2023-11-10_11h22.50.290,leap3,2022.2.5,60.0212422034136,
,,,,,,,,,,,,,,,,,,,,11,0,11,0,27,0,27,0,,,,,,nores,nw,h,upper,,,,,,,2,nw,HiDemNoTar,h,1,0.5530579974874854,,,,,,,,,,,,,,,,,,326,2023-11-10_11h22.50.290,leap3,2022.2.5,60.0212422034136,
,,,,,,,,,,,,,,,,,,,,11,0,11,0,28,0,28,0,,,,,,preight,nw,h,upper,,,,,,,2,nw,HiDemNoTar,h,1,0.569031038088724,,,,,,,,,,,,,,,,,,326,2023-11-10_11h22.50.290,leap3,2022.2.5,60.0212422034136,
,,,,,,,,,,,,,,,,,,,,11,0,11,0,29,0,29,0,,,,,,absent,w,g,upper,,,,,,,2,w,HiDemNoTar,g,1,0.6407390544191003,,,,,,,,,,,,,,,,,,326,2023-11-10_11h22.50.290,leap3,2022.2.5,60.0212422034136,
,,,,,,,,,,,,,,,,,,,,11,0,11,0,,,,,,,,,,,,,,,,,,,,,,,,,,,,,,,,,,,,,,,,,,,326,2023-11-10_11h22.50.290,leap3,2022.2.5,60.0212422034136,
,,,,,,,,,,,,,,,,,,,,12,0,12,0,0,0,0,0,,,,,,odacles,nw,h,upper,,,,,,,1,nw,HiDemTar,g,0,0.6861430518329144,,,,,,,,,,,,,,,,,,326,2023-11-10_11h22.50.290,leap3,2022.2.5,60.0212422034136,
,,,,,,,,,,,,,,,,,,,,12,0,12,0,1,0,1,0,,,,,,trophy,w,g,upper,,,,,,,1,w,HiDemTar,g,1,0.6566587928682566,,,,,,,,,,,,,,,,,,326,2023-11-10_11h22.50.290,leap3,2022.2.5,60.0212422034136,
,,,,,,,,,,,,,,,,,,,,12,0,12,0,2,0,2,0,,,,,,mogus,nw,h,upper,,,,,,,1,nw,HiDemTar,h,1,0.5167941269464791,,,,,,,,,,,,,,,,,,326,2023-11-10_11h22.50.290,leap3,2022.2.5,60.0212422034136,
,,,,,,,,,,,,,,,,,,,,12,0,12,0,3,0,3,0,,,,,,disperse,w,g,upper,,,,,,,1,w,HiDemTar,h,0,0.5108200039248914,,,,,,,,,,,,,,,,,,326,2023-11-10_11h22.50.290,leap3,2022.2.5,60.0212422034136,
,,,,,,,,,,,,,,,,,,,,12,0,12,0,4,0,4,0,,,,,,corg,nw,h,upper,,,,,,,1,nw,HiDemTar,h,1,0.5133480394724756,,,,,,,,,,,,,,,,,,326,2023-11-10_11h22.50.290,leap3,2022.2.5,60.0212422034136,
,,,,,,,,,,,,,,,,,,,,12,0,12,0,5,0,5,0,,,,,,grenavier,nw,h,upper,,,,,,,1,nw,HiDemTar,h,1,0.4754758405033499,,,,,,,,,,,,,,,,,,326,2023-11-10_11h22.50.290,leap3,2022.2.5,60.0212422034136,
,,,,,,,,,,,,,,,,,,,,12,0,12,0,6,0,6,0,,,,,,gonesty,nw,h,upper,,,,,,,1,nw,HiDemTar,h,1,0.462880025152117,,,,,,,,,,,,,,,,,,326,2023-11-10_11h22.50.290,leap3,2022.2.5,60.0212422034136,
,,,,,,,,,,,,,,,,,,,,12,0,12,0,7,0,7,0,,,,,,hodels,nw,h,upper,,,,,,,1,nw,HiDemTar,h,1,0.5229016703087837,,,,,,,,,,,,,,,,,,326,2023-11-10_11h22.50.290,leap3,2022.2.5,60.0212422034136,
,,,,,,,,,,,,,,,,,,,,12,0,12,0,8,0,8,0,,,,,,clarms,nw,h,upper,,,,,,,1,nw,HiDemTar,h,1,0.5070451661013067,,,,,,,,,,,,,,,,,,326,2023-11-10_11h22.50.290,leap3,2022.2.5,60.0212422034136,
,,,,,,,,,,,,,,,,,,,,12,0,12,0,9,0,9,0,,,,,,caloric,w,g,upper,,,,,,,1,w,HiDemTar,g,1,0.6132948370650411,,,,,,,,,,,,,,,,,,326,2023-11-10_11h22.50.290,leap3,2022.2.5,60.0212422034136,
,,,,,,,,,,,,,,,,,,,,12,0,12,0,10,0,10,0,,,,,,repayment,w,g,upper,,,,,,,1,w,HiDemTar,g,1,0.7632325794547796,,,,,,,,,,,,,,,,,,326,2023-11-10_11h22.50.290,leap3,2022.2.5,60.0212422034136,
,,,,,,,,,,,,,,,,,,,,12,0,12,0,11,0,11,0,,,,,,incidonts,nw,h,upper,,,,,,,1,nw,HiDemTar,g,0,0.7714202236384153,,,,,,,,,,,,,,,,,,326,2023-11-10_11h22.50.290,leap3,2022.2.5,60.0212422034136,
,,,,,,,,,,,,,,,,,,,,12,0,12,0,12,0,12,0,,,,,,encrusted,w,g,upper,,,,,,,1,w,HiDemTar,h,0,0.7068828099872917,,,,,,,,,,,,,,,,,,326,2023-11-10_11h22.50.290,leap3,2022.2.5,60.0212422034136,
,,,,,,,,,,,,,,,,,,,,12,0,12,0,13,0,13,0,,,,,,geadpan,nw,h,upper,,,,,,,1,nw,HiDemTar,h,1,0.6370930019766092,,,,,,,,,,,,,,,,,,326,2023-11-10_11h22.50.290,leap3,2022.2.5,60.0212422034136,
,,,,,,,,,,,,,,,,,,,,12,0,12,0,14,0,14,0,,,,,,manage,w,g,upper,,,,,,,1,w,HiDemTar,g,1,0.889599269721657,,,,,,,,,,,,,,,,,,326,2023-11-10_11h22.50.290,leap3,2022.2.5,60.0212422034136,
,,,,,,,,,,,,,,,,,,,,12,0,12,0,15,0,15,0,,,,,,lanthers,nw,h,upper,,,,,,,1,nw,HiDemTar,h,1,0.7163715516217053,,,,,,,,,,,,,,,,,,326,2023-11-10_11h22.50.290,leap3,2022.2.5,60.0212422034136,
,,,,,,,,,,,,,,,,,,,,12,0,12,0,16,0,16,0,,,,,,extend,w,g,upper,,,,,,,1,w,HiDemTar,g,1,0.5505677035544068,,,,,,,,,,,,,,,,,,326,2023-11-10_11h22.50.290,leap3,2022.2.5,60.0212422034136,
,,,,,,,,,,,,,,,,,,,,12,0,12,0,17,0,17,0,,,,,,euphoric,w,g,upper,,,,,,,1,w,HiDemTar,g,1,0.517418852308765,,,,,,,,,,,,,,,,,,326,2023-11-10_11h22.50.290,leap3,2022.2.5,60.0212422034136,
,,,,,,,,,,,,,,,,,,,,12,0,12,0,18,0,18,0,,,,,,purport,w,g,upper,,,,,,,1,w,HiDemTar,h,0,0.61528554931283,,,,,,,,,,,,,,,,,,326,2023-11-10_11h22.50.290,leap3,2022.2.5,60.0212422034136,
,,,,,,,,,,,,,,,,,,,,12,0,12,0,19,0,19,0,,,,,,hutting,nw,h,upper,,,,,,,1,nw,HiDemTar,h,1,0.6132392175495625,,,,,,,,,,,,,,,,,,326,2023-11-10_11h22.50.290,leap3,2022.2.5,60.0212422034136,
,,,,,,,,,,,,,,,,,,,,12,0,12,0,20,0,20,0,,,,,,ignore,w,g,upper,,,,,,,1,w,HiDemTar,g,1,0.5392905324697495,,,,,,,,,,,,,,,,,,326,2023-11-10_11h22.50.290,leap3,2022.2.5,60.0212422034136,
,,,,,,,,,,,,,,,,,,,,12,0,12,0,21,0,21,0,,,,,,caterpillar,target,q,upper,,,,,,,1,target,HiDemTar,g,0,0.5640070801600814,q,1,,,,,,,,,,,,,,,,326,2023-11-10_11h22.50.290,leap3,2022.2.5,60.0212422034136,
,,,,,,,,,,,,,,,,,,,,12,0,12,0,22,0,22,0,,,,,,undimmec,nw,h,upper,,,,,,,1,aftertar1,HiDemTar,h,1,0.6439689544495195,,,,,,,,,,,,,,,,,,326,2023-11-10_11h22.50.290,leap3,2022.2.5,60.0212422034136,
,,,,,,,,,,,,,,,,,,,,12,0,12,0,23,0,23,0,,,,,,saucer,w,g,upper,,,,,,,1,aftertar2,HiDemTar,g,1,0.7768901302479208,,,,,,,,,,,,,,,,,,326,2023-11-10_11h22.50.290,leap3,2022.2.5,60.0212422034136,
,,,,,,,,,,,,,,,,,,,,12,0,12,0,24,0,24,0,,,,,,arranged,w,g,upper,,,,,,,1,aftertar3,HiDemTar,g,1,0.5849613707978278,,,,,,,,,,,,,,,,,,326,2023-11-10_11h22.50.290,leap3,2022.2.5,60.0212422034136,
,,,,,,,,,,,,,,,,,,,,12,0,12,0,25,0,25,0,,,,,,legalosm,nw,h,upper,,,,,,,1,w,HiDemTar,h,1,0.6080348277464509,,,,,,,,,,,,,,,,,,326,2023-11-10_11h22.50.290,leap3,2022.2.5,60.0212422034136,
,,,,,,,,,,,,,,,,,,,,12,0,12,0,26,0,26,0,,,,,,pester,w,g,upper,,,,,,,1,nw,HiDemTar,h,0,0.5811199878808111,,,,,,,,,,,,,,,,,,326,2023-11-10_11h22.50.290,leap3,2022.2.5,60.0212422034136,
,,,,,,,,,,,,,,,,,,,,12,0,12,0,27,0,27,0,,,,,,donastic,nw,h,upper,,,,,,,1,w,HiDemTar,h,1,1.036436891183257,,,,,,,,,,,,,,,,,,326,2023-11-10_11h22.50.290,leap3,2022.2.5,60.0212422034136,
,,,,,,,,,,,,,,,,,,,,12,0,12,0,28,0,28,0,,,,,,tapling,nw,h,upper,,,,,,,1,nw,HiDemTar,h,1,0.5210655669216067,,,,,,,,,,,,,,,,,,326,2023-11-10_11h22.50.290,leap3,2022.2.5,60.0212422034136,
,,,,,,,,,,,,,,,,,,,,12,0,12,0,29,0,29,0,,,,,,religious,w,g,upper,,,,,,,1,nw,HiDemTar,g,1,0.5704089431092143,,,,,,,,,,,,,,,,,,326,2023-11-10_11h22.50.290,leap3,2022.2.5,60.0212422034136,
,,,,,,,,,,,,,,,,,,,,12,0,12,0,,,,,,,,,,,,,,,,,,,,,,,,,,,,,,,,,,,,,,,,,,,326,2023-11-10_11h22.50.290,leap3,2022.2.5,60.0212422034136,
,,,,,,,,,,,,,,,,,,,,13,0,13,0,0,0,0,0,,,,,,couple,w,g,lower,,,,,,,4,w,LoDemTar,g,1,0.8262825044803321,,,,,,,,,,,,,,,,,,326,2023-11-10_11h22.50.290,leap3,2022.2.5,60.0212422034136,
,,,,,,,,,,,,,,,,,,,,13,0,13,0,1,0,1,0,,,,,,finstrel,nw,h,lower,,,,,,,4,nw,LoDemTar,h,1,0.551653275731951,,,,,,,,,,,,,,,,,,326,2023-11-10_11h22.50.290,leap3,2022.2.5,60.0212422034136,
,,,,,,,,,,,,,,,,,,,,13,0,13,0,2,0,2,0,,,,,,airmen,w,g,lower,,,,,,,4,w,LoDemTar,h,0,0.6310642524622381,,,,,,,,,,,,,,,,,,326,2023-11-10_11h22.50.290,leap3,2022.2.5,60.0212422034136,
,,,,,,,,,,,,,,,,,,,,13,0,13,0,3,0,3,0,,,,,,huzzles,nw,h,lower,,,,,,,4,nw,LoDemTar,h,1,0.5644096590112895,,,,,,,,,,,,,,,,,,326,2023-11-10_11h22.50.290,leap3,2022.2.5,60.0212422034136,
,,,,,,,,,,,,,,,,,,,,13,0,13,0,4,0,4,0,,,,,,seldom,w,g,lower,,,,,,,4,w,LoDemTar,g,1,0.6604673997499049,,,,,,,,,,,,,,,,,,326,2023-11-10_11h22.50.290,leap3,2022.2.5,60.0212422034136,
,,,,,,,,,,,,,,,,,,,,13,0,13,0,5,0,5,0,,,,,,nameplate,w,g,lower,,,,,,,4,w,LoDemTar,h,0,0.5926348657812923,,,,,,,,,,,,,,,,,,326,2023-11-10_11h22.50.290,leap3,2022.2.5,60.0212422034136,
,,,,,,,,,,,,,,,,,,,,13,0,13,0,6,0,6,0,,,,,,causality,w,g,lower,,,,,,,4,w,LoDemTar,g,1,0.5032699969597161,,,,,,,,,,,,,,,,,,326,2023-11-10_11h22.50.290,leap3,2022.2.5,60.0212422034136,
,,,,,,,,,,,,,,,,,,,,13,0,13,0,7,0,7,0,,,,,,gazes,w,g,lower,,,,,,,4,w,LoDemTar,g,1,0.9453193477820605,,,,,,,,,,,,,,,,,,326,2023-11-10_11h22.50.290,leap3,2022.2.5,60.0212422034136,
,,,,,,,,,,,,,,,,,,,,13,0,13,0,8,0,8,0,,,,,,naxis,nw,h,lower,,,,,,,4,nw,LoDemTar,h,1,0.7860574044752866,,,,,,,,,,,,,,,,,,326,2023-11-10_11h22.50.290,leap3,2022.2.5,60.0212422034136,
,,,,,,,,,,,,,,,,,,,,13,0,13,0,9,0,9,0,,,,,,atsless,nw,h,lower,,,,,,,4,nw,LoDemTar,h,1,0.6727490315679461,,,,,,,,,,,,,,,,,,326,2023-11-10_11h22.50.290,leap3,2022.2.5,60.0212422034136,
,,,,,,,,,,,,,,,,,,,,13,0,13,0,10,0,10,0,,,,,,oppose,w,g,lower,,,,,,,4,w,LoDemTar,g,1,0.6840563300065696,,,,,,,,,,,,,,,,,,326,2023-11-10_11h22.50.290,leap3,2022.2.5,60.0212422034136,
,,,,,,,,,,,,,,,,,,,,13,0,13,0,11,0,11,0,,,,,,cartles,nw,h,lower,,,,,,,4,nw,LoDemTar,h,1,0.6537957163527608,,,,,,,,,,,,,,,,,,326,2023-11-10_11h22.50.290,leap3,2022.2.5,60.0212422034136,
,,,,,,,,,,,,,,,,,,,,13,0,13,0,12,0,12,0,,,,,,halter,w,g,lower,,,,,,,4,w,LoDemTar,g,1,0.6098129940219223,,,,,,,,,,,,,,,,,,326,2023-11-10_11h22.50.290,leap3,2022.2.5,60.0212422034136,
,,,,,,,,,,,,,,,,,,,,13,0,13,0,13,0,13,0,,,,,,mounting,w,g,lower,,,,,,,4,w,LoDemTar,g,1,1.1999093582853675,,,,,,,,,,,,,,,,,,326,2023-11-10_11h22.50.290,leap3,2022.2.5,60.0212422034136,
,,,,,,,,,,,,,,,,,,,,13,0,13,0,14,0,14,0,,,,,,ounwit,nw,h,lower,,,,,,,4,nw,LoDemTar,h,1,0.5585696185007691,,,,,,,,,,,,,,,,,,326,2023-11-10_11h22.50.290,leap3,2022.2.5,60.0212422034136,
,,,,,,,,,,,,,,,,,,,,13,0,13,0,15,0,15,0,,,,,,shockwave,w,g,lower,,,,,,,4,w,LoDemTar,h,0,0.8226278440561146,,,,,,,,,,,,,,,,,,326,2023-11-10_11h22.50.290,leap3,2022.2.5,60.0212422034136,
,,,,,,,,,,,,,,,,,,,,13,0,13,0,16,0,16,0,,,,,,even,w,g,lower,,,,,,,4,w,LoDemTar,g,1,0.531982536194846,,,,,,,,,,,,,,,,,,326,2023-11-10_11h22.50.290,leap3,2022.2.5,60.0212422034136,
,,,,,,,,,,,,,,,,,,,,13,0,13,0,17,0,17,0,,,,,,statute,w,g,lower,,,,,,,4,w,LoDemTar,g,1,0.7733784911688417,,,,,,,,,,,,,,,,,,326,2023-11-10_11h22.50.290,leap3,2022.2.5,60.0212422034136,
,,,,,,,,,,,,,,,,,,,,13,0,13,0,18,0,18,0,,,,,,chrayed,nw,h,lower,,,,,,,4,nw,LoDemTar,h,1,0.700742159737274,,,,,,,,,,,,,,,,,,326,2023-11-10_11h22.50.290,leap3,2022.2.5,60.0212422034136,
,,,,,,,,,,,,,,,,,,,,13,0,13,0,19,0,19,0,,,,,,subber,nw,h,lower,,,,,,,4,nw,LoDemTar,h,1,0.7587701133452356,,,,,,,,,,,,,,,,,,326,2023-11-10_11h22.50.290,leap3,2022.2.5,60.0212422034136,
,,,,,,,,,,,,,,,,,,,,13,0,13,0,20,0,20,0,,,,,,ausht,nw,h,lower,,,,,,,4,nw,LoDemTar,h,1,0.525723694358021,,,,,,,,,,,,,,,,,,326,2023-11-10_11h22.50.290,leap3,2022.2.5,60.0212422034136,
,,,,,,,,,,,,,,,,,,,,13,0,13,0,21,0,21,0,,,,,,afternoon,w,g,lower,,,,,,,4,w,LoDemTar,g,1,0.495428318856284,,,,,,,,,,,,,,,,,,326,2023-11-10_11h22.50.290,leap3,2022.2.5,60.0212422034136,
,,,,,,,,,,,,,,,,,,,,13,0,13,0,22,0,22,0,,,,,,joadbed,nw,h,lower,,,,,,,4,nw,LoDemTar,h,1,0.6418292615562677,,,,,,,,,,,,,,,,,,326,2023-11-10_11h22.50.290,leap3,2022.2.5,60.0212422034136,
,,,,,,,,,,,,,,,,,,,,13,0,13,0,23,0,23,0,,,,,,chappef,nw,h,lower,,,,,,,4,nw,LoDemTar,h,1,0.5185166741721332,,,,,,,,,,,,,,,,,,326,2023-11-10_11h22.50.290,leap3,2022.2.5,60.0212422034136,
,,,,,,,,,,,,,,,,,,,,13,0,13,0,24,0,24,0,,,,,,moozy,nw,h,lower,,,,,,,4,nw,LoDemTar,h,1,0.607892137253657,,,,,,,,,,,,,,,,,,326,2023-11-10_11h22.50.290,leap3,2022.2.5,60.0212422034136,
,,,,,,,,,,,,,,,,,,,,13,0,13,0,25,0,25,0,,,,,,leather,w,g,lower,,,,,,,4,w,LoDemTar,g,1,0.6459490724373609,,,,,,,,,,,,,,,,,,326,2023-11-10_11h22.50.290,leap3,2022.2.5,60.0212422034136,
,,,,,,,,,,,,,,,,,,,,13,0,13,0,26,0,26,0,,,,,,roughly,w,g,lower,,,,,,,4,w,LoDemTar,g,1,0.5381417262833565,,,,,,,,,,,,,,,,,,326,2023-11-10_11h22.50.290,leap3,2022.2.5,60.0212422034136,
,,,,,,,,,,,,,,,,,,,,13,0,13,0,27,0,27,0,,,,,,lindo,nw,h,lower,,,,,,,4,nw,LoDemTar,h,1,0.5713154075201601,,,,,,,,,,,,,,,,,,326,2023-11-10_11h22.50.290,leap3,2022.2.5,60.0212422034136,
,,,,,,,,,,,,,,,,,,,,13,0,13,0,28,0,28,0,,,,,,pigned,nw,h,lower,,,,,,,4,nw,LoDemTar,h,1,0.6827284158207476,,,,,,,,,,,,,,,,,,326,2023-11-10_11h22.50.290,leap3,2022.2.5,60.0212422034136,
,,,,,,,,,,,,,,,,,,,,13,0,13,0,29,0,29,0,,,,,,lizard,target,q,lower,,,,,,,4,target,LoDemTar,g,0,0.637284359196201,q,1,,,,,,,,,,,,,,,,326,2023-11-10_11h22.50.290,leap3,2022.2.5,60.0212422034136,
,,,,,,,,,,,,,,,,,,,,13,0,13,0,,,,,,,,,,,,,,,,,,,,,,,,,,,,,,,,,,,,,,,,,,,326,2023-11-10_11h22.50.290,leap3,2022.2.5,60.0212422034136,
,,,,,,,,,,,,,,,,,,,,14,0,14,0,0,0,0,0,,,,,,rocket,w,g,upper,,,,,,,1,w,HiDemTar,g,1,0.6747480204794556,,,,,,,,,,,,,,,,,,326,2023-11-10_11h22.50.290,leap3,2022.2.5,60.0212422034136,
,,,,,,,,,,,,,,,,,,,,14,0,14,0,1,0,1,0,,,,,,aggepting,nw,h,upper,,,,,,,1,nw,HiDemTar,h,1,0.5740400974173099,,,,,,,,,,,,,,,,,,326,2023-11-10_11h22.50.290,leap3,2022.2.5,60.0212422034136,
,,,,,,,,,,,,,,,,,,,,14,0,14,0,2,0,2,0,,,,,,ements,nw,h,upper,,,,,,,1,nw,HiDemTar,h,1,0.4936786242760718,,,,,,,,,,,,,,,,,,326,2023-11-10_11h22.50.290,leap3,2022.2.5,60.0212422034136,
,,,,,,,,,,,,,,,,,,,,14,0,14,0,3,0,3,0,,,,,,unbridled,w,g,upper,,,,,,,1,w,HiDemTar,h,0,0.5441039309371263,,,,,,,,,,,,,,,,,,326,2023-11-10_11h22.50.290,leap3,2022.2.5,60.0212422034136,
,,,,,,,,,,,,,,,,,,,,14,0,14,0,4,0,4,0,,,,,,unstatle,nw,h,upper,,,,,,,1,nw,HiDemTar,h,1,0.4650594461709261,,,,,,,,,,,,,,,,,,326,2023-11-10_11h22.50.290,leap3,2022.2.5,60.0212422034136,
,,,,,,,,,,,,,,,,,,,,14,0,14,0,5,0,5,0,,,,,,plapping,nw,h,upper,,,,,,,1,nw,HiDemTar,h,1,0.5005429892335087,,,,,,,,,,,,,,,,,,326,2023-11-10_11h22.50.290,leap3,2022.2.5,60.0212422034136,
,,,,,,,,,,,,,,,,,,,,14,0,14,0,6,0,6,0,,,,,,baseline,w,g,upper,,,,,,,1,w,HiDemTar,g,1,0.6632268519606441,,,,,,,,,,,,,,,,,,326,2023-11-10_11h22.50.290,leap3,2022.2.5,60.0212422034136,
,,,,,,,,,,,,,,,,,,,,14,0,14,0,7,0,7,0,,,,,,burning,w,g,upper,,,,,,,1,w,HiDemTar,g,1,0.5232595549896359,,,,,,,,,,,,,,,,,,326,2023-11-10_11h22.50.290,leap3,2022.2.5,60.0212422034136,
,,,,,,,,,,,,,,,,,,,,14,0,14,0,8,0,8,0,,,,,,sporidic,nw,h,upper,,,,,,,1,nw,HiDemTar,h,1,0.6691787936724722,,,,,,,,,,,,,,,,,,326,2023-11-10_11h22.50.290,leap3,2022.2.5,60.0212422034136,
,,,,,,,,,,,,,,,,,,,,14,0,14,0,9,0,9,0,,,,,,elvisages,nw,h,upper,,,,,,,1,nw,HiDemTar,h,1,0.5366989318281412,,,,,,,,,,,,,,,,,,326,2023-11-10_11h22.50.290,leap3,2022.2.5,60.0212422034136,
,,,,,,,,,,,,,,,,,,,,14,0,14,0,10,0,10,0,,,,,,remade,w,g,upper,,,,,,,1,w,HiDemTar,h,0,0.5773713043890893,,,,,,,,,,,,,,,,,,326,2023-11-10_11h22.50.290,leap3,2022.2.5,60.0212422034136,
,,,,,,,,,,,,,,,,,,,,14,0,14,0,11,0,11,0,,,,,,gymnasium,w,g,upper,,,,,,,1,w,HiDemTar,g,1,0.6566942171193659,,,,,,,,,,,,,,,,,,326,2023-11-10_11h22.50.290,leap3,2022.2.5,60.0212422034136,
,,,,,,,,,,,,,,,,,,,,14,0,14,0,12,0,12,0,,,,,,throttle,w,g,upper,,,,,,,1,w,HiDemTar,g,1,0.740658373106271,,,,,,,,,,,,,,,,,,326,2023-11-10_11h22.50.290,leap3,2022.2.5,60.0212422034136,
,,,,,,,,,,,,,,,,,,,,14,0,14,0,13,0,13,0,,,,,,pived,nw,h,upper,,,,,,,1,nw,HiDemTar,h,1,0.653657992137596,,,,,,,,,,,,,,,,,,326,2023-11-10_11h22.50.290,leap3,2022.2.5,60.0212422034136,
,,,,,,,,,,,,,,,,,,,,14,0,14,0,14,0,14,0,,,,,,posing,w,g,upper,,,,,,,1,w,HiDemTar,g,1,0.5924441707320511,,,,,,,,,,,,,,,,,,326,2023-11-10_11h22.50.290,leap3,2022.2.5,60.0212422034136,
,,,,,,,,,,,,,,,,,,,,14,0,14,0,15,0,15,0,,,,,,stalemate,w,g,upper,,,,,,,1,w,HiDemTar,g,1,0.7591028367169201,,,,,,,,,,,,,,,,,,326,2023-11-10_11h22.50.290,leap3,2022.2.5,60.0212422034136,
,,,,,,,,,,,,,,,,,,,,14,0,14,0,16,0,16,0,,,,,,geissue,nw,h,upper,,,,,,,1,nw,HiDemTar,h,1,0.67112514260225,,,,,,,,,,,,,,,,,,326,2023-11-10_11h22.50.290,leap3,2022.2.5,60.0212422034136,
,,,,,,,,,,,,,,,,,,,,14,0,14,0,17,0,17,0,,,,,,elbalm,nw,h,upper,,,,,,,1,nw,HiDemTar,h,1,0.6904956034850329,,,,,,,,,,,,,,,,,,326,2023-11-10_11h22.50.290,leap3,2022.2.5,60.0212422034136,
,,,,,,,,,,,,,,,,,,,,14,0,14,0,18,0,18,0,,,,,,coster,nw,h,upper,,,,,,,1,nw,HiDemTar,g,0,0.8451649707276374,,,,,,,,,,,,,,,,,,326,2023-11-10_11h22.50.290,leap3,2022.2.5,60.0212422034136,
,,,,,,,,,,,,,,,,,,,,14,0,14,0,19,0,19,0,,,,,,currowing,nw,h,upper,,,,,,,1,nw,HiDemTar,h,1,0.6659157869871706,,,,,,,,,,,,,,,,,,326,2023-11-10_11h22.50.290,leap3,2022.2.5,60.0212422034136,
,,,,,,,,,,,,,,,,,,,,14,0,14,0,20,0,20,0,,,,,,confined,w,g,upper,,,,,,,1,w,HiDemTar,g,1,0.7092833847273141,,,,,,,,,,,,,,,,,,326,2023-11-10_11h22.50.290,leap3,2022.2.5,60.0212422034136,
,,,,,,,,,,,,,,,,,,,,14,0,14,0,21,0,21,0,,,,,,decant,w,g,upper,,,,,,,1,w,HiDemTar,g,1,1.0480007673613727,,,,,,,,,,,,,,,,,,326,2023-11-10_11h22.50.290,leap3,2022.2.5,60.0212422034136,
,,,,,,,,,,,,,,,,,,,,14,0,14,0,22,0,22,0,,,,,,colored,w,g,upper,,,,,,,1,w,HiDemTar,g,1,0.7007004453334957,,,,,,,,,,,,,,,,,,326,2023-11-10_11h22.50.290,leap3,2022.2.5,60.0212422034136,
,,,,,,,,,,,,,,,,,,,,14,0,14,0,23,0,23,0,,,,,,usage,w,g,upper,,,,,,,1,w,HiDemTar,g,1,0.5905805886723101,,,,,,,,,,,,,,,,,,326,2023-11-10_11h22.50.290,leap3,2022.2.5,60.0212422034136,
,,,,,,,,,,,,,,,,,,,,14,0,14,0,24,0,24,0,,,,,,sorping,nw,h,upper,,,,,,,1,nw,HiDemTar,h,1,0.957219920353964,,,,,,,,,,,,,,,,,,326,2023-11-10_11h22.50.290,leap3,2022.2.5,60.0212422034136,
,,,,,,,,,,,,,,,,,,,,14,0,14,0,25,0,25,0,,,,,,plymie,nw,h,upper,,,,,,,1,nw,HiDemTar,h,1,0.5334021558519453,,,,,,,,,,,,,,,,,,326,2023-11-10_11h22.50.290,leap3,2022.2.5,60.0212422034136,
,,,,,,,,,,,,,,,,,,,,14,0,14,0,26,0,26,0,,,,,,shimble,nw,h,upper,,,,,,,1,nw,HiDemTar,h,1,0.5102105075493455,,,,,,,,,,,,,,,,,,326,2023-11-10_11h22.50.290,leap3,2022.2.5,60.0212422034136,
,,,,,,,,,,,,,,,,,,,,14,0,14,0,27,0,27,0,,,,,,arpired,nw,h,upper,,,,,,,1,nw,HiDemTar,h,1,0.58463228889741,,,,,,,,,,,,,,,,,,326,2023-11-10_11h22.50.290,leap3,2022.2.5,60.0212422034136,
,,,,,,,,,,,,,,,,,,,,14,0,14,0,28,0,28,0,,,,,,rabbit,target,q,upper,,,,,,,1,target,HiDemTar,g,0,0.6081447422038764,,,,,,,,,,,,,,,,,,326,2023-11-10_11h22.50.290,leap3,2022.2.5,60.0212422034136,
,,,,,,,,,,,,,,,,,,,,14,0,14,0,29,0,29,0,,,,,,minister,w,g,upper,,,,,,,1,aftertar1,HiDemTar,g,1,0.8141035037115216,q,1,,,,,,,,,,,,,,,,326,2023-11-10_11h22.50.290,leap3,2022.2.5,60.0212422034136,
,,,,,,,,,,,,,,,,,,,,14,0,14,0,,,,,,,,,,,,,,,,,,,,,,,,,,,,,,,,,,,,,,,,,,,326,2023-11-10_11h22.50.290,leap3,2022.2.5,60.0212422034136,
,,,,,,,,,,,,,,,,,,,,15,0,15,0,0,0,0,0,,,,,,racile,nw,h,lower,,,,,,,3,nw,LoDemNoTar,h,1,0.9560078799258918,,,,,,,,,,,,,,,,,,326,2023-11-10_11h22.50.290,leap3,2022.2.5,60.0212422034136,
,,,,,,,,,,,,,,,,,,,,15,0,15,0,1,0,1,0,,,,,,chight,nw,h,lower,,,,,,,3,nw,LoDemNoTar,h,1,0.5962226504925638,,,,,,,,,,,,,,,,,,326,2023-11-10_11h22.50.290,leap3,2022.2.5,60.0212422034136,
,,,,,,,,,,,,,,,,,,,,15,0,15,0,2,0,2,0,,,,,,blipover,nw,h,lower,,,,,,,3,nw,LoDemNoTar,h,1,0.5873255275655538,,,,,,,,,,,,,,,,,,326,2023-11-10_11h22.50.290,leap3,2022.2.5,60.0212422034136,
,,,,,,,,,,,,,,,,,,,,15,0,15,0,3,0,3,0,,,,,,addma,nw,h,lower,,,,,,,3,nw,LoDemNoTar,h,1,0.5860098630655557,,,,,,,,,,,,,,,,,,326,2023-11-10_11h22.50.290,leap3,2022.2.5,60.0212422034136,
,,,,,,,,,,,,,,,,,,,,15,0,15,0,4,0,4,0,,,,,,triplet,w,g,lower,,,,,,,3,w,LoDemNoTar,q,0,0.7207618451211601,q,,,,,,,,,,,,,,,,,326,2023-11-10_11h22.50.290,leap3,2022.2.5,60.0212422034136,
,,,,,,,,,,,,,,,,,,,,15,0,15,0,5,0,5,0,,,,,,angry,w,g,lower,,,,,,,3,w,LoDemNoTar,g,1,0.7061230088584125,,,,,,,,,,,,,,,,,,326,2023-11-10_11h22.50.290,leap3,2022.2.5,60.0212422034136,
,,,,,,,,,,,,,,,,,,,,15,0,15,0,6,0,6,0,,,,,,tritical,nw,h,lower,,,,,,,3,nw,LoDemNoTar,h,1,0.9804526211228222,,,,,,,,,,,,,,,,,,326,2023-11-10_11h22.50.290,leap3,2022.2.5,60.0212422034136,
,,,,,,,,,,,,,,,,,,,,15,0,15,0,7,0,7,0,,,,,,kraums,nw,h,lower,,,,,,,3,nw,LoDemNoTar,h,1,0.6192457850556821,,,,,,,,,,,,,,,,,,326,2023-11-10_11h22.50.290,leap3,2022.2.5,60.0212422034136,
,,,,,,,,,,,,,,,,,,,,15,0,15,0,8,0,8,0,,,,,,cemoir,nw,h,lower,,,,,,,3,nw,LoDemNoTar,h,1,0.45662118354812264,,,,,,,,,,,,,,,,,,326,2023-11-10_11h22.50.290,leap3,2022.2.5,60.0212422034136,
,,,,,,,,,,,,,,,,,,,,15,0,15,0,9,0,9,0,,,,,,record,w,g,lower,,,,,,,3,w,LoDemNoTar,g,1,0.6608497833367437,,,,,,,,,,,,,,,,,,326,2023-11-10_11h22.50.290,leap3,2022.2.5,60.0212422034136,
,,,,,,,,,,,,,,,,,,,,15,0,15,0,10,0,10,0,,,,,,planar,w,g,lower,,,,,,,3,w,LoDemNoTar,h,0,0.689396126428619,,,,,,,,,,,,,,,,,,326,2023-11-10_11h22.50.290,leap3,2022.2.5,60.0212422034136,
,,,,,,,,,,,,,,,,,,,,15,0,15,0,11,0,11,0,,,,,,govern,w,g,lower,,,,,,,3,w,LoDemNoTar,h,0,0.6200284301303327,,,,,,,,,,,,,,,,,,326,2023-11-10_11h22.50.290,leap3,2022.2.5,60.0212422034136,
,,,,,,,,,,,,,,,,,,,,15,0,15,0,12,0,12,0,,,,,,fragment,w,g,lower,,,,,,,3,w,LoDemNoTar,g,1,0.6413995351176709,,,,,,,,,,,,,,,,,,326,2023-11-10_11h22.50.290,leap3,2022.2.5,60.0212422034136,
,,,,,,,,,,,,,,,,,,,,15,0,15,0,13,0,13,0,,,,,,itfidels,nw,h,lower,,,,,,,3,nw,LoDemNoTar,h,1,0.5814897909294814,,,,,,,,,,,,,,,,,,326,2023-11-10_11h22.50.290,leap3,2022.2.5,60.0212422034136,
,,,,,,,,,,,,,,,,,,,,15,0,15,0,14,0,14,0,,,,,,frunted,nw,h,lower,,,,,,,3,nw,LoDemNoTar,h,1,0.494005388347432,,,,,,,,,,,,,,,,,,326,2023-11-10_11h22.50.290,leap3,2022.2.5,60.0212422034136,
,,,,,,,,,,,,,,,,,,,,15,0,15,0,15,0,15,0,,,,,,observer,w,g,lower,,,,,,,3,w,LoDemNoTar,h,0,0.5041456718463451,,,,,,,,,,,,,,,,,,326,2023-11-10_11h22.50.290,leap3,2022.2.5,60.0212422034136,
,,,,,,,,,,,,,,,,,,,,15,0,15,0,16,0,16,0,,,,,,glaims,nw,h,lower,,,,,,,3,nw,LoDemNoTar,h,1,0.6902138644363731,,,,,,,,,,,,,,,,,,326,2023-11-10_11h22.50.290,leap3,2022.2.5,60.0212422034136,
,,,,,,,,,,,,,,,,,,,,15,0,15,0,17,0,17,0,,,,,,issue,w,g,lower,,,,,,,3,w,LoDemNoTar,g,1,0.516195555916056,,,,,,,,,,,,,,,,,,326,2023-11-10_11h22.50.290,leap3,2022.2.5,60.0212422034136,
,,,,,,,,,,,,,,,,,,,,15,0,15,0,18,0,18,0,,,,,,thorifies,nw,h,lower,,,,,,,3,nw,LoDemNoTar,h,1,0.5820092367939651,,,,,,,,,,,,,,,,,,326,2023-11-10_11h22.50.290,leap3,2022.2.5,60.0212422034136,
,,,,,,,,,,,,,,,,,,,,15,0,15,0,19,0,19,0,,,,,,fallint,nw,h,lower,,,,,,,3,nw,LoDemNoTar,h,1,0.5573926714714617,,,,,,,,,,,,,,,,,,326,2023-11-10_11h22.50.290,leap3,2022.2.5,60.0212422034136,
,,,,,,,,,,,,,,,,,,,,15,0,15,0,20,0,20,0,,,,,,partner,w,g,lower,,,,,,,3,w,LoDemNoTar,g,1,1.0293828241992742,,,,,,,,,,,,,,,,,,326,2023-11-10_11h22.50.290,leap3,2022.2.5,60.0212422034136,
,,,,,,,,,,,,,,,,,,,,15,0,15,0,21,0,21,0,,,,,,restock,w,g,lower,,,,,,,3,w,LoDemNoTar,g,1,0.6267279232852161,,,,,,,,,,,,,,,,,,326,2023-11-10_11h22.50.290,leap3,2022.2.5,60.0212422034136,
,,,,,,,,,,,,,,,,,,,,15,0,15,0,22,0,22,0,,,,,,peahem,nw,h,lower,,,,,,,3,nw,LoDemNoTar,h,1,0.6881466757040471,,,,,,,,,,,,,,,,,,326,2023-11-10_11h22.50.290,leap3,2022.2.5,60.0212422034136,
,,,,,,,,,,,,,,,,,,,,15,0,15,0,23,0,23,0,,,,,,sequence,w,g,lower,,,,,,,3,w,LoDemNoTar,g,1,0.5788366117049009,,,,,,,,,,,,,,,,,,326,2023-11-10_11h22.50.290,leap3,2022.2.5,60.0212422034136,
,,,,,,,,,,,,,,,,,,,,15,0,15,0,24,0,24,0,,,,,,rapport,w,g,lower,,,,,,,3,w,LoDemNoTar,g,1,0.6588646993041039,,,,,,,,,,,,,,,,,,326,2023-11-10_11h22.50.290,leap3,2022.2.5,60.0212422034136,
,,,,,,,,,,,,,,,,,,,,15,0,15,0,25,0,25,0,,,,,,topefuls,nw,h,lower,,,,,,,3,nw,LoDemNoTar,h,1,0.6709649057593197,,,,,,,,,,,,,,,,,,326,2023-11-10_11h22.50.290,leap3,2022.2.5,60.0212422034136,
,,,,,,,,,,,,,,,,,,,,15,0,15,0,26,0,26,0,,,,,,argue,w,g,lower,,,,,,,3,w,LoDemNoTar,g,1,0.5622686417773366,,,,,,,,,,,,,,,,,,326,2023-11-10_11h22.50.290,leap3,2022.2.5,60.0212422034136,
,,,,,,,,,,,,,,,,,,,,15,0,15,0,27,0,27,0,,,,,,acidic,w,g,lower,,,,,,,3,w,LoDemNoTar,g,1,0.6572924572974443,,,,,,,,,,,,,,,,,,326,2023-11-10_11h22.50.290,leap3,2022.2.5,60.0212422034136,
,,,,,,,,,,,,,,,,,,,,15,0,15,0,28,0,28,0,,,,,,grummer,nw,h,lower,,,,,,,3,nw,LoDemNoTar,h,1,0.7893478898331523,,,,,,,,,,,,,,,,,,326,2023-11-10_11h22.50.290,leap3,2022.2.5,60.0212422034136,
,,,,,,,,,,,,,,,,,,,,15,0,15,0,29,0,29,0,,,,,,splatter,w,g,lower,,,,,,,3,w,LoDemNoTar,g,1,0.6600601861719042,,,,,,,,,,,,,,,,,,326,2023-11-10_11h22.50.290,leap3,2022.2.5,60.0212422034136,
,,,,,,,,,,,,,,,,,,,,15,0,15,0,,,,,,,,,,,,,,,,,,,,,,,,,,,,,,,,,,,,,,,,,,,326,2023-11-10_11h22.50.290,leap3,2022.2.5,60.0212422034136,
,,,,,,,,,,,,,,,,,,,,16,0,16,0,0,0,0,0,,,,,,harder,w,g,lower,,,,,,,3,w,LoDemNoTar,g,1,0.5528537286445498,,,,,,,,,,,,,,,,,,326,2023-11-10_11h22.50.290,leap3,2022.2.5,60.0212422034136,
,,,,,,,,,,,,,,,,,,,,16,0,16,0,1,0,1,0,,,,,,fisco,nw,h,lower,,,,,,,3,nw,LoDemNoTar,h,1,0.569207166088745,,,,,,,,,,,,,,,,,,326,2023-11-10_11h22.50.290,leap3,2022.2.5,60.0212422034136,
,,,,,,,,,,,,,,,,,,,,16,0,16,0,2,0,2,0,,,,,,advantage,w,g,lower,,,,,,,3,w,LoDemNoTar,g,1,0.6233305027708411,,,,,,,,,,,,,,,,,,326,2023-11-10_11h22.50.290,leap3,2022.2.5,60.0212422034136,
,,,,,,,,,,,,,,,,,,,,16,0,16,0,3,0,3,0,,,,,,persona,w,g,lower,,,,,,,3,w,LoDemNoTar,g,1,0.644586727488786,,,,,,,,,,,,,,,,,,326,2023-11-10_11h22.50.290,leap3,2022.2.5,60.0212422034136,
,,,,,,,,,,,,,,,,,,,,16,0,16,0,4,0,4,0,,,,,,tracing,w,g,lower,,,,,,,3,w,LoDemNoTar,g,1,0.6252940676640719,,,,,,,,,,,,,,,,,,326,2023-11-10_11h22.50.290,leap3,2022.2.5,60.0212422034136,
,,,,,,,,,,,,,,,,,,,,16,0,16,0,5,0,5,0,,,,,,galashes,nw,h,lower,,,,,,,3,nw,LoDemNoTar,h,1,0.7187410057522357,,,,,,,,,,,,,,,,,,326,2023-11-10_11h22.50.290,leap3,2022.2.5,60.0212422034136,
,,,,,,,,,,,,,,,,,,,,16,0,16,0,6,0,6,0,,,,,,sprea,nw,h,lower,,,,,,,3,nw,LoDemNoTar,g,0,0.8867990961298347,,,,,,,,,,,,,,,,,,326,2023-11-10_11h22.50.290,leap3,2022.2.5,60.0212422034136,
,,,,,,,,,,,,,,,,,,,,16,0,16,0,7,0,7,0,,,,,,valif,nw,h,lower,,,,,,,3,nw,LoDemNoTar,h,1,0.6514802263118327,,,,,,,,,,,,,,,,,,326,2023-11-10_11h22.50.290,leap3,2022.2.5,60.0212422034136,
,,,,,,,,,,,,,,,,,,,,16,0,16,0,8,0,8,0,,,,,,itself,w,g,lower,,,,,,,3,w,LoDemNoTar,g,1,0.6321898840833455,,,,,,,,,,,,,,,,,,326,2023-11-10_11h22.50.290,leap3,2022.2.5,60.0212422034136,
,,,,,,,,,,,,,,,,,,,,16,0,16,0,9,0,9,0,,,,,,ralliep,nw,h,lower,,,,,,,3,nw,LoDemNoTar,h,1,0.5256270226091146,,,,,,,,,,,,,,,,,,326,2023-11-10_11h22.50.290,leap3,2022.2.5,60.0212422034136,
,,,,,,,,,,,,,,,,,,,,16,0,16,0,10,0,10,0,,,,,,ragtam,nw,h,lower,,,,,,,3,nw,LoDemNoTar,h,1,0.6710208561271429,,,,,,,,,,,,,,,,,,326,2023-11-10_11h22.50.290,leap3,2022.2.5,60.0212422034136,
,,,,,,,,,,,,,,,,,,,,16,0,16,0,11,0,11,0,,,,,,enabled,w,g,lower,,,,,,,3,w,LoDemNoTar,g,1,0.6183439556043595,,,,,,,,,,,,,,,,,,326,2023-11-10_11h22.50.290,leap3,2022.2.5,60.0212422034136,
,,,,,,,,,,,,,,,,,,,,16,0,16,0,12,0,12,0,,,,,,arrested,w,g,lower,,,,,,,3,w,LoDemNoTar,g,1,0.5106071271002293,,,,,,,,,,,,,,,,,,326,2023-11-10_11h22.50.290,leap3,2022.2.5,60.0212422034136,
,,,,,,,,,,,,,,,,,,,,16,0,16,0,13,0,13,0,,,,,,typical,w,g,lower,,,,,,,3,w,LoDemNoTar,g,1,0.5048074768856168,,,,,,,,,,,,,,,,,,326,2023-11-10_11h22.50.290,leap3,2022.2.5,60.0212422034136,
