demoRace_loop.thisRepN,demoRace_loop.thisTrialN,demoRace_loop.thisN,demoRace_loop.thisIndex,LDTunderstand.thisRepN,LDTunderstand.thisTrialN,LDTunderstand.thisN,LDTunderstand.thisIndex,pracBlocks.thisRepN,pracBlocks.thisTrialN,pracBlocks.thisN,pracBlocks.thisIndex,pracTrial.thisRepN,pracTrial.thisTrialN,pracTrial.thisN,pracTrial.thisIndex,PMunderstand.thisRepN,PMunderstand.thisTrialN,PMunderstand.thisN,PMunderstand.thisIndex,LDT_block.thisRepN,LDT_block.thisTrialN,LDT_block.thisN,LDT_block.thisIndex,LDT_trial.thisRepN,LDT_trial.thisTrialN,LDT_trial.thisN,LDT_trial.thisIndex,ageTextbox.text,genderTextbox.text,race,raceResp,LDTunderstand,stim,word_type,corr_key,stim_location,LDTpracKey.keys,LDTpracKey.corr,LDTpracKey.rt,PMunderstand,cueTextbox.text,intentionTextbox.text,block_type,role,block_desc,LDTResp.keys,LDTResp.corr,LDTResp.rt,pressedQ,postQ1,Q2Textbox.text,Q3Textbox.text,Q4,Q5,Q6Key.keys,Q6Key.rt,postQ7_correct,postQ7,Q8Textbox.text,education,medTextbox.text,health,healthLimit,psych,participant,date,expName,psychopyVersion,frameRate,
0,0,0,0,,,,,,,,,,,,,,,,,,,,,,,,,"
21", male ,American Indian or Alaska Native,n,,,,,,,,,,,,,,,,,,,,,,,,,,,,,,,,,,327,2023-11-10_12h28.36.454,leap3,2022.2.5,60.064807021933994,
1,0,1,0,,,,,,,,,,,,,,,,,,,,,,,,,,,Asian,n,,,,,,,,,,,,,,,,,,,,,,,,,,,,,,,,,,327,2023-11-10_12h28.36.454,leap3,2022.2.5,60.064807021933994,
2,0,2,0,,,,,,,,,,,,,,,,,,,,,,,,,,,Black or African American,n,,,,,,,,,,,,,,,,,,,,,,,,,,,,,,,,,,327,2023-11-10_12h28.36.454,leap3,2022.2.5,60.064807021933994,
3,0,3,0,,,,,,,,,,,,,,,,,,,,,,,,,,,Native Hawaiian or other Pacific Islander,n,,,,,,,,,,,,,,,,,,,,,,,,,,,,,,,,,,327,2023-11-10_12h28.36.454,leap3,2022.2.5,60.064807021933994,
4,0,4,0,,,,,,,,,,,,,,,,,,,,,,,,,,,White,y,,,,,,,,,,,,,,,,,,,,,,,,,,,,,,,,,,327,2023-11-10_12h28.36.454,leap3,2022.2.5,60.064807021933994,
,,,,0,0,0,0,,,,,,,,,,,,,,,,,,,,,,,,,y,,,,,,,,,,,,,,,,,,,,,,,,,,,,,,,,,327,2023-11-10_12h28.36.454,leap3,2022.2.5,60.064807021933994,
,,,,,,,,0,0,0,0,0,0,0,0,,,,,,,,,,,,,,,,,,lurshing,nw,h,lower,g,0,0.520222602179274,,,,,,,,,,,,,,,,,,,,,,,,,,327,2023-11-10_12h28.36.454,leap3,2022.2.5,60.064807021933994,
,,,,,,,,0,0,0,0,1,0,1,0,,,,,,,,,,,,,,,,,,revival,w,g,lower,g,1,0.6247987241949886,,,,,,,,,,,,,,,,,,,,,,,,,,327,2023-11-10_12h28.36.454,leap3,2022.2.5,60.064807021933994,
,,,,,,,,0,0,0,0,2,0,2,0,,,,,,,,,,,,,,,,,,unscrew,w,g,lower,g,1,0.5176515278872102,,,,,,,,,,,,,,,,,,,,,,,,,,327,2023-11-10_12h28.36.454,leap3,2022.2.5,60.064807021933994,
,,,,,,,,0,0,0,0,3,0,3,0,,,,,,,,,,,,,,,,,,hiring,w,g,lower,g,1,0.5243804862257093,,,,,,,,,,,,,,,,,,,,,,,,,,327,2023-11-10_12h28.36.454,leap3,2022.2.5,60.064807021933994,
,,,,,,,,0,0,0,0,4,0,4,0,,,,,,,,,,,,,,,,,,julled,nw,h,lower,h,1,0.4457216956652701,,,,,,,,,,,,,,,,,,,,,,,,,,327,2023-11-10_12h28.36.454,leap3,2022.2.5,60.064807021933994,
,,,,,,,,0,0,0,0,5,0,5,0,,,,,,,,,,,,,,,,,,sponsor,w,g,lower,g,1,0.5143789199646562,,,,,,,,,,,,,,,,,,,,,,,,,,327,2023-11-10_12h28.36.454,leap3,2022.2.5,60.064807021933994,
,,,,,,,,0,0,0,0,6,0,6,0,,,,,,,,,,,,,,,,,,treeps,nw,h,lower,g,0,0.42189207929186523,,,,,,,,,,,,,,,,,,,,,,,,,,327,2023-11-10_12h28.36.454,leap3,2022.2.5,60.064807021933994,
,,,,,,,,0,0,0,0,7,0,7,0,,,,,,,,,,,,,,,,,,picture,w,g,lower,g,1,1.1717453333549201,,,,,,,,,,,,,,,,,,,,,,,,,,327,2023-11-10_12h28.36.454,leap3,2022.2.5,60.064807021933994,
,,,,,,,,0,0,0,0,8,0,8,0,,,,,,,,,,,,,,,,,,tricycle,w,g,lower,g,1,0.5698404340073466,,,,,,,,,,,,,,,,,,,,,,,,,,327,2023-11-10_12h28.36.454,leap3,2022.2.5,60.064807021933994,
,,,,,,,,0,0,0,0,9,0,9,0,,,,,,,,,,,,,,,,,,grutch,nw,h,lower,h,1,0.7215431004296988,,,,,,,,,,,,,,,,,,,,,,,,,,327,2023-11-10_12h28.36.454,leap3,2022.2.5,60.064807021933994,
,,,,,,,,0,0,0,0,10,0,10,0,,,,,,,,,,,,,,,,,,crinklo,nw,h,lower,h,1,0.6985249316785485,,,,,,,,,,,,,,,,,,,,,,,,,,327,2023-11-10_12h28.36.454,leap3,2022.2.5,60.064807021933994,
,,,,,,,,0,0,0,0,11,0,11,0,,,,,,,,,,,,,,,,,,umpire,w,g,lower,g,1,0.6703195886220783,,,,,,,,,,,,,,,,,,,,,,,,,,327,2023-11-10_12h28.36.454,leap3,2022.2.5,60.064807021933994,
,,,,,,,,0,0,0,0,12,0,12,0,,,,,,,,,,,,,,,,,,grocus,nw,h,lower,h,1,0.6016295885201544,,,,,,,,,,,,,,,,,,,,,,,,,,327,2023-11-10_12h28.36.454,leap3,2022.2.5,60.064807021933994,
,,,,,,,,0,0,0,0,13,0,13,0,,,,,,,,,,,,,,,,,,latador,nw,h,lower,h,1,0.9597061758395284,,,,,,,,,,,,,,,,,,,,,,,,,,327,2023-11-10_12h28.36.454,leap3,2022.2.5,60.064807021933994,
,,,,,,,,0,0,0,0,,,,,,,,,,,,,,,,,,,,,,,,,,,,,,,,,,,,,,,,,,,,,,,,,,,,,,327,2023-11-10_12h28.36.454,leap3,2022.2.5,60.064807021933994,
,,,,,,,,1,0,1,0,0,0,0,0,,,,,,,,,,,,,,,,,,alolition,nw,h,upper,h,1,0.8162113486323506,,,,,,,,,,,,,,,,,,,,,,,,,,327,2023-11-10_12h28.36.454,leap3,2022.2.5,60.064807021933994,
,,,,,,,,1,0,1,0,1,0,1,0,,,,,,,,,,,,,,,,,,overshoot,w,g,upper,g,1,0.5823571239598095,,,,,,,,,,,,,,,,,,,,,,,,,,327,2023-11-10_12h28.36.454,leap3,2022.2.5,60.064807021933994,
,,,,,,,,1,0,1,0,2,0,2,0,,,,,,,,,,,,,,,,,,infinity,w,g,upper,g,1,0.4927340217400342,,,,,,,,,,,,,,,,,,,,,,,,,,327,2023-11-10_12h28.36.454,leap3,2022.2.5,60.064807021933994,
,,,,,,,,1,0,1,0,3,0,3,0,,,,,,,,,,,,,,,,,,reputable,w,g,upper,g,1,0.5668548622634262,,,,,,,,,,,,,,,,,,,,,,,,,,327,2023-11-10_12h28.36.454,leap3,2022.2.5,60.064807021933994,
,,,,,,,,1,0,1,0,4,0,4,0,,,,,,,,,,,,,,,,,,hasking,nw,h,upper,h,1,0.5108911180868745,,,,,,,,,,,,,,,,,,,,,,,,,,327,2023-11-10_12h28.36.454,leap3,2022.2.5,60.064807021933994,
,,,,,,,,1,0,1,0,5,0,5,0,,,,,,,,,,,,,,,,,,grimace,w,g,upper,g,1,1.1853979176376015,,,,,,,,,,,,,,,,,,,,,,,,,,327,2023-11-10_12h28.36.454,leap3,2022.2.5,60.064807021933994,
,,,,,,,,1,0,1,0,6,0,6,0,,,,,,,,,,,,,,,,,,turative,nw,h,upper,h,1,0.5841578030958772,,,,,,,,,,,,,,,,,,,,,,,,,,327,2023-11-10_12h28.36.454,leap3,2022.2.5,60.064807021933994,
,,,,,,,,1,0,1,0,7,0,7,0,,,,,,,,,,,,,,,,,,slumber,w,g,upper,g,1,0.798900131136179,,,,,,,,,,,,,,,,,,,,,,,,,,327,2023-11-10_12h28.36.454,leap3,2022.2.5,60.064807021933994,
,,,,,,,,1,0,1,0,8,0,8,0,,,,,,,,,,,,,,,,,,busted,w,g,upper,g,1,0.509648619685322,,,,,,,,,,,,,,,,,,,,,,,,,,327,2023-11-10_12h28.36.454,leap3,2022.2.5,60.064807021933994,
,,,,,,,,1,0,1,0,9,0,9,0,,,,,,,,,,,,,,,,,,lumbigo,nw,h,upper,h,1,0.6063221471849829,,,,,,,,,,,,,,,,,,,,,,,,,,327,2023-11-10_12h28.36.454,leap3,2022.2.5,60.064807021933994,
,,,,,,,,1,0,1,0,10,0,10,0,,,,,,,,,,,,,,,,,,curlecs,nw,h,upper,h,1,0.4687196691520512,,,,,,,,,,,,,,,,,,,,,,,,,,327,2023-11-10_12h28.36.454,leap3,2022.2.5,60.064807021933994,
,,,,,,,,1,0,1,0,11,0,11,0,,,,,,,,,,,,,,,,,,summary,w,g,upper,g,1,0.5200958030764014,,,,,,,,,,,,,,,,,,,,,,,,,,327,2023-11-10_12h28.36.454,leap3,2022.2.5,60.064807021933994,
,,,,,,,,1,0,1,0,12,0,12,0,,,,,,,,,,,,,,,,,,trotch,nw,h,upper,h,1,0.6497794643510133,,,,,,,,,,,,,,,,,,,,,,,,,,327,2023-11-10_12h28.36.454,leap3,2022.2.5,60.064807021933994,
,,,,,,,,1,0,1,0,13,0,13,0,,,,,,,,,,,,,,,,,,raestro,nw,h,upper,h,1,0.5589380317833275,,,,,,,,,,,,,,,,,,,,,,,,,,327,2023-11-10_12h28.36.454,leap3,2022.2.5,60.064807021933994,
,,,,,,,,1,0,1,0,,,,,,,,,,,,,,,,,,,,,,,,,,,,,,,,,,,,,,,,,,,,,,,,,,,,,,327,2023-11-10_12h28.36.454,leap3,2022.2.5,60.064807021933994,
,,,,,,,,,,,,,,,,0,0,0,0,,,,,,,,,,,,,,,,,,,,,y,,,,,,,,,,,,,,,,,,,,,,,,,327,2023-11-10_12h28.36.454,leap3,2022.2.5,60.064807021933994,
,,,,,,,,,,,,,,,,,,,,0,0,0,0,0,0,0,0,,,,,,tucker,w,g,lower,,,,,animal,"
q",1,w,HiDemTar,h,0,0.7996718506328762,,,,,,,,,,,,,,,,,327,2023-11-10_12h28.36.454,leap3,2022.2.5,60.064807021933994,
,,,,,,,,,,,,,,,,,,,,0,0,0,0,1,0,1,0,,,,,,portify,nw,h,lower,,,,,,,1,nw,HiDemTar,h,1,0.7349685721565038,,,,,,,,,,,,,,,,,327,2023-11-10_12h28.36.454,leap3,2022.2.5,60.064807021933994,
,,,,,,,,,,,,,,,,,,,,0,0,0,0,2,0,2,0,,,,,,vivid,w,g,lower,,,,,,,1,w,HiDemTar,g,1,0.6724642475601286,,,,,,,,,,,,,,,,,327,2023-11-10_12h28.36.454,leap3,2022.2.5,60.064807021933994,
,,,,,,,,,,,,,,,,,,,,0,0,0,0,3,0,3,0,,,,,,infancy,w,g,lower,,,,,,,1,w,HiDemTar,g,1,0.6364533130545169,,,,,,,,,,,,,,,,,327,2023-11-10_12h28.36.454,leap3,2022.2.5,60.064807021933994,
,,,,,,,,,,,,,,,,,,,,0,0,0,0,4,0,4,0,,,,,,galashes,nw,h,lower,,,,,,,1,nw,HiDemTar,h,1,0.7059180124197155,,,,,,,,,,,,,,,,,327,2023-11-10_12h28.36.454,leap3,2022.2.5,60.064807021933994,
,,,,,,,,,,,,,,,,,,,,0,0,0,0,5,0,5,0,,,,,,resume,w,g,lower,,,,,,,1,w,HiDemTar,g,1,0.7645256659016013,,,,,,,,,,,,,,,,,327,2023-11-10_12h28.36.454,leap3,2022.2.5,60.064807021933994,
,,,,,,,,,,,,,,,,,,,,0,0,0,0,6,0,6,0,,,,,,issue,w,g,lower,,,,,,,1,w,HiDemTar,g,1,0.6212738426402211,,,,,,,,,,,,,,,,,327,2023-11-10_12h28.36.454,leap3,2022.2.5,60.064807021933994,
,,,,,,,,,,,,,,,,,,,,0,0,0,0,7,0,7,0,,,,,,peahem,nw,h,lower,,,,,,,1,nw,HiDemTar,h,1,0.5073824590072036,,,,,,,,,,,,,,,,,327,2023-11-10_12h28.36.454,leap3,2022.2.5,60.064807021933994,
,,,,,,,,,,,,,,,,,,,,0,0,0,0,8,0,8,0,,,,,,uncle,w,g,lower,,,,,,,1,w,HiDemTar,g,1,0.6690317338798195,,,,,,,,,,,,,,,,,327,2023-11-10_12h28.36.454,leap3,2022.2.5,60.064807021933994,
,,,,,,,,,,,,,,,,,,,,0,0,0,0,9,0,9,0,,,,,,noblin,nw,h,lower,,,,,,,1,nw,HiDemTar,h,1,0.737062577623874,,,,,,,,,,,,,,,,,327,2023-11-10_12h28.36.454,leap3,2022.2.5,60.064807021933994,
,,,,,,,,,,,,,,,,,,,,0,0,0,0,10,0,10,0,,,,,,bamboo,w,g,lower,,,,,,,1,w,HiDemTar,g,1,0.8184400987811387,,,,,,,,,,,,,,,,,327,2023-11-10_12h28.36.454,leap3,2022.2.5,60.064807021933994,
,,,,,,,,,,,,,,,,,,,,0,0,0,0,11,0,11,0,,,,,,require,w,g,lower,,,,,,,1,w,HiDemTar,g,1,0.5582811927888542,,,,,,,,,,,,,,,,,327,2023-11-10_12h28.36.454,leap3,2022.2.5,60.064807021933994,
,,,,,,,,,,,,,,,,,,,,0,0,0,0,12,0,12,0,,,,,,figure,w,g,lower,,,,,,,1,w,HiDemTar,g,1,0.5452076462097466,,,,,,,,,,,,,,,,,327,2023-11-10_12h28.36.454,leap3,2022.2.5,60.064807021933994,
,,,,,,,,,,,,,,,,,,,,0,0,0,0,13,0,13,0,,,,,,unwose,nw,h,lower,,,,,,,1,nw,HiDemTar,g,0,0.5859055111650378,,,,,,,,,,,,,,,,,327,2023-11-10_12h28.36.454,leap3,2022.2.5,60.064807021933994,
,,,,,,,,,,,,,,,,,,,,0,0,0,0,14,0,14,0,,,,,,elephant,target,q,lower,,,,,,,1,target,HiDemTar,q,1,0.713701753411442,q,,,,,,,,,,,,,,,,327,2023-11-10_12h28.36.454,leap3,2022.2.5,60.064807021933994,
,,,,,,,,,,,,,,,,,,,,0,0,0,0,15,0,15,0,,,,,,unburnid,nw,h,lower,,,,,,,1,aftertar1,HiDemTar,h,1,0.7644534932915121,,,,,,,,,,,,,,,,,327,2023-11-10_12h28.36.454,leap3,2022.2.5,60.064807021933994,
,,,,,,,,,,,,,,,,,,,,0,0,0,0,16,0,16,0,,,,,,priant,nw,h,lower,,,,,,,1,aftertar2,HiDemTar,h,1,0.6771803118754178,,,,,,,,,,,,,,,,,327,2023-11-10_12h28.36.454,leap3,2022.2.5,60.064807021933994,
,,,,,,,,,,,,,,,,,,,,0,0,0,0,17,0,17,0,,,,,,planar,w,g,lower,,,,,,,1,aftertar3,HiDemTar,h,0,0.6721507259644568,,,,,,,,,,,,,,,,,327,2023-11-10_12h28.36.454,leap3,2022.2.5,60.064807021933994,
,,,,,,,,,,,,,,,,,,,,0,0,0,0,18,0,18,0,,,,,,vaporize,w,g,lower,,,,,,,1,w,HiDemTar,g,1,0.5714858421124518,,,,,,,,,,,,,,,,,327,2023-11-10_12h28.36.454,leap3,2022.2.5,60.064807021933994,
,,,,,,,,,,,,,,,,,,,,0,0,0,0,19,0,19,0,,,,,,glassware,w,g,lower,,,,,,,1,w,HiDemTar,g,1,0.5398824166040868,,,,,,,,,,,,,,,,,327,2023-11-10_12h28.36.454,leap3,2022.2.5,60.064807021933994,
,,,,,,,,,,,,,,,,,,,,0,0,0,0,20,0,20,0,,,,,,egcused,nw,h,lower,,,,,,,1,w,HiDemTar,h,1,0.8128400826826692,,,,,,,,,,,,,,,,,327,2023-11-10_12h28.36.454,leap3,2022.2.5,60.064807021933994,
,,,,,,,,,,,,,,,,,,,,0,0,0,0,21,0,21,0,,,,,,obviously,w,g,lower,,,,,,,1,nw,HiDemTar,g,1,0.6275916143786162,,,,,,,,,,,,,,,,,327,2023-11-10_12h28.36.454,leap3,2022.2.5,60.064807021933994,
,,,,,,,,,,,,,,,,,,,,0,0,0,0,22,0,22,0,,,,,,volder,nw,h,lower,,,,,,,1,w,HiDemTar,h,1,0.6416424738708884,,,,,,,,,,,,,,,,,327,2023-11-10_12h28.36.454,leap3,2022.2.5,60.064807021933994,
,,,,,,,,,,,,,,,,,,,,0,0,0,0,23,0,23,0,,,,,,mitro,nw,h,lower,,,,,,,1,nw,HiDemTar,h,1,0.774998010834679,,,,,,,,,,,,,,,,,327,2023-11-10_12h28.36.454,leap3,2022.2.5,60.064807021933994,
,,,,,,,,,,,,,,,,,,,,0,0,0,0,24,0,24,0,,,,,,saturate,w,g,lower,,,,,,,1,nw,HiDemTar,g,1,0.6465128159616143,,,,,,,,,,,,,,,,,327,2023-11-10_12h28.36.454,leap3,2022.2.5,60.064807021933994,
,,,,,,,,,,,,,,,,,,,,0,0,0,0,25,0,25,0,,,,,,gradielts,nw,h,lower,,,,,,,1,w,HiDemTar,h,1,0.6524028475396335,,,,,,,,,,,,,,,,,327,2023-11-10_12h28.36.454,leap3,2022.2.5,60.064807021933994,
,,,,,,,,,,,,,,,,,,,,0,0,0,0,26,0,26,0,,,,,,yearnungs,nw,h,lower,,,,,,,1,nw,HiDemTar,h,1,0.6718170093372464,,,,,,,,,,,,,,,,,327,2023-11-10_12h28.36.454,leap3,2022.2.5,60.064807021933994,
,,,,,,,,,,,,,,,,,,,,0,0,0,0,27,0,27,0,,,,,,maximized,w,g,lower,,,,,,,1,nw,HiDemTar,g,1,0.6347688387613744,,,,,,,,,,,,,,,,,327,2023-11-10_12h28.36.454,leap3,2022.2.5,60.064807021933994,
,,,,,,,,,,,,,,,,,,,,0,0,0,0,28,0,28,0,,,,,,fatho,nw,h,lower,,,,,,,1,w,HiDemTar,h,1,0.5855870237573981,,,,,,,,,,,,,,,,,327,2023-11-10_12h28.36.454,leap3,2022.2.5,60.064807021933994,
,,,,,,,,,,,,,,,,,,,,0,0,0,0,29,0,29,0,,,,,,reses,nw,h,lower,,,,,,,1,nw,HiDemTar,h,1,0.6410339707508683,,,,,,,,,,,,,,,,,327,2023-11-10_12h28.36.454,leap3,2022.2.5,60.064807021933994,
,,,,,,,,,,,,,,,,,,,,0,0,0,0,,,,,,,,,,,,,,,,,,,,,,,,,,,,,,,,,,,,,,,,,,327,2023-11-10_12h28.36.454,leap3,2022.2.5,60.064807021933994,
,,,,,,,,,,,,,,,,,,,,1,0,1,0,0,0,0,0,,,,,,innocent,w,g,upper,,,,,,,3,w,LoDemNoTar,g,1,0.6544223628006876,,,,,,,,,,,,,,,,,327,2023-11-10_12h28.36.454,leap3,2022.2.5,60.064807021933994,
,,,,,,,,,,,,,,,,,,,,1,0,1,0,1,0,1,0,,,,,,coupling,w,g,upper,,,,,,,3,w,LoDemNoTar,g,1,0.6750876307487488,,,,,,,,,,,,,,,,,327,2023-11-10_12h28.36.454,leap3,2022.2.5,60.064807021933994,
,,,,,,,,,,,,,,,,,,,,1,0,1,0,2,0,2,0,,,,,,hatred,w,g,upper,,,,,,,3,w,LoDemNoTar,g,1,0.5501776398159564,,,,,,,,,,,,,,,,,327,2023-11-10_12h28.36.454,leap3,2022.2.5,60.064807021933994,
,,,,,,,,,,,,,,,,,,,,1,0,1,0,3,0,3,0,,,,,,cobalt,w,g,upper,,,,,,,3,w,LoDemNoTar,g,1,0.6153811623807997,,,,,,,,,,,,,,,,,327,2023-11-10_12h28.36.454,leap3,2022.2.5,60.064807021933994,
,,,,,,,,,,,,,,,,,,,,1,0,1,0,4,0,4,0,,,,,,facienda,nw,h,upper,,,,,,,3,nw,LoDemNoTar,h,1,1.2460701116360724,,,,,,,,,,,,,,,,,327,2023-11-10_12h28.36.454,leap3,2022.2.5,60.064807021933994,
,,,,,,,,,,,,,,,,,,,,1,0,1,0,5,0,5,0,,,,,,greakable,nw,h,upper,,,,,,,3,nw,LoDemNoTar,h,1,0.9074292057193816,,,,,,,,,,,,,,,,,327,2023-11-10_12h28.36.454,leap3,2022.2.5,60.064807021933994,
,,,,,,,,,,,,,,,,,,,,1,0,1,0,6,0,6,0,,,,,,heuls,nw,h,upper,,,,,,,3,nw,LoDemNoTar,h,1,0.6220985332038254,,,,,,,,,,,,,,,,,327,2023-11-10_12h28.36.454,leap3,2022.2.5,60.064807021933994,
,,,,,,,,,,,,,,,,,,,,1,0,1,0,7,0,7,0,,,,,,affluent,w,g,upper,,,,,,,3,w,LoDemNoTar,g,1,0.6843999132979661,,,,,,,,,,,,,,,,,327,2023-11-10_12h28.36.454,leap3,2022.2.5,60.064807021933994,
,,,,,,,,,,,,,,,,,,,,1,0,1,0,8,0,8,0,,,,,,euphoric,w,g,upper,,,,,,,3,w,LoDemNoTar,g,1,0.6795752584002912,,,,,,,,,,,,,,,,,327,2023-11-10_12h28.36.454,leap3,2022.2.5,60.064807021933994,
,,,,,,,,,,,,,,,,,,,,1,0,1,0,9,0,9,0,,,,,,poars,nw,h,upper,,,,,,,3,nw,LoDemNoTar,h,1,1.259551202878356,,,,,,,,,,,,,,,,,327,2023-11-10_12h28.36.454,leap3,2022.2.5,60.064807021933994,
,,,,,,,,,,,,,,,,,,,,1,0,1,0,10,0,10,0,,,,,,cripet,nw,h,upper,,,,,,,3,nw,LoDemNoTar,h,1,0.7352893771603703,,,,,,,,,,,,,,,,,327,2023-11-10_12h28.36.454,leap3,2022.2.5,60.064807021933994,
,,,,,,,,,,,,,,,,,,,,1,0,1,0,11,0,11,0,,,,,,fallacy,w,g,upper,,,,,,,3,w,LoDemNoTar,g,1,0.6245633349753916,,,,,,,,,,,,,,,,,327,2023-11-10_12h28.36.454,leap3,2022.2.5,60.064807021933994,
,,,,,,,,,,,,,,,,,,,,1,0,1,0,12,0,12,0,,,,,,miracle,w,g,upper,,,,,,,3,w,LoDemNoTar,g,1,0.510680227773264,,,,,,,,,,,,,,,,,327,2023-11-10_12h28.36.454,leap3,2022.2.5,60.064807021933994,
,,,,,,,,,,,,,,,,,,,,1,0,1,0,13,0,13,0,,,,,,cabinet,w,g,upper,,,,,,,3,w,LoDemNoTar,g,1,0.5613604567479342,,,,,,,,,,,,,,,,,327,2023-11-10_12h28.36.454,leap3,2022.2.5,60.064807021933994,
,,,,,,,,,,,,,,,,,,,,1,0,1,0,14,0,14,0,,,,,,previous,w,g,upper,,,,,,,3,w,LoDemNoTar,g,1,0.5619984250515699,,,,,,,,,,,,,,,,,327,2023-11-10_12h28.36.454,leap3,2022.2.5,60.064807021933994,
,,,,,,,,,,,,,,,,,,,,1,0,1,0,15,0,15,0,,,,,,moisture,w,g,upper,,,,,,,3,w,LoDemNoTar,g,1,0.48985869553871453,,,,,,,,,,,,,,,,,327,2023-11-10_12h28.36.454,leap3,2022.2.5,60.064807021933994,
,,,,,,,,,,,,,,,,,,,,1,0,1,0,16,0,16,0,,,,,,glaims,nw,h,upper,,,,,,,3,nw,LoDemNoTar,h,1,0.734175001969561,,,,,,,,,,,,,,,,,327,2023-11-10_12h28.36.454,leap3,2022.2.5,60.064807021933994,
,,,,,,,,,,,,,,,,,,,,1,0,1,0,17,0,17,0,,,,,,glates,nw,h,upper,,,,,,,3,nw,LoDemNoTar,h,1,0.7841268812771887,,,,,,,,,,,,,,,,,327,2023-11-10_12h28.36.454,leap3,2022.2.5,60.064807021933994,
,,,,,,,,,,,,,,,,,,,,1,0,1,0,18,0,18,0,,,,,,sefraud,nw,h,upper,,,,,,,3,nw,LoDemNoTar,h,1,0.5843398906290531,,,,,,,,,,,,,,,,,327,2023-11-10_12h28.36.454,leap3,2022.2.5,60.064807021933994,
,,,,,,,,,,,,,,,,,,,,1,0,1,0,19,0,19,0,,,,,,pressures,w,g,upper,,,,,,,3,w,LoDemNoTar,g,1,0.6555575951933861,,,,,,,,,,,,,,,,,327,2023-11-10_12h28.36.454,leap3,2022.2.5,60.064807021933994,
,,,,,,,,,,,,,,,,,,,,1,0,1,0,20,0,20,0,,,,,,golemic,nw,h,upper,,,,,,,3,nw,LoDemNoTar,h,1,0.6672591955866665,,,,,,,,,,,,,,,,,327,2023-11-10_12h28.36.454,leap3,2022.2.5,60.064807021933994,
,,,,,,,,,,,,,,,,,,,,1,0,1,0,21,0,21,0,,,,,,triangle,w,g,upper,,,,,,,3,w,LoDemNoTar,g,1,0.6073461407795548,,,,,,,,,,,,,,,,,327,2023-11-10_12h28.36.454,leap3,2022.2.5,60.064807021933994,
,,,,,,,,,,,,,,,,,,,,1,0,1,0,22,0,22,0,,,,,,butled,nw,h,upper,,,,,,,3,nw,LoDemNoTar,h,1,0.8459684075787663,,,,,,,,,,,,,,,,,327,2023-11-10_12h28.36.454,leap3,2022.2.5,60.064807021933994,
,,,,,,,,,,,,,,,,,,,,1,0,1,0,23,0,23,0,,,,,,hemoter,nw,h,upper,,,,,,,3,nw,LoDemNoTar,h,1,0.6676200598012656,,,,,,,,,,,,,,,,,327,2023-11-10_12h28.36.454,leap3,2022.2.5,60.064807021933994,
,,,,,,,,,,,,,,,,,,,,1,0,1,0,24,0,24,0,,,,,,mogus,nw,h,upper,,,,,,,3,nw,LoDemNoTar,h,1,0.735376447904855,,,,,,,,,,,,,,,,,327,2023-11-10_12h28.36.454,leap3,2022.2.5,60.064807021933994,
,,,,,,,,,,,,,,,,,,,,1,0,1,0,25,0,25,0,,,,,,joses,nw,h,upper,,,,,,,3,nw,LoDemNoTar,h,1,0.5927493502385914,,,,,,,,,,,,,,,,,327,2023-11-10_12h28.36.454,leap3,2022.2.5,60.064807021933994,
,,,,,,,,,,,,,,,,,,,,1,0,1,0,26,0,26,0,,,,,,ringlat,nw,h,upper,,,,,,,3,nw,LoDemNoTar,h,1,1.7040984623599797,,,,,,,,,,,,,,,,,327,2023-11-10_12h28.36.454,leap3,2022.2.5,60.064807021933994,
,,,,,,,,,,,,,,,,,,,,1,0,1,0,27,0,27,0,,,,,,angry,w,g,upper,,,,,,,3,w,LoDemNoTar,g,1,0.6989751842338592,,,,,,,,,,,,,,,,,327,2023-11-10_12h28.36.454,leap3,2022.2.5,60.064807021933994,
,,,,,,,,,,,,,,,,,,,,1,0,1,0,28,0,28,0,,,,,,artifact,w,g,upper,,,,,,,3,w,LoDemNoTar,g,1,1.2690862941090018,,,,,,,,,,,,,,,,,327,2023-11-10_12h28.36.454,leap3,2022.2.5,60.064807021933994,
,,,,,,,,,,,,,,,,,,,,1,0,1,0,29,0,29,0,,,,,,prame,nw,h,upper,,,,,,,3,nw,LoDemNoTar,h,1,0.7130591503810138,,,,,,,,,,,,,,,,,327,2023-11-10_12h28.36.454,leap3,2022.2.5,60.064807021933994,
,,,,,,,,,,,,,,,,,,,,1,0,1,0,,,,,,,,,,,,,,,,,,,,,,,,,,,,,,,,,,,,,,,,,,327,2023-11-10_12h28.36.454,leap3,2022.2.5,60.064807021933994,
,,,,,,,,,,,,,,,,,,,,2,0,2,0,0,0,0,0,,,,,,cassette,w,g,lower,,,,,,,1,w,HiDemTar,g,1,0.8438035536091775,,,,,,,,,,,,,,,,,327,2023-11-10_12h28.36.454,leap3,2022.2.5,60.064807021933994,
,,,,,,,,,,,,,,,,,,,,2,0,2,0,1,0,1,0,,,,,,tinion,nw,h,lower,,,,,,,1,nw,HiDemTar,h,1,0.7452422759961337,,,,,,,,,,,,,,,,,327,2023-11-10_12h28.36.454,leap3,2022.2.5,60.064807021933994,
,,,,,,,,,,,,,,,,,,,,2,0,2,0,2,0,2,0,,,,,,godomy,nw,h,lower,,,,,,,1,nw,HiDemTar,h,1,0.8505192692391574,,,,,,,,,,,,,,,,,327,2023-11-10_12h28.36.454,leap3,2022.2.5,60.064807021933994,
,,,,,,,,,,,,,,,,,,,,2,0,2,0,3,0,3,0,,,,,,pexts,nw,h,lower,,,,,,,1,nw,HiDemTar,h,1,0.6702778742183,,,,,,,,,,,,,,,,,327,2023-11-10_12h28.36.454,leap3,2022.2.5,60.064807021933994,
,,,,,,,,,,,,,,,,,,,,2,0,2,0,4,0,4,0,,,,,,atabaster,nw,h,lower,,,,,,,1,nw,HiDemTar,h,1,1.0502224997617304,,,,,,,,,,,,,,,,,327,2023-11-10_12h28.36.454,leap3,2022.2.5,60.064807021933994,
,,,,,,,,,,,,,,,,,,,,2,0,2,0,5,0,5,0,,,,,,lifetime,w,g,lower,,,,,,,1,w,HiDemTar,g,1,0.6075040600262582,,,,,,,,,,,,,,,,,327,2023-11-10_12h28.36.454,leap3,2022.2.5,60.064807021933994,
,,,,,,,,,,,,,,,,,,,,2,0,2,0,6,0,6,0,,,,,,atch,nw,h,lower,,,,,,,1,nw,HiDemTar,h,1,0.6680958047509193,,,,,,,,,,,,,,,,,327,2023-11-10_12h28.36.454,leap3,2022.2.5,60.064807021933994,
,,,,,,,,,,,,,,,,,,,,2,0,2,0,7,0,7,0,,,,,,regards,w,g,lower,,,,,,,1,w,HiDemTar,g,1,0.504715705756098,,,,,,,,,,,,,,,,,327,2023-11-10_12h28.36.454,leap3,2022.2.5,60.064807021933994,
,,,,,,,,,,,,,,,,,,,,2,0,2,0,8,0,8,0,,,,,,lavilion,nw,h,lower,,,,,,,1,nw,HiDemTar,h,1,0.6769985556602478,,,,,,,,,,,,,,,,,327,2023-11-10_12h28.36.454,leap3,2022.2.5,60.064807021933994,
,,,,,,,,,,,,,,,,,,,,2,0,2,0,9,0,9,0,,,,,,pammed,nw,h,lower,,,,,,,1,nw,HiDemTar,h,1,0.7610246213153005,,,,,,,,,,,,,,,,,327,2023-11-10_12h28.36.454,leap3,2022.2.5,60.064807021933994,
,,,,,,,,,,,,,,,,,,,,2,0,2,0,10,0,10,0,,,,,,marvel,w,g,lower,,,,,,,1,w,HiDemTar,g,1,1.137697301339358,,,,,,,,,,,,,,,,,327,2023-11-10_12h28.36.454,leap3,2022.2.5,60.064807021933994,
,,,,,,,,,,,,,,,,,,,,2,0,2,0,11,0,11,0,,,,,,pocket,w,g,lower,,,,,,,1,w,HiDemTar,g,1,0.859071419108659,,,,,,,,,,,,,,,,,327,2023-11-10_12h28.36.454,leap3,2022.2.5,60.064807021933994,
,,,,,,,,,,,,,,,,,,,,2,0,2,0,12,0,12,0,,,,,,dishwater,w,g,lower,,,,,,,1,w,HiDemTar,g,1,0.5507467458955944,,,,,,,,,,,,,,,,,327,2023-11-10_12h28.36.454,leap3,2022.2.5,60.064807021933994,
,,,,,,,,,,,,,,,,,,,,2,0,2,0,13,0,13,0,,,,,,chight,nw,h,lower,,,,,,,1,nw,HiDemTar,h,1,0.5434440467506647,,,,,,,,,,,,,,,,,327,2023-11-10_12h28.36.454,leap3,2022.2.5,60.064807021933994,
,,,,,,,,,,,,,,,,,,,,2,0,2,0,14,0,14,0,,,,,,ubefully,nw,h,lower,,,,,,,1,nw,HiDemTar,h,1,0.5527659300714731,,,,,,,,,,,,,,,,,327,2023-11-10_12h28.36.454,leap3,2022.2.5,60.064807021933994,
,,,,,,,,,,,,,,,,,,,,2,0,2,0,15,0,15,0,,,,,,colicky,w,g,lower,,,,,,,1,w,HiDemTar,g,1,0.8735063176136464,,,,,,,,,,,,,,,,,327,2023-11-10_12h28.36.454,leap3,2022.2.5,60.064807021933994,
,,,,,,,,,,,,,,,,,,,,2,0,2,0,16,0,16,0,,,,,,overflow,w,g,lower,,,,,,,1,w,HiDemTar,g,1,0.5176310015376657,,,,,,,,,,,,,,,,,327,2023-11-10_12h28.36.454,leap3,2022.2.5,60.064807021933994,
,,,,,,,,,,,,,,,,,,,,2,0,2,0,17,0,17,0,,,,,,elpired,nw,h,lower,,,,,,,1,nw,HiDemTar,h,1,0.6555877225473523,,,,,,,,,,,,,,,,,327,2023-11-10_12h28.36.454,leap3,2022.2.5,60.064807021933994,
,,,,,,,,,,,,,,,,,,,,2,0,2,0,18,0,18,0,,,,,,organize,w,g,lower,,,,,,,1,w,HiDemTar,g,1,0.5642112838104367,,,,,,,,,,,,,,,,,327,2023-11-10_12h28.36.454,leap3,2022.2.5,60.064807021933994,
,,,,,,,,,,,,,,,,,,,,2,0,2,0,19,0,19,0,,,,,,derisury,nw,h,lower,,,,,,,1,nw,HiDemTar,h,1,0.6370465871877968,,,,,,,,,,,,,,,,,327,2023-11-10_12h28.36.454,leap3,2022.2.5,60.064807021933994,
,,,,,,,,,,,,,,,,,,,,2,0,2,0,20,0,20,0,,,,,,slightly,w,g,lower,,,,,,,1,w,HiDemTar,g,1,0.7383461282588542,,,,,,,,,,,,,,,,,327,2023-11-10_12h28.36.454,leap3,2022.2.5,60.064807021933994,
,,,,,,,,,,,,,,,,,,,,2,0,2,0,21,0,21,0,,,,,,butterfly,target,q,lower,,,,,,,1,target,HiDemTar,g,0,0.5397066194564104,,,,,,,,,,,,,,,,,327,2023-11-10_12h28.36.454,leap3,2022.2.5,60.064807021933994,
,,,,,,,,,,,,,,,,,,,,2,0,2,0,22,0,22,0,,,,,,purport,w,g,lower,,,,,,,1,aftertar1,HiDemTar,h,0,0.9480469522532076,,,,,,,,,,,,,,,,,327,2023-11-10_12h28.36.454,leap3,2022.2.5,60.064807021933994,
,,,,,,,,,,,,,,,,,,,,2,0,2,0,23,0,23,0,,,,,,stooping,w,g,lower,,,,,,,1,aftertar2,HiDemTar,g,1,0.9174019687343389,,,,,,,,,,,,,,,,,327,2023-11-10_12h28.36.454,leap3,2022.2.5,60.064807021933994,
,,,,,,,,,,,,,,,,,,,,2,0,2,0,24,0,24,0,,,,,,govern,w,g,lower,,,,,,,1,aftertar3,HiDemTar,g,1,0.8553902732674032,,,,,,,,,,,,,,,,,327,2023-11-10_12h28.36.454,leap3,2022.2.5,60.064807021933994,
,,,,,,,,,,,,,,,,,,,,2,0,2,0,25,0,25,0,,,,,,urique,nw,h,lower,,,,,,,1,w,HiDemTar,h,1,0.6520264234859496,,,,,,,,,,,,,,,,,327,2023-11-10_12h28.36.454,leap3,2022.2.5,60.064807021933994,
,,,,,,,,,,,,,,,,,,,,2,0,2,0,26,0,26,0,,,,,,tapling,nw,h,lower,,,,,,,1,nw,HiDemTar,h,1,0.7768519918899983,,,,,,,,,,,,,,,,,327,2023-11-10_12h28.36.454,leap3,2022.2.5,60.064807021933994,
,,,,,,,,,,,,,,,,,,,,2,0,2,0,27,0,27,0,,,,,,permeable,w,g,lower,,,,,,,1,nw,HiDemTar,g,1,0.7847741195000708,,,,,,,,,,,,,,,,,327,2023-11-10_12h28.36.454,leap3,2022.2.5,60.064807021933994,
,,,,,,,,,,,,,,,,,,,,2,0,2,0,28,0,28,0,,,,,,presence,w,g,lower,,,,,,,1,w,HiDemTar,g,1,0.47219522180967033,,,,,,,,,,,,,,,,,327,2023-11-10_12h28.36.454,leap3,2022.2.5,60.064807021933994,
,,,,,,,,,,,,,,,,,,,,2,0,2,0,29,0,29,0,,,,,,ounside,nw,h,lower,,,,,,,1,w,HiDemTar,h,1,0.8682228021789342,,,,,,,,,,,,,,,,,327,2023-11-10_12h28.36.454,leap3,2022.2.5,60.064807021933994,
,,,,,,,,,,,,,,,,,,,,2,0,2,0,,,,,,,,,,,,,,,,,,,,,,,,,,,,,,,,,,,,,,,,,,327,2023-11-10_12h28.36.454,leap3,2022.2.5,60.064807021933994,
,,,,,,,,,,,,,,,,,,,,3,0,3,0,0,0,0,0,,,,,,irfirm,nw,h,upper,,,,,,,4,nw,LoDemTar,h,1,0.7590782723855227,,,,,,,,,,,,,,,,,327,2023-11-10_12h28.36.454,leap3,2022.2.5,60.064807021933994,
,,,,,,,,,,,,,,,,,,,,3,0,3,0,1,0,1,0,,,,,,nostril,w,g,upper,,,,,,,4,w,LoDemTar,g,1,0.7286643742118031,,,,,,,,,,,,,,,,,327,2023-11-10_12h28.36.454,leap3,2022.2.5,60.064807021933994,
,,,,,,,,,,,,,,,,,,,,3,0,3,0,2,0,2,0,,,,,,esdings,nw,h,upper,,,,,,,4,nw,LoDemTar,h,1,0.6506660648155957,,,,,,,,,,,,,,,,,327,2023-11-10_12h28.36.454,leap3,2022.2.5,60.064807021933994,
,,,,,,,,,,,,,,,,,,,,3,0,3,0,3,0,3,0,,,,,,profats,nw,h,upper,,,,,,,4,nw,LoDemTar,h,1,0.6716888861265033,,,,,,,,,,,,,,,,,327,2023-11-10_12h28.36.454,leap3,2022.2.5,60.064807021933994,
,,,,,,,,,,,,,,,,,,,,3,0,3,0,4,0,4,0,,,,,,static,w,g,upper,,,,,,,4,w,LoDemTar,g,1,0.6193572897464037,,,,,,,,,,,,,,,,,327,2023-11-10_12h28.36.454,leap3,2022.2.5,60.064807021933994,
,,,,,,,,,,,,,,,,,,,,3,0,3,0,5,0,5,0,,,,,,incidonts,nw,h,upper,,,,,,,4,nw,LoDemTar,h,1,0.7204750748351216,,,,,,,,,,,,,,,,,327,2023-11-10_12h28.36.454,leap3,2022.2.5,60.064807021933994,
,,,,,,,,,,,,,,,,,,,,3,0,3,0,6,0,6,0,,,,,,igiom,nw,h,upper,,,,,,,4,nw,LoDemTar,h,1,0.5464339223690331,,,,,,,,,,,,,,,,,327,2023-11-10_12h28.36.454,leap3,2022.2.5,60.064807021933994,
,,,,,,,,,,,,,,,,,,,,3,0,3,0,7,0,7,0,,,,,,trophy,w,g,upper,,,,,,,4,w,LoDemTar,g,1,0.7878229250200093,,,,,,,,,,,,,,,,,327,2023-11-10_12h28.36.454,leap3,2022.2.5,60.064807021933994,
,,,,,,,,,,,,,,,,,,,,3,0,3,0,8,0,8,0,,,,,,funtair,nw,h,upper,,,,,,,4,nw,LoDemTar,h,1,0.8833026210777462,,,,,,,,,,,,,,,,,327,2023-11-10_12h28.36.454,leap3,2022.2.5,60.064807021933994,
,,,,,,,,,,,,,,,,,,,,3,0,3,0,9,0,9,0,,,,,,dreaded,w,g,upper,,,,,,,4,w,LoDemTar,g,1,0.5269727488048375,,,,,,,,,,,,,,,,,327,2023-11-10_12h28.36.454,leap3,2022.2.5,60.064807021933994,
,,,,,,,,,,,,,,,,,,,,3,0,3,0,10,0,10,0,,,,,,ausht,nw,h,upper,,,,,,,4,nw,LoDemTar,h,1,0.5612545148469508,,,,,,,,,,,,,,,,,327,2023-11-10_12h28.36.454,leap3,2022.2.5,60.064807021933994,
,,,,,,,,,,,,,,,,,,,,3,0,3,0,11,0,11,0,,,,,,lutton,nw,h,upper,,,,,,,4,nw,LoDemTar,h,1,0.6015587400179356,,,,,,,,,,,,,,,,,327,2023-11-10_12h28.36.454,leap3,2022.2.5,60.064807021933994,
,,,,,,,,,,,,,,,,,,,,3,0,3,0,12,0,12,0,,,,,,region,w,g,upper,,,,,,,4,w,LoDemTar,g,1,0.6246848369482905,,,,,,,,,,,,,,,,,327,2023-11-10_12h28.36.454,leap3,2022.2.5,60.064807021933994,
,,,,,,,,,,,,,,,,,,,,3,0,3,0,13,0,13,0,,,,,,clattest,nw,h,upper,,,,,,,4,nw,LoDemTar,h,1,0.6867574488278478,,,,,,,,,,,,,,,,,327,2023-11-10_12h28.36.454,leap3,2022.2.5,60.064807021933994,
,,,,,,,,,,,,,,,,,,,,3,0,3,0,14,0,14,0,,,,,,coyote,target,q,upper,,,,,,,4,target,LoDemTar,q,1,0.5941199720837176,q,,,,,,,,,,,,,,,,327,2023-11-10_12h28.36.454,leap3,2022.2.5,60.064807021933994,
,,,,,,,,,,,,,,,,,,,,3,0,3,0,15,0,15,0,,,,,,drobate,nw,h,upper,,,,,,,4,aftertar1,LoDemTar,h,1,0.7283796556293964,,,,,,,,,,,,,,,,,327,2023-11-10_12h28.36.454,leap3,2022.2.5,60.064807021933994,
,,,,,,,,,,,,,,,,,,,,3,0,3,0,16,0,16,0,,,,,,anterior,w,g,upper,,,,,,,4,aftertar2,LoDemTar,g,1,0.8178253055084497,,,,,,,,,,,,,,,,,327,2023-11-10_12h28.36.454,leap3,2022.2.5,60.064807021933994,
,,,,,,,,,,,,,,,,,,,,3,0,3,0,17,0,17,0,,,,,,sliding,w,g,upper,,,,,,,4,aftertar3,LoDemTar,g,1,0.5363926282152534,,,,,,,,,,,,,,,,,327,2023-11-10_12h28.36.454,leap3,2022.2.5,60.064807021933994,
,,,,,,,,,,,,,,,,,,,,3,0,3,0,18,0,18,0,,,,,,shockwave,w,g,upper,,,,,,,4,w,LoDemTar,g,1,0.8500892117153853,,,,,,,,,,,,,,,,,327,2023-11-10_12h28.36.454,leap3,2022.2.5,60.064807021933994,
,,,,,,,,,,,,,,,,,,,,3,0,3,0,19,0,19,0,,,,,,micron,w,g,upper,,,,,,,4,w,LoDemTar,g,1,0.8790944151114672,,,,,,,,,,,,,,,,,327,2023-11-10_12h28.36.454,leap3,2022.2.5,60.064807021933994,
,,,,,,,,,,,,,,,,,,,,3,0,3,0,20,0,20,0,,,,,,shimble,nw,h,upper,,,,,,,4,w,LoDemTar,g,0,0.5149556405376643,,,,,,,,,,,,,,,,,327,2023-11-10_12h28.36.454,leap3,2022.2.5,60.064807021933994,
,,,,,,,,,,,,,,,,,,,,3,0,3,0,21,0,21,0,,,,,,handbook,w,g,upper,,,,,,,4,nw,LoDemTar,h,0,0.5736490408889949,,,,,,,,,,,,,,,,,327,2023-11-10_12h28.36.454,leap3,2022.2.5,60.064807021933994,
,,,,,,,,,,,,,,,,,,,,3,0,3,0,22,0,22,0,,,,,,impirt,nw,h,upper,,,,,,,4,w,LoDemTar,h,1,0.9339004142675549,,,,,,,,,,,,,,,,,327,2023-11-10_12h28.36.454,leap3,2022.2.5,60.064807021933994,
,,,,,,,,,,,,,,,,,,,,3,0,3,0,23,0,23,0,,,,,,hubris,w,g,upper,,,,,,,4,nw,LoDemTar,g,1,0.8716185672674328,,,,,,,,,,,,,,,,,327,2023-11-10_12h28.36.454,leap3,2022.2.5,60.064807021933994,
,,,,,,,,,,,,,,,,,,,,3,0,3,0,24,0,24,0,,,,,,poyride,nw,h,upper,,,,,,,4,w,LoDemTar,h,1,0.8344479014631361,,,,,,,,,,,,,,,,,327,2023-11-10_12h28.36.454,leap3,2022.2.5,60.064807021933994,
,,,,,,,,,,,,,,,,,,,,3,0,3,0,25,0,25,0,,,,,,dileting,nw,h,upper,,,,,,,4,nw,LoDemTar,h,1,0.8887748450506479,,,,,,,,,,,,,,,,,327,2023-11-10_12h28.36.454,leap3,2022.2.5,60.064807021933994,
,,,,,,,,,,,,,,,,,,,,3,0,3,0,26,0,26,0,,,,,,dontrite,nw,h,upper,,,,,,,4,nw,LoDemTar,h,1,0.6519688174594194,,,,,,,,,,,,,,,,,327,2023-11-10_12h28.36.454,leap3,2022.2.5,60.064807021933994,
,,,,,,,,,,,,,,,,,,,,3,0,3,0,27,0,27,0,,,,,,minister,w,g,upper,,,,,,,4,nw,LoDemTar,g,1,0.5926566510461271,,,,,,,,,,,,,,,,,327,2023-11-10_12h28.36.454,leap3,2022.2.5,60.064807021933994,
,,,,,,,,,,,,,,,,,,,,3,0,3,0,28,0,28,0,,,,,,fillings,w,g,upper,,,,,,,4,w,LoDemTar,g,1,1.2161352690309286,,,,,,,,,,,,,,,,,327,2023-11-10_12h28.36.454,leap3,2022.2.5,60.064807021933994,
,,,,,,,,,,,,,,,,,,,,3,0,3,0,29,0,29,0,,,,,,exclusion,w,g,upper,,,,,,,4,w,LoDemTar,g,1,0.9107246571220458,,,,,,,,,,,,,,,,,327,2023-11-10_12h28.36.454,leap3,2022.2.5,60.064807021933994,
,,,,,,,,,,,,,,,,,,,,3,0,3,0,,,,,,,,,,,,,,,,,,,,,,,,,,,,,,,,,,,,,,,,,,327,2023-11-10_12h28.36.454,leap3,2022.2.5,60.064807021933994,
,,,,,,,,,,,,,,,,,,,,4,0,4,0,0,0,0,0,,,,,,servant,w,g,lower,,,,,,,1,w,HiDemTar,g,1,0.7126572339329869,,,,,,,,,,,,,,,,,327,2023-11-10_12h28.36.454,leap3,2022.2.5,60.064807021933994,
,,,,,,,,,,,,,,,,,,,,4,0,4,0,1,0,1,0,,,,,,oalis,nw,h,lower,,,,,,,1,nw,HiDemTar,h,1,0.7950623901560903,,,,,,,,,,,,,,,,,327,2023-11-10_12h28.36.454,leap3,2022.2.5,60.064807021933994,
,,,,,,,,,,,,,,,,,,,,4,0,4,0,2,0,2,0,,,,,,extend,w,g,lower,,,,,,,1,w,HiDemTar,g,1,0.6103323744609952,,,,,,,,,,,,,,,,,327,2023-11-10_12h28.36.454,leap3,2022.2.5,60.064807021933994,
,,,,,,,,,,,,,,,,,,,,4,0,4,0,3,0,3,0,,,,,,cayward,nw,h,lower,,,,,,,1,nw,HiDemTar,h,1,0.904586986405775,,,,,,,,,,,,,,,,,327,2023-11-10_12h28.36.454,leap3,2022.2.5,60.064807021933994,
,,,,,,,,,,,,,,,,,,,,4,0,4,0,4,0,4,0,,,,,,finstrel,nw,h,lower,,,,,,,1,nw,HiDemTar,h,1,0.7397104599513113,,,,,,,,,,,,,,,,,327,2023-11-10_12h28.36.454,leap3,2022.2.5,60.064807021933994,
,,,,,,,,,,,,,,,,,,,,4,0,4,0,5,0,5,0,,,,,,cooray,nw,h,lower,,,,,,,1,nw,HiDemTar,h,1,0.7410612173844129,,,,,,,,,,,,,,,,,327,2023-11-10_12h28.36.454,leap3,2022.2.5,60.064807021933994,
,,,,,,,,,,,,,,,,,,,,4,0,4,0,6,0,6,0,,,,,,ascending,w,g,lower,,,,,,,1,w,HiDemTar,g,1,0.5824511472601444,,,,,,,,,,,,,,,,,327,2023-11-10_12h28.36.454,leap3,2022.2.5,60.064807021933994,
,,,,,,,,,,,,,,,,,,,,4,0,4,0,7,0,7,0,,,,,,hasks,nw,h,lower,,,,,,,1,nw,HiDemTar,h,1,0.7583797187544405,,,,,,,,,,,,,,,,,327,2023-11-10_12h28.36.454,leap3,2022.2.5,60.064807021933994,
,,,,,,,,,,,,,,,,,,,,4,0,4,0,8,0,8,0,,,,,,gerby,nw,h,lower,,,,,,,1,nw,HiDemTar,h,1,0.9180415922310203,,,,,,,,,,,,,,,,,327,2023-11-10_12h28.36.454,leap3,2022.2.5,60.064807021933994,
,,,,,,,,,,,,,,,,,,,,4,0,4,0,9,0,9,0,,,,,,levels,w,g,lower,,,,,,,1,w,HiDemTar,g,1,0.6560012262780219,,,,,,,,,,,,,,,,,327,2023-11-10_12h28.36.454,leap3,2022.2.5,60.064807021933994,
,,,,,,,,,,,,,,,,,,,,4,0,4,0,10,0,10,0,,,,,,apop,nw,h,lower,,,,,,,1,nw,HiDemTar,h,1,0.5406392381992191,,,,,,,,,,,,,,,,,327,2023-11-10_12h28.36.454,leap3,2022.2.5,60.064807021933994,
,,,,,,,,,,,,,,,,,,,,4,0,4,0,11,0,11,0,,,,,,fashing,nw,h,lower,,,,,,,1,nw,HiDemTar,h,1,0.7900132711511105,,,,,,,,,,,,,,,,,327,2023-11-10_12h28.36.454,leap3,2022.2.5,60.064807021933994,
,,,,,,,,,,,,,,,,,,,,4,0,4,0,12,0,12,0,,,,,,prillway,nw,h,lower,,,,,,,1,nw,HiDemTar,h,1,0.9412872046232224,,,,,,,,,,,,,,,,,327,2023-11-10_12h28.36.454,leap3,2022.2.5,60.064807021933994,
,,,,,,,,,,,,,,,,,,,,4,0,4,0,13,0,13,0,,,,,,addma,nw,h,lower,,,,,,,1,nw,HiDemTar,h,1,0.5190833972301334,,,,,,,,,,,,,,,,,327,2023-11-10_12h28.36.454,leap3,2022.2.5,60.064807021933994,
,,,,,,,,,,,,,,,,,,,,4,0,4,0,14,0,14,0,,,,,,trecious,nw,h,lower,,,,,,,1,nw,HiDemTar,g,0,1.0726510360836983,,,,,,,,,,,,,,,,,327,2023-11-10_12h28.36.454,leap3,2022.2.5,60.064807021933994,
,,,,,,,,,,,,,,,,,,,,4,0,4,0,15,0,15,0,,,,,,achieve,w,g,lower,,,,,,,1,w,HiDemTar,g,1,0.6933764924760908,,,,,,,,,,,,,,,,,327,2023-11-10_12h28.36.454,leap3,2022.2.5,60.064807021933994,
,,,,,,,,,,,,,,,,,,,,4,0,4,0,16,0,16,0,,,,,,epic,w,g,lower,,,,,,,1,w,HiDemTar,g,1,0.5927788151893765,,,,,,,,,,,,,,,,,327,2023-11-10_12h28.36.454,leap3,2022.2.5,60.064807021933994,
,,,,,,,,,,,,,,,,,,,,4,0,4,0,17,0,17,0,,,,,,obtuse,w,g,lower,,,,,,,1,w,HiDemTar,g,1,0.5749683470930904,,,,,,,,,,,,,,,,,327,2023-11-10_12h28.36.454,leap3,2022.2.5,60.064807021933994,
,,,,,,,,,,,,,,,,,,,,4,0,4,0,18,0,18,0,,,,,,warmer,w,g,lower,,,,,,,1,w,HiDemTar,g,1,0.7430562337394804,,,,,,,,,,,,,,,,,327,2023-11-10_12h28.36.454,leap3,2022.2.5,60.064807021933994,
,,,,,,,,,,,,,,,,,,,,4,0,4,0,19,0,19,0,,,,,,spider,target,q,lower,,,,,,,1,target,HiDemTar,g,0,0.496401593554765,,,,,,,,,,,,,,,,,327,2023-11-10_12h28.36.454,leap3,2022.2.5,60.064807021933994,
,,,,,,,,,,,,,,,,,,,,4,0,4,0,20,0,20,0,,,,,,plapping,nw,h,lower,,,,,,,1,aftertar1,HiDemTar,h,1,0.8917140674311668,,,,,,,,,,,,,,,,,327,2023-11-10_12h28.36.454,leap3,2022.2.5,60.064807021933994,
,,,,,,,,,,,,,,,,,,,,4,0,4,0,21,0,21,0,,,,,,lanthers,nw,h,lower,,,,,,,1,aftertar2,HiDemTar,h,1,0.9510666239075363,,,,,,,,,,,,,,,,,327,2023-11-10_12h28.36.454,leap3,2022.2.5,60.064807021933994,
,,,,,,,,,,,,,,,,,,,,4,0,4,0,22,0,22,0,,,,,,seighing,nw,h,lower,,,,,,,1,aftertar3,HiDemTar,h,1,0.9437417432200164,,,,,,,,,,,,,,,,,327,2023-11-10_12h28.36.454,leap3,2022.2.5,60.064807021933994,
,,,,,,,,,,,,,,,,,,,,4,0,4,0,23,0,23,0,,,,,,stable,w,g,lower,,,,,,,1,nw,HiDemTar,g,1,0.9286327904555947,,,,,,,,,,,,,,,,,327,2023-11-10_12h28.36.454,leap3,2022.2.5,60.064807021933994,
,,,,,,,,,,,,,,,,,,,,4,0,4,0,24,0,24,0,,,,,,remade,w,g,lower,,,,,,,1,w,HiDemTar,g,1,0.9311045445501804,,,,,,,,,,,,,,,,,327,2023-11-10_12h28.36.454,leap3,2022.2.5,60.064807021933994,
,,,,,,,,,,,,,,,,,,,,4,0,4,0,25,0,25,0,,,,,,partner,w,g,lower,,,,,,,1,w,HiDemTar,g,1,0.6361970664002001,,,,,,,,,,,,,,,,,327,2023-11-10_12h28.36.454,leap3,2022.2.5,60.064807021933994,
,,,,,,,,,,,,,,,,,,,,4,0,4,0,26,0,26,0,,,,,,uncorked,w,g,lower,,,,,,,1,w,HiDemTar,g,1,0.7935504023917019,,,,,,,,,,,,,,,,,327,2023-11-10_12h28.36.454,leap3,2022.2.5,60.064807021933994,
,,,,,,,,,,,,,,,,,,,,4,0,4,0,27,0,27,0,,,,,,splatter,w,g,lower,,,,,,,1,w,HiDemTar,g,1,0.5450301938690245,,,,,,,,,,,,,,,,,327,2023-11-10_12h28.36.454,leap3,2022.2.5,60.064807021933994,
,,,,,,,,,,,,,,,,,,,,4,0,4,0,28,0,28,0,,,,,,other,w,g,lower,,,,,,,1,w,HiDemTar,g,1,0.810491485754028,,,,,,,,,,,,,,,,,327,2023-11-10_12h28.36.454,leap3,2022.2.5,60.064807021933994,
,,,,,,,,,,,,,,,,,,,,4,0,4,0,29,0,29,0,,,,,,blipover,nw,h,lower,,,,,,,1,w,HiDemTar,h,1,1.0490349584724754,,,,,,,,,,,,,,,,,327,2023-11-10_12h28.36.454,leap3,2022.2.5,60.064807021933994,
,,,,,,,,,,,,,,,,,,,,4,0,4,0,,,,,,,,,,,,,,,,,,,,,,,,,,,,,,,,,,,,,,,,,,327,2023-11-10_12h28.36.454,leap3,2022.2.5,60.064807021933994,
,,,,,,,,,,,,,,,,,,,,5,0,5,0,0,0,0,0,,,,,,temelity,nw,h,lower,,,,,,,2,nw,HiDemNoTar,h,1,0.8456231036689132,,,,,,,,,,,,,,,,,327,2023-11-10_12h28.36.454,leap3,2022.2.5,60.064807021933994,
,,,,,,,,,,,,,,,,,,,,5,0,5,0,1,0,1,0,,,,,,entitle,w,g,lower,,,,,,,2,w,HiDemNoTar,g,1,0.818632118171081,,,,,,,,,,,,,,,,,327,2023-11-10_12h28.36.454,leap3,2022.2.5,60.064807021933994,
,,,,,,,,,,,,,,,,,,,,5,0,5,0,2,0,2,0,,,,,,hackal,nw,h,lower,,,,,,,2,nw,HiDemNoTar,h,1,1.2008306551724672,,,,,,,,,,,,,,,,,327,2023-11-10_12h28.36.454,leap3,2022.2.5,60.064807021933994,
,,,,,,,,,,,,,,,,,,,,5,0,5,0,3,0,3,0,,,,,,hindsight,w,g,lower,,,,,,,2,w,HiDemNoTar,g,1,0.5832235289271921,,,,,,,,,,,,,,,,,327,2023-11-10_12h28.36.454,leap3,2022.2.5,60.064807021933994,
,,,,,,,,,,,,,,,,,,,,5,0,5,0,4,0,4,0,,,,,,design,w,g,lower,,,,,,,2,w,HiDemNoTar,g,1,0.5193048818036914,,,,,,,,,,,,,,,,,327,2023-11-10_12h28.36.454,leap3,2022.2.5,60.064807021933994,
,,,,,,,,,,,,,,,,,,,,5,0,5,0,5,0,5,0,,,,,,numbled,nw,h,lower,,,,,,,2,nw,HiDemNoTar,h,1,0.8011083549354225,,,,,,,,,,,,,,,,,327,2023-11-10_12h28.36.454,leap3,2022.2.5,60.064807021933994,
,,,,,,,,,,,,,,,,,,,,5,0,5,0,6,0,6,0,,,,,,mantos,nw,h,lower,,,,,,,2,nw,HiDemNoTar,h,1,1.3688089582137764,,,,,,,,,,,,,,,,,327,2023-11-10_12h28.36.454,leap3,2022.2.5,60.064807021933994,
,,,,,,,,,,,,,,,,,,,,5,0,5,0,7,0,7,0,,,,,,tipoff,w,g,lower,,,,,,,2,w,HiDemNoTar,g,1,0.720872356556356,,,,,,,,,,,,,,,,,327,2023-11-10_12h28.36.454,leap3,2022.2.5,60.064807021933994,
,,,,,,,,,,,,,,,,,,,,5,0,5,0,8,0,8,0,,,,,,podes,nw,h,lower,,,,,,,2,nw,HiDemNoTar,h,1,0.8510195128619671,,,,,,,,,,,,,,,,,327,2023-11-10_12h28.36.454,leap3,2022.2.5,60.064807021933994,
,,,,,,,,,,,,,,,,,,,,5,0,5,0,9,0,9,0,,,,,,shillac,nw,h,lower,,,,,,,2,nw,HiDemNoTar,h,1,1.7667633548844606,,,,,,,,,,,,,,,,,327,2023-11-10_12h28.36.454,leap3,2022.2.5,60.064807021933994,
,,,,,,,,,,,,,,,,,,,,5,0,5,0,10,0,10,0,,,,,,implode,w,g,lower,,,,,,,2,w,HiDemNoTar,g,1,0.6713915872387588,,,,,,,,,,,,,,,,,327,2023-11-10_12h28.36.454,leap3,2022.2.5,60.064807021933994,
,,,,,,,,,,,,,,,,,,,,5,0,5,0,11,0,11,0,,,,,,glattery,nw,h,lower,,,,,,,2,nw,HiDemNoTar,h,1,0.811418145429343,,,,,,,,,,,,,,,,,327,2023-11-10_12h28.36.454,leap3,2022.2.5,60.064807021933994,
,,,,,,,,,,,,,,,,,,,,5,0,5,0,12,0,12,0,,,,,,analysis,w,g,lower,,,,,,,2,w,HiDemNoTar,g,1,0.6501267550047487,,,,,,,,,,,,,,,,,327,2023-11-10_12h28.36.454,leap3,2022.2.5,60.064807021933994,
,,,,,,,,,,,,,,,,,,,,5,0,5,0,13,0,13,0,,,,,,sording,nw,h,lower,,,,,,,2,nw,HiDemNoTar,h,1,0.6714084716513753,,,,,,,,,,,,,,,,,327,2023-11-10_12h28.36.454,leap3,2022.2.5,60.064807021933994,
,,,,,,,,,,,,,,,,,,,,5,0,5,0,14,0,14,0,,,,,,railroad,w,g,lower,,,,,,,2,w,HiDemNoTar,g,1,0.6513758746441454,,,,,,,,,,,,,,,,,327,2023-11-10_12h28.36.454,leap3,2022.2.5,60.064807021933994,
,,,,,,,,,,,,,,,,,,,,5,0,5,0,15,0,15,0,,,,,,dumult,nw,h,lower,,,,,,,2,nw,HiDemNoTar,h,1,0.6803516128566116,,,,,,,,,,,,,,,,,327,2023-11-10_12h28.36.454,leap3,2022.2.5,60.064807021933994,
,,,,,,,,,,,,,,,,,,,,5,0,5,0,16,0,16,0,,,,,,dialect,w,g,lower,,,,,,,2,w,HiDemNoTar,g,1,0.6441930220462382,,,,,,,,,,,,,,,,,327,2023-11-10_12h28.36.454,leap3,2022.2.5,60.064807021933994,
,,,,,,,,,,,,,,,,,,,,5,0,5,0,17,0,17,0,,,,,,collision,w,g,lower,,,,,,,2,w,HiDemNoTar,g,1,0.760515438625589,,,,,,,,,,,,,,,,,327,2023-11-10_12h28.36.454,leap3,2022.2.5,60.064807021933994,
,,,,,,,,,,,,,,,,,,,,5,0,5,0,18,0,18,0,,,,,,sequence,w,g,lower,,,,,,,2,w,HiDemNoTar,g,1,0.6333008829969913,,,,,,,,,,,,,,,,,327,2023-11-10_12h28.36.454,leap3,2022.2.5,60.064807021933994,
,,,,,,,,,,,,,,,,,,,,5,0,5,0,19,0,19,0,,,,,,apology,w,g,lower,,,,,,,2,w,HiDemNoTar,g,1,0.7272083370480686,,,,,,,,,,,,,,,,,327,2023-11-10_12h28.36.454,leap3,2022.2.5,60.064807021933994,
,,,,,,,,,,,,,,,,,,,,5,0,5,0,20,0,20,0,,,,,,trocess,nw,h,lower,,,,,,,2,nw,HiDemNoTar,h,1,0.8412877672817558,,,,,,,,,,,,,,,,,327,2023-11-10_12h28.36.454,leap3,2022.2.5,60.064807021933994,
,,,,,,,,,,,,,,,,,,,,5,0,5,0,21,0,21,0,,,,,,cemoir,nw,h,lower,,,,,,,2,nw,HiDemNoTar,h,1,0.8147069753613323,,,,,,,,,,,,,,,,,327,2023-11-10_12h28.36.454,leap3,2022.2.5,60.064807021933994,
,,,,,,,,,,,,,,,,,,,,5,0,5,0,22,0,22,0,,,,,,footstep,w,g,lower,,,,,,,2,w,HiDemNoTar,g,1,0.6054491207469255,,,,,,,,,,,,,,,,,327,2023-11-10_12h28.36.454,leap3,2022.2.5,60.064807021933994,
,,,,,,,,,,,,,,,,,,,,5,0,5,0,23,0,23,0,,,,,,flicking,w,g,lower,,,,,,,2,w,HiDemNoTar,g,1,0.8280225326307118,,,,,,,,,,,,,,,,,327,2023-11-10_12h28.36.454,leap3,2022.2.5,60.064807021933994,
,,,,,,,,,,,,,,,,,,,,5,0,5,0,24,0,24,0,,,,,,grolific,nw,h,lower,,,,,,,2,nw,HiDemNoTar,h,1,0.6740374830551445,,,,,,,,,,,,,,,,,327,2023-11-10_12h28.36.454,leap3,2022.2.5,60.064807021933994,
,,,,,,,,,,,,,,,,,,,,5,0,5,0,25,0,25,0,,,,,,brials,nw,h,lower,,,,,,,2,nw,HiDemNoTar,h,1,0.678086445434019,,,,,,,,,,,,,,,,,327,2023-11-10_12h28.36.454,leap3,2022.2.5,60.064807021933994,
,,,,,,,,,,,,,,,,,,,,5,0,5,0,26,0,26,0,,,,,,expected,w,g,lower,,,,,,,2,w,HiDemNoTar,g,1,0.6570871295407414,,,,,,,,,,,,,,,,,327,2023-11-10_12h28.36.454,leap3,2022.2.5,60.064807021933994,
,,,,,,,,,,,,,,,,,,,,5,0,5,0,27,0,27,0,,,,,,dounger,nw,h,lower,,,,,,,2,nw,HiDemNoTar,h,1,0.693837339291349,,,,,,,,,,,,,,,,,327,2023-11-10_12h28.36.454,leap3,2022.2.5,60.064807021933994,
,,,,,,,,,,,,,,,,,,,,5,0,5,0,28,0,28,0,,,,,,pepperoni,w,g,lower,,,,,,,2,w,HiDemNoTar,g,1,0.7130892775021493,,,,,,,,,,,,,,,,,327,2023-11-10_12h28.36.454,leap3,2022.2.5,60.064807021933994,
,,,,,,,,,,,,,,,,,,,,5,0,5,0,29,0,29,0,,,,,,scrobby,nw,h,lower,,,,,,,2,nw,HiDemNoTar,h,1,0.723850644659251,,,,,,,,,,,,,,,,,327,2023-11-10_12h28.36.454,leap3,2022.2.5,60.064807021933994,
,,,,,,,,,,,,,,,,,,,,5,0,5,0,,,,,,,,,,,,,,,,,,,,,,,,,,,,,,,,,,,,,,,,,,327,2023-11-10_12h28.36.454,leap3,2022.2.5,60.064807021933994,
,,,,,,,,,,,,,,,,,,,,6,0,6,0,0,0,0,0,,,,,,scarlet,w,g,upper,,,,,,,3,w,LoDemNoTar,g,1,0.7741564356256276,,,,,,,,,,,,,,,,,327,2023-11-10_12h28.36.454,leap3,2022.2.5,60.064807021933994,
,,,,,,,,,,,,,,,,,,,,6,0,6,0,1,0,1,0,,,,,,pariah,w,g,upper,,,,,,,3,w,LoDemNoTar,h,0,0.7811919630039483,,,,,,,,,,,,,,,,,327,2023-11-10_12h28.36.454,leap3,2022.2.5,60.064807021933994,
,,,,,,,,,,,,,,,,,,,,6,0,6,0,2,0,2,0,,,,,,leuter,nw,h,upper,,,,,,,3,nw,LoDemNoTar,h,1,0.6212192163802683,,,,,,,,,,,,,,,,,327,2023-11-10_12h28.36.454,leap3,2022.2.5,60.064807021933994,
,,,,,,,,,,,,,,,,,,,,6,0,6,0,3,0,3,0,,,,,,whirlpool,w,g,upper,,,,,,,3,w,LoDemNoTar,g,1,0.6192437335848808,,,,,,,,,,,,,,,,,327,2023-11-10_12h28.36.454,leap3,2022.2.5,60.064807021933994,
,,,,,,,,,,,,,,,,,,,,6,0,6,0,4,0,4,0,,,,,,horks,nw,h,upper,,,,,,,3,nw,LoDemNoTar,h,1,0.6892417834606022,,,,,,,,,,,,,,,,,327,2023-11-10_12h28.36.454,leap3,2022.2.5,60.064807021933994,
,,,,,,,,,,,,,,,,,,,,6,0,6,0,5,0,5,0,,,,,,twarfs,nw,h,upper,,,,,,,3,nw,LoDemNoTar,h,1,0.7568511774297804,,,,,,,,,,,,,,,,,327,2023-11-10_12h28.36.454,leap3,2022.2.5,60.064807021933994,
,,,,,,,,,,,,,,,,,,,,6,0,6,0,6,0,6,0,,,,,,pallir,nw,h,upper,,,,,,,3,nw,LoDemNoTar,h,1,0.5014179367572069,,,,,,,,,,,,,,,,,327,2023-11-10_12h28.36.454,leap3,2022.2.5,60.064807021933994,
,,,,,,,,,,,,,,,,,,,,6,0,6,0,7,0,7,0,,,,,,slimped,nw,h,upper,,,,,,,3,nw,LoDemNoTar,h,1,1.0963124700356275,,,,,,,,,,,,,,,,,327,2023-11-10_12h28.36.454,leap3,2022.2.5,60.064807021933994,
,,,,,,,,,,,,,,,,,,,,6,0,6,0,8,0,8,0,,,,,,fudden,nw,h,upper,,,,,,,3,nw,LoDemNoTar,h,1,0.507431787904352,,,,,,,,,,,,,,,,,327,2023-11-10_12h28.36.454,leap3,2022.2.5,60.064807021933994,
,,,,,,,,,,,,,,,,,,,,6,0,6,0,9,0,9,0,,,,,,divider,w,g,upper,,,,,,,3,w,LoDemNoTar,h,0,0.48612491018138826,,,,,,,,,,,,,,,,,327,2023-11-10_12h28.36.454,leap3,2022.2.5,60.064807021933994,
,,,,,,,,,,,,,,,,,,,,6,0,6,0,10,0,10,0,,,,,,senalize,nw,h,upper,,,,,,,3,nw,LoDemNoTar,h,1,0.87259985296987,,,,,,,,,,,,,,,,,327,2023-11-10_12h28.36.454,leap3,2022.2.5,60.064807021933994,
,,,,,,,,,,,,,,,,,,,,6,0,6,0,11,0,11,0,,,,,,expired,w,g,upper,,,,,,,3,w,LoDemNoTar,g,1,0.507848602719605,,,,,,,,,,,,,,,,,327,2023-11-10_12h28.36.454,leap3,2022.2.5,60.064807021933994,
,,,,,,,,,,,,,,,,,,,,6,0,6,0,12,0,12,0,,,,,,huzzles,nw,h,upper,,,,,,,3,nw,LoDemNoTar,h,1,0.6785886755678803,,,,,,,,,,,,,,,,,327,2023-11-10_12h28.36.454,leap3,2022.2.5,60.064807021933994,
,,,,,,,,,,,,,,,,,,,,6,0,6,0,13,0,13,0,,,,,,huests,nw,h,upper,,,,,,,3,nw,LoDemNoTar,h,1,0.4906151860486716,,,,,,,,,,,,,,,,,327,2023-11-10_12h28.36.454,leap3,2022.2.5,60.064807021933994,
,,,,,,,,,,,,,,,,,,,,6,0,6,0,14,0,14,0,,,,,,arbitrary,w,g,upper,,,,,,,3,w,LoDemNoTar,g,1,0.5660930746234953,,,,,,,,,,,,,,,,,327,2023-11-10_12h28.36.454,leap3,2022.2.5,60.064807021933994,
,,,,,,,,,,,,,,,,,,,,6,0,6,0,15,0,15,0,,,,,,welayed,nw,h,upper,,,,,,,3,nw,LoDemNoTar,h,1,0.5830815008375794,,,,,,,,,,,,,,,,,327,2023-11-10_12h28.36.454,leap3,2022.2.5,60.064807021933994,
,,,,,,,,,,,,,,,,,,,,6,0,6,0,16,0,16,0,,,,,,standard,w,g,upper,,,,,,,3,w,LoDemNoTar,g,1,0.6386823942884803,,,,,,,,,,,,,,,,,327,2023-11-10_12h28.36.454,leap3,2022.2.5,60.064807021933994,
,,,,,,,,,,,,,,,,,,,,6,0,6,0,17,0,17,0,,,,,,practice,w,g,upper,,,,,,,3,w,LoDemNoTar,g,1,0.45206661499105394,,,,,,,,,,,,,,,,,327,2023-11-10_12h28.36.454,leap3,2022.2.5,60.064807021933994,
,,,,,,,,,,,,,,,,,,,,6,0,6,0,18,0,18,0,,,,,,hecture,nw,h,upper,,,,,,,3,nw,LoDemNoTar,h,1,0.6167176840826869,,,,,,,,,,,,,,,,,327,2023-11-10_12h28.36.454,leap3,2022.2.5,60.064807021933994,
,,,,,,,,,,,,,,,,,,,,6,0,6,0,19,0,19,0,,,,,,potter,w,g,upper,,,,,,,3,w,LoDemNoTar,g,1,0.879850574536249,,,,,,,,,,,,,,,,,327,2023-11-10_12h28.36.454,leap3,2022.2.5,60.064807021933994,
,,,,,,,,,,,,,,,,,,,,6,0,6,0,20,0,20,0,,,,,,finish,w,g,upper,,,,,,,3,w,LoDemNoTar,g,1,0.5298692632932216,,,,,,,,,,,,,,,,,327,2023-11-10_12h28.36.454,leap3,2022.2.5,60.064807021933994,
,,,,,,,,,,,,,,,,,,,,6,0,6,0,21,0,21,0,,,,,,earterner,nw,h,upper,,,,,,,3,nw,LoDemNoTar,h,1,0.8519051198381931,,,,,,,,,,,,,,,,,327,2023-11-10_12h28.36.454,leap3,2022.2.5,60.064807021933994,
,,,,,,,,,,,,,,,,,,,,6,0,6,0,22,0,22,0,,,,,,alomalous,nw,h,upper,,,,,,,3,nw,LoDemNoTar,h,1,1.3522065572906286,,,,,,,,,,,,,,,,,327,2023-11-10_12h28.36.454,leap3,2022.2.5,60.064807021933994,
,,,,,,,,,,,,,,,,,,,,6,0,6,0,23,0,23,0,,,,,,castaway,w,g,upper,,,,,,,3,w,LoDemNoTar,g,1,0.6181459117215127,,,,,,,,,,,,,,,,,327,2023-11-10_12h28.36.454,leap3,2022.2.5,60.064807021933994,
,,,,,,,,,,,,,,,,,,,,6,0,6,0,24,0,24,0,,,,,,become,w,g,upper,,,,,,,3,w,LoDemNoTar,g,1,0.5046425396576524,,,,,,,,,,,,,,,,,327,2023-11-10_12h28.36.454,leap3,2022.2.5,60.064807021933994,
,,,,,,,,,,,,,,,,,,,,6,0,6,0,25,0,25,0,,,,,,couple,w,g,upper,,,,,,,3,w,LoDemNoTar,g,1,0.5713815556373447,,,,,,,,,,,,,,,,,327,2023-11-10_12h28.36.454,leap3,2022.2.5,60.064807021933994,
,,,,,,,,,,,,,,,,,,,,6,0,6,0,26,0,26,0,,,,,,carony,nw,h,upper,,,,,,,3,nw,LoDemNoTar,h,1,0.6033789520151913,,,,,,,,,,,,,,,,,327,2023-11-10_12h28.36.454,leap3,2022.2.5,60.064807021933994,
,,,,,,,,,,,,,,,,,,,,6,0,6,0,27,0,27,0,,,,,,religious,w,g,upper,,,,,,,3,w,LoDemNoTar,g,1,0.44191739265806973,,,,,,,,,,,,,,,,,327,2023-11-10_12h28.36.454,leap3,2022.2.5,60.064807021933994,
,,,,,,,,,,,,,,,,,,,,6,0,6,0,28,0,28,0,,,,,,abhorrent,w,g,upper,,,,,,,3,w,LoDemNoTar,g,1,0.9116734981071204,,,,,,,,,,,,,,,,,327,2023-11-10_12h28.36.454,leap3,2022.2.5,60.064807021933994,
,,,,,,,,,,,,,,,,,,,,6,0,6,0,29,0,29,0,,,,,,odacles,nw,h,upper,,,,,,,3,nw,LoDemNoTar,h,1,0.7210835779551417,,,,,,,,,,,,,,,,,327,2023-11-10_12h28.36.454,leap3,2022.2.5,60.064807021933994,
,,,,,,,,,,,,,,,,,,,,6,0,6,0,,,,,,,,,,,,,,,,,,,,,,,,,,,,,,,,,,,,,,,,,,327,2023-11-10_12h28.36.454,leap3,2022.2.5,60.064807021933994,
,,,,,,,,,,,,,,,,,,,,7,0,7,0,0,0,0,0,,,,,,amaze,w,g,lower,,,,,,,1,w,HiDemTar,g,1,0.675090279430151,,,,,,,,,,,,,,,,,327,2023-11-10_12h28.36.454,leap3,2022.2.5,60.064807021933994,
,,,,,,,,,,,,,,,,,,,,7,0,7,0,1,0,1,0,,,,,,stelled,nw,h,lower,,,,,,,1,nw,HiDemTar,h,1,1.094386978307739,,,,,,,,,,,,,,,,,327,2023-11-10_12h28.36.454,leap3,2022.2.5,60.064807021933994,
,,,,,,,,,,,,,,,,,,,,7,0,7,0,2,0,2,0,,,,,,humanize,w,g,lower,,,,,,,1,w,HiDemTar,g,1,0.7216682441066951,,,,,,,,,,,,,,,,,327,2023-11-10_12h28.36.454,leap3,2022.2.5,60.064807021933994,
,,,,,,,,,,,,,,,,,,,,7,0,7,0,3,0,3,0,,,,,,probable,w,g,lower,,,,,,,1,w,HiDemTar,g,1,0.5878187536727637,,,,,,,,,,,,,,,,,327,2023-11-10_12h28.36.454,leap3,2022.2.5,60.064807021933994,
,,,,,,,,,,,,,,,,,,,,7,0,7,0,4,0,4,0,,,,,,tracing,w,g,lower,,,,,,,1,w,HiDemTar,g,1,0.7062755660153925,,,,,,,,,,,,,,,,,327,2023-11-10_12h28.36.454,leap3,2022.2.5,60.064807021933994,
,,,,,,,,,,,,,,,,,,,,7,0,7,0,5,0,5,0,,,,,,ottans,nw,h,lower,,,,,,,1,nw,HiDemTar,h,1,0.7089078880380839,,,,,,,,,,,,,,,,,327,2023-11-10_12h28.36.454,leap3,2022.2.5,60.064807021933994,
,,,,,,,,,,,,,,,,,,,,7,0,7,0,6,0,6,0,,,,,,nopping,nw,h,lower,,,,,,,1,nw,HiDemTar,h,1,0.9189324963372201,,,,,,,,,,,,,,,,,327,2023-11-10_12h28.36.454,leap3,2022.2.5,60.064807021933994,
,,,,,,,,,,,,,,,,,,,,7,0,7,0,7,0,7,0,,,,,,bulmed,nw,h,lower,,,,,,,1,nw,HiDemTar,h,1,0.7289676326327026,,,,,,,,,,,,,,,,,327,2023-11-10_12h28.36.454,leap3,2022.2.5,60.064807021933994,
,,,,,,,,,,,,,,,,,,,,7,0,7,0,8,0,8,0,,,,,,preserve,w,g,lower,,,,,,,1,w,HiDemTar,g,1,0.5623169122263789,,,,,,,,,,,,,,,,,327,2023-11-10_12h28.36.454,leap3,2022.2.5,60.064807021933994,
,,,,,,,,,,,,,,,,,,,,7,0,7,0,9,0,9,0,,,,,,function,w,g,lower,,,,,,,1,w,HiDemTar,g,1,0.5223235602024943,,,,,,,,,,,,,,,,,327,2023-11-10_12h28.36.454,leap3,2022.2.5,60.064807021933994,
,,,,,,,,,,,,,,,,,,,,7,0,7,0,10,0,10,0,,,,,,digar,nw,h,lower,,,,,,,1,nw,HiDemTar,h,1,0.6117142525035888,,,,,,,,,,,,,,,,,327,2023-11-10_12h28.36.454,leap3,2022.2.5,60.064807021933994,
,,,,,,,,,,,,,,,,,,,,7,0,7,0,11,0,11,0,,,,,,noils,nw,h,lower,,,,,,,1,nw,HiDemTar,h,1,1.0343934737611562,,,,,,,,,,,,,,,,,327,2023-11-10_12h28.36.454,leap3,2022.2.5,60.064807021933994,
,,,,,,,,,,,,,,,,,,,,7,0,7,0,12,0,12,0,,,,,,disuse,w,g,lower,,,,,,,1,w,HiDemTar,h,0,1.311748385662213,,,,,,,,,,,,,,,,,327,2023-11-10_12h28.36.454,leap3,2022.2.5,60.064807021933994,
,,,,,,,,,,,,,,,,,,,,7,0,7,0,13,0,13,0,,,,,,hangar,w,g,lower,,,,,,,1,w,HiDemTar,g,1,0.6955519407056272,,,,,,,,,,,,,,,,,327,2023-11-10_12h28.36.454,leap3,2022.2.5,60.064807021933994,
,,,,,,,,,,,,,,,,,,,,7,0,7,0,14,0,14,0,,,,,,widely,w,g,lower,,,,,,,1,w,HiDemTar,g,1,0.7480490708258003,,,,,,,,,,,,,,,,,327,2023-11-10_12h28.36.454,leap3,2022.2.5,60.064807021933994,
,,,,,,,,,,,,,,,,,,,,7,0,7,0,15,0,15,0,,,,,,passet,nw,h,lower,,,,,,,1,nw,HiDemTar,h,1,0.6127869130577892,,,,,,,,,,,,,,,,,327,2023-11-10_12h28.36.454,leap3,2022.2.5,60.064807021933994,
,,,,,,,,,,,,,,,,,,,,7,0,7,0,16,0,16,0,,,,,,retona,nw,h,lower,,,,,,,1,nw,HiDemTar,h,1,0.6268321443349123,,,,,,,,,,,,,,,,,327,2023-11-10_12h28.36.454,leap3,2022.2.5,60.064807021933994,
,,,,,,,,,,,,,,,,,,,,7,0,7,0,17,0,17,0,,,,,,observer,w,g,lower,,,,,,,1,w,HiDemTar,g,1,0.8642380670644343,,,,,,,,,,,,,,,,,327,2023-11-10_12h28.36.454,leap3,2022.2.5,60.064807021933994,
,,,,,,,,,,,,,,,,,,,,7,0,7,0,18,0,18,0,,,,,,doxing,nw,h,lower,,,,,,,1,nw,HiDemTar,h,1,1.2524110581725836,,,,,,,,,,,,,,,,,327,2023-11-10_12h28.36.454,leap3,2022.2.5,60.064807021933994,
,,,,,,,,,,,,,,,,,,,,7,0,7,0,19,0,19,0,,,,,,chemical,w,g,lower,,,,,,,1,w,HiDemTar,g,1,0.7050456481520087,,,,,,,,,,,,,,,,,327,2023-11-10_12h28.36.454,leap3,2022.2.5,60.064807021933994,
,,,,,,,,,,,,,,,,,,,,7,0,7,0,20,0,20,0,,,,,,kraums,nw,h,lower,,,,,,,1,nw,HiDemTar,h,1,0.5711120662745088,,,,,,,,,,,,,,,,,327,2023-11-10_12h28.36.454,leap3,2022.2.5,60.064807021933994,
,,,,,,,,,,,,,,,,,,,,7,0,7,0,21,0,21,0,,,,,,flamingo,target,q,lower,,,,,,,1,target,HiDemTar,g,0,0.538398569682613,,,,,,,,,,,,,,,,,327,2023-11-10_12h28.36.454,leap3,2022.2.5,60.064807021933994,
,,,,,,,,,,,,,,,,,,,,7,0,7,0,22,0,22,0,,,,,,menarthe,nw,h,lower,,,,,,,1,aftertar1,HiDemTar,h,1,1.1540735827293247,,,,,,,,,,,,,,,,,327,2023-11-10_12h28.36.454,leap3,2022.2.5,60.064807021933994,
,,,,,,,,,,,,,,,,,,,,7,0,7,0,23,0,23,0,,,,,,nature,w,g,lower,,,,,,,1,aftertar2,HiDemTar,g,1,1.9381258357316256,,,,,,,,,,,,,,,,,327,2023-11-10_12h28.36.454,leap3,2022.2.5,60.064807021933994,
,,,,,,,,,,,,,,,,,,,,7,0,7,0,24,0,24,0,,,,,,tiery,nw,h,lower,,,,,,,1,aftertar3,HiDemTar,h,1,1.6908646789379418,,,,,,,,,,,,,,,,,327,2023-11-10_12h28.36.454,leap3,2022.2.5,60.064807021933994,
,,,,,,,,,,,,,,,,,,,,7,0,7,0,25,0,25,0,,,,,,maintain,w,g,lower,,,,,,,1,nw,HiDemTar,g,1,0.6855334902647883,,,,,,,,,,,,,,,,,327,2023-11-10_12h28.36.454,leap3,2022.2.5,60.064807021933994,
,,,,,,,,,,,,,,,,,,,,7,0,7,0,26,0,26,0,,,,,,elpousal,nw,h,lower,,,,,,,1,w,HiDemTar,h,1,0.6889272688422352,,,,,,,,,,,,,,,,,327,2023-11-10_12h28.36.454,leap3,2022.2.5,60.064807021933994,
,,,,,,,,,,,,,,,,,,,,7,0,7,0,27,0,27,0,,,,,,lenie,nw,h,lower,,,,,,,1,nw,HiDemTar,h,1,1.2116370475851,,,,,,,,,,,,,,,,,327,2023-11-10_12h28.36.454,leap3,2022.2.5,60.064807021933994,
,,,,,,,,,,,,,,,,,,,,7,0,7,0,28,0,28,0,,,,,,unamufed,nw,h,lower,,,,,,,1,nw,HiDemTar,h,1,1.5767713435925543,,,,,,,,,,,,,,,,,327,2023-11-10_12h28.36.454,leap3,2022.2.5,60.064807021933994,
,,,,,,,,,,,,,,,,,,,,7,0,7,0,29,0,29,0,,,,,,axis,w,g,lower,,,,,,,1,nw,HiDemTar,g,1,0.6960972098167986,,,,,,,,,,,,,,,,,327,2023-11-10_12h28.36.454,leap3,2022.2.5,60.064807021933994,
,,,,,,,,,,,,,,,,,,,,7,0,7,0,,,,,,,,,,,,,,,,,,,,,,,,,,,,,,,,,,,,,,,,,,327,2023-11-10_12h28.36.454,leap3,2022.2.5,60.064807021933994,
,,,,,,,,,,,,,,,,,,,,8,0,8,0,0,0,0,0,,,,,,omners,nw,h,upper,,,,,,,3,nw,LoDemNoTar,h,1,0.7074452294036746,,,,,,,,,,,,,,,,,327,2023-11-10_12h28.36.454,leap3,2022.2.5,60.064807021933994,
,,,,,,,,,,,,,,,,,,,,8,0,8,0,1,0,1,0,,,,,,gigglod,nw,h,upper,,,,,,,3,nw,LoDemNoTar,h,1,1.0134941407013685,,,,,,,,,,,,,,,,,327,2023-11-10_12h28.36.454,leap3,2022.2.5,60.064807021933994,
,,,,,,,,,,,,,,,,,,,,8,0,8,0,2,0,2,0,,,,,,showdown,w,g,upper,,,,,,,3,w,LoDemNoTar,g,1,0.6995995785109699,,,,,,,,,,,,,,,,,327,2023-11-10_12h28.36.454,leap3,2022.2.5,60.064807021933994,
,,,,,,,,,,,,,,,,,,,,8,0,8,0,3,0,3,0,,,,,,protest,w,g,upper,,,,,,,3,w,LoDemNoTar,g,1,0.7173150302842259,,,,,,,,,,,,,,,,,327,2023-11-10_12h28.36.454,leap3,2022.2.5,60.064807021933994,
,,,,,,,,,,,,,,,,,,,,8,0,8,0,4,0,4,0,,,,,,endgume,nw,h,upper,,,,,,,3,nw,LoDemNoTar,h,1,0.855245265411213,,,,,,,,,,,,,,,,,327,2023-11-10_12h28.36.454,leap3,2022.2.5,60.064807021933994,
,,,,,,,,,,,,,,,,,,,,8,0,8,0,5,0,5,0,,,,,,worps,nw,h,upper,,,,,,,3,nw,LoDemNoTar,h,1,0.6352346513886005,,,,,,,,,,,,,,,,,327,2023-11-10_12h28.36.454,leap3,2022.2.5,60.064807021933994,
,,,,,,,,,,,,,,,,,,,,8,0,8,0,6,0,6,0,,,,,,official,w,g,upper,,,,,,,3,w,LoDemNoTar,g,1,0.696612682659179,,,,,,,,,,,,,,,,,327,2023-11-10_12h28.36.454,leap3,2022.2.5,60.064807021933994,
,,,,,,,,,,,,,,,,,,,,8,0,8,0,7,0,7,0,,,,,,tharcely,nw,h,upper,,,,,,,3,nw,LoDemNoTar,h,1,0.6353346342220902,,,,,,,,,,,,,,,,,327,2023-11-10_12h28.36.454,leap3,2022.2.5,60.064807021933994,
,,,,,,,,,,,,,,,,,,,,8,0,8,0,8,0,8,0,,,,,,sorping,nw,h,upper,,,,,,,3,nw,LoDemNoTar,h,1,0.6967242525424808,,,,,,,,,,,,,,,,,327,2023-11-10_12h28.36.454,leap3,2022.2.5,60.064807021933994,
,,,,,,,,,,,,,,,,,,,,8,0,8,0,9,0,9,0,,,,,,inside,w,g,upper,,,,,,,3,w,LoDemNoTar,g,1,0.7714065844193101,,,,,,,,,,,,,,,,,327,2023-11-10_12h28.36.454,leap3,2022.2.5,60.064807021933994,
,,,,,,,,,,,,,,,,,,,,8,0,8,0,10,0,10,0,,,,,,resonant,w,g,upper,,,,,,,3,w,LoDemNoTar,g,1,0.7627981528639793,,,,,,,,,,,,,,,,,327,2023-11-10_12h28.36.454,leap3,2022.2.5,60.064807021933994,
,,,,,,,,,,,,,,,,,,,,8,0,8,0,11,0,11,0,,,,,,flieves,nw,h,upper,,,,,,,3,nw,LoDemNoTar,h,1,0.6748436337802559,,,,,,,,,,,,,,,,,327,2023-11-10_12h28.36.454,leap3,2022.2.5,60.064807021933994,
,,,,,,,,,,,,,,,,,,,,8,0,8,0,12,0,12,0,,,,,,mullet,w,g,upper,,,,,,,3,w,LoDemNoTar,g,1,0.8142881745006889,,,,,,,,,,,,,,,,,327,2023-11-10_12h28.36.454,leap3,2022.2.5,60.064807021933994,
,,,,,,,,,,,,,,,,,,,,8,0,8,0,13,0,13,0,,,,,,stalemate,w,g,upper,,,,,,,3,w,LoDemNoTar,g,1,1.115258170524612,,,,,,,,,,,,,,,,,327,2023-11-10_12h28.36.454,leap3,2022.2.5,60.064807021933994,
,,,,,,,,,,,,,,,,,,,,8,0,8,0,14,0,14,0,,,,,,rander,nw,h,upper,,,,,,,3,nw,LoDemNoTar,h,1,0.7733327383175492,,,,,,,,,,,,,,,,,327,2023-11-10_12h28.36.454,leap3,2022.2.5,60.064807021933994,
,,,,,,,,,,,,,,,,,,,,8,0,8,0,15,0,15,0,,,,,,ordinary,w,g,upper,,,,,,,3,w,LoDemNoTar,g,1,0.6849359122570604,,,,,,,,,,,,,,,,,327,2023-11-10_12h28.36.454,leap3,2022.2.5,60.064807021933994,
,,,,,,,,,,,,,,,,,,,,8,0,8,0,16,0,16,0,,,,,,suddenly,w,g,upper,,,,,,,3,w,LoDemNoTar,g,1,1.0721428466495126,,,,,,,,,,,,,,,,,327,2023-11-10_12h28.36.454,leap3,2022.2.5,60.064807021933994,
,,,,,,,,,,,,,,,,,,,,8,0,8,0,17,0,17,0,,,,,,rocket,w,g,upper,,,,,,,3,w,LoDemNoTar,g,1,0.5474006410222501,,,,,,,,,,,,,,,,,327,2023-11-10_12h28.36.454,leap3,2022.2.5,60.064807021933994,
,,,,,,,,,,,,,,,,,,,,8,0,8,0,18,0,18,0,,,,,,inversion,w,g,upper,,,,,,,3,w,LoDemNoTar,g,1,0.8840683817397803,,,,,,,,,,,,,,,,,327,2023-11-10_12h28.36.454,leap3,2022.2.5,60.064807021933994,
,,,,,,,,,,,,,,,,,,,,8,0,8,0,19,0,19,0,,,,,,birn,nw,h,upper,,,,,,,3,nw,LoDemNoTar,h,1,0.927407507551834,,,,,,,,,,,,,,,,,327,2023-11-10_12h28.36.454,leap3,2022.2.5,60.064807021933994,
,,,,,,,,,,,,,,,,,,,,8,0,8,0,20,0,20,0,,,,,,arrigns,nw,h,upper,,,,,,,3,nw,LoDemNoTar,h,1,0.9046942524146289,,,,,,,,,,,,,,,,,327,2023-11-10_12h28.36.454,leap3,2022.2.5,60.064807021933994,
,,,,,,,,,,,,,,,,,,,,8,0,8,0,21,0,21,0,,,,,,undue,w,g,upper,,,,,,,3,w,LoDemNoTar,g,1,1.2896737609989941,,,,,,,,,,,,,,,,,327,2023-11-10_12h28.36.454,leap3,2022.2.5,60.064807021933994,
,,,,,,,,,,,,,,,,,,,,8,0,8,0,22,0,22,0,,,,,,atble,nw,h,upper,,,,,,,3,nw,LoDemNoTar,h,1,0.6604431665036827,,,,,,,,,,,,,,,,,327,2023-11-10_12h28.36.454,leap3,2022.2.5,60.064807021933994,
,,,,,,,,,,,,,,,,,,,,8,0,8,0,23,0,23,0,,,,,,thacked,nw,h,upper,,,,,,,3,nw,LoDemNoTar,h,1,1.112335501704365,,,,,,,,,,,,,,,,,327,2023-11-10_12h28.36.454,leap3,2022.2.5,60.064807021933994,
,,,,,,,,,,,,,,,,,,,,8,0,8,0,24,0,24,0,,,,,,rational,w,g,upper,,,,,,,3,w,LoDemNoTar,g,1,0.6023384053260088,,,,,,,,,,,,,,,,,327,2023-11-10_12h28.36.454,leap3,2022.2.5,60.064807021933994,
,,,,,,,,,,,,,,,,,,,,8,0,8,0,25,0,25,0,,,,,,stifle,w,g,upper,,,,,,,3,w,LoDemNoTar,g,1,0.825052852043882,,,,,,,,,,,,,,,,,327,2023-11-10_12h28.36.454,leap3,2022.2.5,60.064807021933994,
,,,,,,,,,,,,,,,,,,,,8,0,8,0,26,0,26,0,,,,,,schides,nw,h,upper,,,,,,,3,nw,LoDemNoTar,h,1,0.5738562892656773,,,,,,,,,,,,,,,,,327,2023-11-10_12h28.36.454,leap3,2022.2.5,60.064807021933994,
,,,,,,,,,,,,,,,,,,,,8,0,8,0,27,0,27,0,,,,,,cessation,w,g,upper,,,,,,,3,w,LoDemNoTar,g,1,1.0374568465631455,,,,,,,,,,,,,,,,,327,2023-11-10_12h28.36.454,leap3,2022.2.5,60.064807021933994,
,,,,,,,,,,,,,,,,,,,,8,0,8,0,28,0,28,0,,,,,,aggepting,nw,h,upper,,,,,,,3,nw,LoDemNoTar,h,1,0.6744602569378912,,,,,,,,,,,,,,,,,327,2023-11-10_12h28.36.454,leap3,2022.2.5,60.064807021933994,
,,,,,,,,,,,,,,,,,,,,8,0,8,0,29,0,29,0,,,,,,otiates,nw,h,upper,,,,,,,3,nw,LoDemNoTar,h,1,0.5408829043153673,,,,,,,,,,,,,,,,,327,2023-11-10_12h28.36.454,leap3,2022.2.5,60.064807021933994,
,,,,,,,,,,,,,,,,,,,,8,0,8,0,,,,,,,,,,,,,,,,,,,,,,,,,,,,,,,,,,,,,,,,,,327,2023-11-10_12h28.36.454,leap3,2022.2.5,60.064807021933994,
,,,,,,,,,,,,,,,,,,,,9,0,9,0,0,0,0,0,,,,,,stranded,w,g,upper,,,,,,,3,w,LoDemNoTar,g,1,0.7024321970529854,,,,,,,,,,,,,,,,,327,2023-11-10_12h28.36.454,leap3,2022.2.5,60.064807021933994,
,,,,,,,,,,,,,,,,,,,,9,0,9,0,1,0,1,0,,,,,,germeated,nw,h,upper,,,,,,,3,nw,LoDemNoTar,h,1,1.185177095234394,,,,,,,,,,,,,,,,,327,2023-11-10_12h28.36.454,leap3,2022.2.5,60.064807021933994,
,,,,,,,,,,,,,,,,,,,,9,0,9,0,2,0,2,0,,,,,,armada,w,g,upper,,,,,,,3,w,LoDemNoTar,g,1,1.0085261333733797,,,,,,,,,,,,,,,,,327,2023-11-10_12h28.36.454,leap3,2022.2.5,60.064807021933994,
,,,,,,,,,,,,,,,,,,,,9,0,9,0,3,0,3,0,,,,,,lonnote,nw,h,upper,,,,,,,3,nw,LoDemNoTar,h,1,1.0537533403839916,,,,,,,,,,,,,,,,,327,2023-11-10_12h28.36.454,leap3,2022.2.5,60.064807021933994,
,,,,,,,,,,,,,,,,,,,,9,0,9,0,4,0,4,0,,,,,,susher,nw,h,upper,,,,,,,3,nw,LoDemNoTar,h,1,0.6176188513636589,,,,,,,,,,,,,,,,,327,2023-11-10_12h28.36.454,leap3,2022.2.5,60.064807021933994,
,,,,,,,,,,,,,,,,,,,,9,0,9,0,5,0,5,0,,,,,,reddar,nw,h,upper,,,,,,,3,nw,LoDemNoTar,h,1,0.6637568266596645,,,,,,,,,,,,,,,,,327,2023-11-10_12h28.36.454,leap3,2022.2.5,60.064807021933994,
,,,,,,,,,,,,,,,,,,,,9,0,9,0,6,0,6,0,,,,,,prominent,w,g,upper,,,,,,,3,w,LoDemNoTar,g,1,0.6917234696447849,,,,,,,,,,,,,,,,,327,2023-11-10_12h28.36.454,leap3,2022.2.5,60.064807021933994,
,,,,,,,,,,,,,,,,,,,,9,0,9,0,7,0,7,0,,,,,,casino,w,g,upper,,,,,,,3,w,LoDemNoTar,g,1,0.5904252522159368,,,,,,,,,,,,,,,,,327,2023-11-10_12h28.36.454,leap3,2022.2.5,60.064807021933994,
,,,,,,,,,,,,,,,,,,,,9,0,9,0,8,0,8,0,,,,,,enabled,w,g,upper,,,,,,,3,w,LoDemNoTar,q,0,0.26103008375503123,q,,,,,,,,,,,,,,,,327,2023-11-10_12h28.36.454,leap3,2022.2.5,60.064807021933994,
,,,,,,,,,,,,,,,,,,,,9,0,9,0,9,0,9,0,,,,,,gepealed,nw,h,upper,,,,,,,3,nw,LoDemNoTar,h,1,0.6971142506226897,,,,,,,,,,,,,,,,,327,2023-11-10_12h28.36.454,leap3,2022.2.5,60.064807021933994,
,,,,,,,,,,,,,,,,,,,,9,0,9,0,10,0,10,0,,,,,,tusied,nw,h,upper,,,,,,,3,nw,LoDemNoTar,h,1,0.5956677149515599,,,,,,,,,,,,,,,,,327,2023-11-10_12h28.36.454,leap3,2022.2.5,60.064807021933994,
,,,,,,,,,,,,,,,,,,,,9,0,9,0,11,0,11,0,,,,,,bickering,w,g,upper,,,,,,,3,w,LoDemNoTar,h,0,0.7704170220531523,,,,,,,,,,,,,,,,,327,2023-11-10_12h28.36.454,leap3,2022.2.5,60.064807021933994,
,,,,,,,,,,,,,,,,,,,,9,0,9,0,12,0,12,0,,,,,,vinegar,w,g,upper,,,,,,,3,w,LoDemNoTar,g,1,0.5776599303353578,,,,,,,,,,,,,,,,,327,2023-11-10_12h28.36.454,leap3,2022.2.5,60.064807021933994,
,,,,,,,,,,,,,,,,,,,,9,0,9,0,13,0,13,0,,,,,,module,w,g,upper,,,,,,,3,w,LoDemNoTar,g,1,0.5839667767286301,,,,,,,,,,,,,,,,,327,2023-11-10_12h28.36.454,leap3,2022.2.5,60.064807021933994,
,,,,,,,,,,,,,,,,,,,,9,0,9,0,14,0,14,0,,,,,,withep,nw,h,upper,,,,,,,3,nw,LoDemNoTar,h,1,0.5908003526274115,,,,,,,,,,,,,,,,,327,2023-11-10_12h28.36.454,leap3,2022.2.5,60.064807021933994,
,,,,,,,,,,,,,,,,,,,,9,0,9,0,15,0,15,0,,,,,,lovud,nw,h,upper,,,,,,,3,nw,LoDemNoTar,h,1,0.573933097301051,,,,,,,,,,,,,,,,,327,2023-11-10_12h28.36.454,leap3,2022.2.5,60.064807021933994,
,,,,,,,,,,,,,,,,,,,,9,0,9,0,16,0,16,0,,,,,,ahead,w,g,upper,,,,,,,3,w,LoDemNoTar,g,1,0.7653026827611029,,,,,,,,,,,,,,,,,327,2023-11-10_12h28.36.454,leap3,2022.2.5,60.064807021933994,
,,,,,,,,,,,,,,,,,,,,9,0,9,0,17,0,17,0,,,,,,undimmec,nw,h,upper,,,,,,,3,nw,LoDemNoTar,h,1,0.9092494179494679,,,,,,,,,,,,,,,,,327,2023-11-10_12h28.36.454,leap3,2022.2.5,60.064807021933994,
,,,,,,,,,,,,,,,,,,,,9,0,9,0,18,0,18,0,,,,,,arpired,nw,h,upper,,,,,,,3,nw,LoDemNoTar,h,1,0.5827428181655705,,,,,,,,,,,,,,,,,327,2023-11-10_12h28.36.454,leap3,2022.2.5,60.064807021933994,
,,,,,,,,,,,,,,,,,,,,9,0,9,0,19,0,19,0,,,,,,fuestion,nw,h,upper,,,,,,,3,nw,LoDemNoTar,h,1,0.6460486585274339,,,,,,,,,,,,,,,,,327,2023-11-10_12h28.36.454,leap3,2022.2.5,60.064807021933994,
,,,,,,,,,,,,,,,,,,,,9,0,9,0,20,0,20,0,,,,,,arranged,w,g,upper,,,,,,,3,w,LoDemNoTar,g,1,0.6353131146170199,,,,,,,,,,,,,,,,,327,2023-11-10_12h28.36.454,leap3,2022.2.5,60.064807021933994,
,,,,,,,,,,,,,,,,,,,,9,0,9,0,21,0,21,0,,,,,,halents,nw,h,upper,,,,,,,3,nw,LoDemNoTar,h,1,0.632665894459933,,,,,,,,,,,,,,,,,327,2023-11-10_12h28.36.454,leap3,2022.2.5,60.064807021933994,
,,,,,,,,,,,,,,,,,,,,9,0,9,0,22,0,22,0,,,,,,midday,w,g,upper,,,,,,,3,w,LoDemNoTar,g,1,0.7429929997306317,,,,,,,,,,,,,,,,,327,2023-11-10_12h28.36.454,leap3,2022.2.5,60.064807021933994,
,,,,,,,,,,,,,,,,,,,,9,0,9,0,23,0,23,0,,,,,,addition,w,g,upper,,,,,,,3,w,LoDemNoTar,g,1,0.5823647384531796,,,,,,,,,,,,,,,,,327,2023-11-10_12h28.36.454,leap3,2022.2.5,60.064807021933994,
,,,,,,,,,,,,,,,,,,,,9,0,9,0,24,0,24,0,,,,,,mubby,nw,h,upper,,,,,,,3,nw,LoDemNoTar,h,1,1.6538840460125357,,,,,,,,,,,,,,,,,327,2023-11-10_12h28.36.454,leap3,2022.2.5,60.064807021933994,
,,,,,,,,,,,,,,,,,,,,9,0,9,0,25,0,25,0,,,,,,bother,w,g,upper,,,,,,,3,w,LoDemNoTar,g,1,0.6018149866722524,,,,,,,,,,,,,,,,,327,2023-11-10_12h28.36.454,leap3,2022.2.5,60.064807021933994,
,,,,,,,,,,,,,,,,,,,,9,0,9,0,26,0,26,0,,,,,,ragtam,nw,h,upper,,,,,,,3,nw,LoDemNoTar,h,1,0.600556266028434,,,,,,,,,,,,,,,,,327,2023-11-10_12h28.36.454,leap3,2022.2.5,60.064807021933994,
,,,,,,,,,,,,,,,,,,,,9,0,9,0,27,0,27,0,,,,,,lentils,w,g,upper,,,,,,,3,w,LoDemNoTar,g,1,1.151081058429554,,,,,,,,,,,,,,,,,327,2023-11-10_12h28.36.454,leap3,2022.2.5,60.064807021933994,
,,,,,,,,,,,,,,,,,,,,9,0,9,0,28,0,28,0,,,,,,neally,nw,h,upper,,,,,,,3,nw,LoDemNoTar,h,1,0.6160280692856759,,,,,,,,,,,,,,,,,327,2023-11-10_12h28.36.454,leap3,2022.2.5,60.064807021933994,
,,,,,,,,,,,,,,,,,,,,9,0,9,0,29,0,29,0,,,,,,posing,w,g,upper,,,,,,,3,w,LoDemNoTar,g,1,0.7258913482073694,,,,,,,,,,,,,,,,,327,2023-11-10_12h28.36.454,leap3,2022.2.5,60.064807021933994,
,,,,,,,,,,,,,,,,,,,,9,0,9,0,,,,,,,,,,,,,,,,,,,,,,,,,,,,,,,,,,,,,,,,,,327,2023-11-10_12h28.36.454,leap3,2022.2.5,60.064807021933994,
,,,,,,,,,,,,,,,,,,,,10,0,10,0,0,0,0,0,,,,,,preight,nw,h,lower,,,,,,,1,nw,HiDemTar,h,1,0.8547599199227989,,,,,,,,,,,,,,,,,327,2023-11-10_12h28.36.454,leap3,2022.2.5,60.064807021933994,
,,,,,,,,,,,,,,,,,,,,10,0,10,0,1,0,1,0,,,,,,valif,nw,h,lower,,,,,,,1,nw,HiDemTar,h,1,0.8427563854493201,,,,,,,,,,,,,,,,,327,2023-11-10_12h28.36.454,leap3,2022.2.5,60.064807021933994,
,,,,,,,,,,,,,,,,,,,,10,0,10,0,2,0,2,0,,,,,,oppose,w,g,lower,,,,,,,1,w,HiDemTar,g,1,0.6712373094633222,,,,,,,,,,,,,,,,,327,2023-11-10_12h28.36.454,leap3,2022.2.5,60.064807021933994,
,,,,,,,,,,,,,,,,,,,,10,0,10,0,3,0,3,0,,,,,,despise,w,g,lower,,,,,,,1,w,HiDemTar,g,1,0.93042320641689,,,,,,,,,,,,,,,,,327,2023-11-10_12h28.36.454,leap3,2022.2.5,60.064807021933994,
,,,,,,,,,,,,,,,,,,,,10,0,10,0,4,0,4,0,,,,,,awful,w,g,lower,,,,,,,1,w,HiDemTar,g,1,0.6277535066474229,,,,,,,,,,,,,,,,,327,2023-11-10_12h28.36.454,leap3,2022.2.5,60.064807021933994,
,,,,,,,,,,,,,,,,,,,,10,0,10,0,5,0,5,0,,,,,,ebuating,nw,h,lower,,,,,,,1,nw,HiDemTar,h,1,0.7201834039296955,,,,,,,,,,,,,,,,,327,2023-11-10_12h28.36.454,leap3,2022.2.5,60.064807021933994,
,,,,,,,,,,,,,,,,,,,,10,0,10,0,6,0,6,0,,,,,,thaken,nw,h,lower,,,,,,,1,nw,HiDemTar,h,1,0.9212844036519527,,,,,,,,,,,,,,,,,327,2023-11-10_12h28.36.454,leap3,2022.2.5,60.064807021933994,
,,,,,,,,,,,,,,,,,,,,10,0,10,0,7,0,7,0,,,,,,clooped,nw,h,lower,,,,,,,1,nw,HiDemTar,h,1,0.5858892891556025,,,,,,,,,,,,,,,,,327,2023-11-10_12h28.36.454,leap3,2022.2.5,60.064807021933994,
,,,,,,,,,,,,,,,,,,,,10,0,10,0,8,0,8,0,,,,,,moyeur,nw,h,lower,,,,,,,1,nw,HiDemTar,h,1,0.5533668184652925,,,,,,,,,,,,,,,,,327,2023-11-10_12h28.36.454,leap3,2022.2.5,60.064807021933994,
,,,,,,,,,,,,,,,,,,,,10,0,10,0,9,0,9,0,,,,,,peags,nw,h,lower,,,,,,,1,nw,HiDemTar,h,1,0.6253185011446476,,,,,,,,,,,,,,,,,327,2023-11-10_12h28.36.454,leap3,2022.2.5,60.064807021933994,
,,,,,,,,,,,,,,,,,,,,10,0,10,0,10,0,10,0,,,,,,labitable,nw,h,lower,,,,,,,1,nw,HiDemTar,h,1,0.9580852666404098,,,,,,,,,,,,,,,,,327,2023-11-10_12h28.36.454,leap3,2022.2.5,60.064807021933994,
,,,,,,,,,,,,,,,,,,,,10,0,10,0,11,0,11,0,,,,,,fragment,w,g,lower,,,,,,,1,w,HiDemTar,g,1,0.8545652518514544,,,,,,,,,,,,,,,,,327,2023-11-10_12h28.36.454,leap3,2022.2.5,60.064807021933994,
,,,,,,,,,,,,,,,,,,,,10,0,10,0,12,0,12,0,,,,,,zears,nw,h,lower,,,,,,,1,nw,HiDemTar,h,1,0.6427389711607248,,,,,,,,,,,,,,,,,327,2023-11-10_12h28.36.454,leap3,2022.2.5,60.064807021933994,
,,,,,,,,,,,,,,,,,,,,10,0,10,0,13,0,13,0,,,,,,publish,w,g,lower,,,,,,,1,w,HiDemTar,g,1,0.607402422465384,,,,,,,,,,,,,,,,,327,2023-11-10_12h28.36.454,leap3,2022.2.5,60.064807021933994,
,,,,,,,,,,,,,,,,,,,,10,0,10,0,14,0,14,0,,,,,,rawhide,w,g,lower,,,,,,,1,w,HiDemTar,g,1,1.2380678658373654,,,,,,,,,,,,,,,,,327,2023-11-10_12h28.36.454,leap3,2022.2.5,60.064807021933994,
,,,,,,,,,,,,,,,,,,,,10,0,10,0,15,0,15,0,,,,,,dolphin,target,q,lower,,,,,,,1,target,HiDemTar,q,1,0.6658750001806766,q,,,,,,,,,,,,,,,,327,2023-11-10_12h28.36.454,leap3,2022.2.5,60.064807021933994,
,,,,,,,,,,,,,,,,,,,,10,0,10,0,16,0,16,0,,,,,,leather,w,g,lower,,,,,,,1,aftertar1,HiDemTar,g,1,0.8858362850733101,,,,,,,,,,,,,,,,,327,2023-11-10_12h28.36.454,leap3,2022.2.5,60.064807021933994,
,,,,,,,,,,,,,,,,,,,,10,0,10,0,17,0,17,0,,,,,,itfidels,nw,h,lower,,,,,,,1,aftertar2,HiDemTar,h,1,0.5452483675908297,,,,,,,,,,,,,,,,,327,2023-11-10_12h28.36.454,leap3,2022.2.5,60.064807021933994,
,,,,,,,,,,,,,,,,,,,,10,0,10,0,18,0,18,0,,,,,,glocked,nw,h,lower,,,,,,,1,aftertar3,HiDemTar,h,1,1.0979317238088697,,,,,,,,,,,,,,,,,327,2023-11-10_12h28.36.454,leap3,2022.2.5,60.064807021933994,
,,,,,,,,,,,,,,,,,,,,10,0,10,0,19,0,19,0,,,,,,gackpedal,nw,h,lower,,,,,,,1,nw,HiDemTar,h,1,0.6126852752640843,,,,,,,,,,,,,,,,,327,2023-11-10_12h28.36.454,leap3,2022.2.5,60.064807021933994,
,,,,,,,,,,,,,,,,,,,,10,0,10,0,20,0,20,0,,,,,,naxis,nw,h,lower,,,,,,,1,nw,HiDemTar,h,1,0.874751795316115,,,,,,,,,,,,,,,,,327,2023-11-10_12h28.36.454,leap3,2022.2.5,60.064807021933994,
,,,,,,,,,,,,,,,,,,,,10,0,10,0,21,0,21,0,,,,,,standard,w,g,lower,,,,,,,1,nw,HiDemTar,g,1,0.5500495166052133,,,,,,,,,,,,,,,,,327,2023-11-10_12h28.36.454,leap3,2022.2.5,60.064807021933994,
,,,,,,,,,,,,,,,,,,,,10,0,10,0,22,0,22,0,,,,,,loneliest,w,g,lower,,,,,,,1,w,HiDemTar,g,1,0.5187635854817927,,,,,,,,,,,,,,,,,327,2023-11-10_12h28.36.454,leap3,2022.2.5,60.064807021933994,
,,,,,,,,,,,,,,,,,,,,10,0,10,0,23,0,23,0,,,,,,bypassed,w,g,lower,,,,,,,1,w,HiDemTar,g,1,0.7359392638318241,,,,,,,,,,,,,,,,,327,2023-11-10_12h28.36.454,leap3,2022.2.5,60.064807021933994,
,,,,,,,,,,,,,,,,,,,,10,0,10,0,24,0,24,0,,,,,,erithets,nw,h,lower,,,,,,,1,w,HiDemTar,h,1,0.5204851392190903,,,,,,,,,,,,,,,,,327,2023-11-10_12h28.36.454,leap3,2022.2.5,60.064807021933994,
,,,,,,,,,,,,,,,,,,,,10,0,10,0,25,0,25,0,,,,,,envelop,w,g,lower,,,,,,,1,nw,HiDemTar,g,1,0.6018768963404,,,,,,,,,,,,,,,,,327,2023-11-10_12h28.36.454,leap3,2022.2.5,60.064807021933994,
,,,,,,,,,,,,,,,,,,,,10,0,10,0,26,0,26,0,,,,,,decency,w,g,lower,,,,,,,1,w,HiDemTar,g,1,0.6246073669753969,,,,,,,,,,,,,,,,,327,2023-11-10_12h28.36.454,leap3,2022.2.5,60.064807021933994,
,,,,,,,,,,,,,,,,,,,,10,0,10,0,27,0,27,0,,,,,,gestalion,nw,h,lower,,,,,,,1,w,HiDemTar,h,1,0.5339519947301596,,,,,,,,,,,,,,,,,327,2023-11-10_12h28.36.454,leap3,2022.2.5,60.064807021933994,
,,,,,,,,,,,,,,,,,,,,10,0,10,0,28,0,28,0,,,,,,fictional,w,g,lower,,,,,,,1,nw,HiDemTar,g,1,0.6152017235290259,,,,,,,,,,,,,,,,,327,2023-11-10_12h28.36.454,leap3,2022.2.5,60.064807021933994,
,,,,,,,,,,,,,,,,,,,,10,0,10,0,29,0,29,0,,,,,,reason,w,g,lower,,,,,,,1,w,HiDemTar,g,1,0.6055709538049996,,,,,,,,,,,,,,,,,327,2023-11-10_12h28.36.454,leap3,2022.2.5,60.064807021933994,
,,,,,,,,,,,,,,,,,,,,10,0,10,0,,,,,,,,,,,,,,,,,,,,,,,,,,,,,,,,,,,,,,,,,,327,2023-11-10_12h28.36.454,leap3,2022.2.5,60.064807021933994,
,,,,,,,,,,,,,,,,,,,,11,0,11,0,0,0,0,0,,,,,,rapport,w,g,upper,,,,,,,3,w,LoDemNoTar,g,1,0.7796419023070484,,,,,,,,,,,,,,,,,327,2023-11-10_12h28.36.454,leap3,2022.2.5,60.064807021933994,
,,,,,,,,,,,,,,,,,,,,11,0,11,0,1,0,1,0,,,,,,brighten,w,g,upper,,,,,,,3,w,LoDemNoTar,g,1,0.5379287840332836,,,,,,,,,,,,,,,,,327,2023-11-10_12h28.36.454,leap3,2022.2.5,60.064807021933994,
,,,,,,,,,,,,,,,,,,,,11,0,11,0,2,0,2,0,,,,,,shurk,nw,h,upper,,,,,,,3,nw,LoDemNoTar,h,1,0.6676677337381989,,,,,,,,,,,,,,,,,327,2023-11-10_12h28.36.454,leap3,2022.2.5,60.064807021933994,
,,,,,,,,,,,,,,,,,,,,11,0,11,0,3,0,3,0,,,,,,mennel,nw,h,upper,,,,,,,3,nw,LoDemNoTar,h,1,0.7196944165043533,,,,,,,,,,,,,,,,,327,2023-11-10_12h28.36.454,leap3,2022.2.5,60.064807021933994,
,,,,,,,,,,,,,,,,,,,,11,0,11,0,4,0,4,0,,,,,,alticles,nw,h,upper,,,,,,,3,nw,LoDemNoTar,h,1,0.8173008935991675,,,,,,,,,,,,,,,,,327,2023-11-10_12h28.36.454,leap3,2022.2.5,60.064807021933994,
,,,,,,,,,,,,,,,,,,,,11,0,11,0,5,0,5,0,,,,,,pircus,nw,h,upper,,,,,,,3,nw,LoDemNoTar,h,1,0.5432642768137157,,,,,,,,,,,,,,,,,327,2023-11-10_12h28.36.454,leap3,2022.2.5,60.064807021933994,
,,,,,,,,,,,,,,,,,,,,11,0,11,0,6,0,6,0,,,,,,hotplate,w,g,upper,,,,,,,3,w,LoDemNoTar,g,1,0.8959447860252112,,,,,,,,,,,,,,,,,327,2023-11-10_12h28.36.454,leap3,2022.2.5,60.064807021933994,
,,,,,,,,,,,,,,,,,,,,11,0,11,0,7,0,7,0,,,,,,pripend,nw,h,upper,,,,,,,3,nw,LoDemNoTar,h,1,0.7708758823573589,,,,,,,,,,,,,,,,,327,2023-11-10_12h28.36.454,leap3,2022.2.5,60.064807021933994,
,,,,,,,,,,,,,,,,,,,,11,0,11,0,8,0,8,0,,,,,,actual,w,g,upper,,,,,,,3,w,LoDemNoTar,g,1,0.5850208974443376,,,,,,,,,,,,,,,,,327,2023-11-10_12h28.36.454,leap3,2022.2.5,60.064807021933994,
,,,,,,,,,,,,,,,,,,,,11,0,11,0,9,0,9,0,,,,,,slooch,nw,h,upper,,,,,,,3,nw,LoDemNoTar,h,1,1.232388062402606,,,,,,,,,,,,,,,,,327,2023-11-10_12h28.36.454,leap3,2022.2.5,60.064807021933994,
,,,,,,,,,,,,,,,,,,,,11,0,11,0,10,0,10,0,,,,,,clume,nw,h,upper,,,,,,,3,nw,LoDemNoTar,h,1,0.7097540979739279,,,,,,,,,,,,,,,,,327,2023-11-10_12h28.36.454,leap3,2022.2.5,60.064807021933994,
,,,,,,,,,,,,,,,,,,,,11,0,11,0,11,0,11,0,,,,,,shivering,w,g,upper,,,,,,,3,w,LoDemNoTar,g,1,0.6557115416508168,,,,,,,,,,,,,,,,,327,2023-11-10_12h28.36.454,leap3,2022.2.5,60.064807021933994,
,,,,,,,,,,,,,,,,,,,,11,0,11,0,12,0,12,0,,,,,,volume,w,g,upper,,,,,,,3,w,LoDemNoTar,g,1,0.5157790067605674,,,,,,,,,,,,,,,,,327,2023-11-10_12h28.36.454,leap3,2022.2.5,60.064807021933994,
,,,,,,,,,,,,,,,,,,,,11,0,11,0,13,0,13,0,,,,,,mitten,w,g,upper,,,,,,,3,w,LoDemNoTar,g,1,0.7017975393682718,,,,,,,,,,,,,,,,,327,2023-11-10_12h28.36.454,leap3,2022.2.5,60.064807021933994,
,,,,,,,,,,,,,,,,,,,,11,0,11,0,14,0,14,0,,,,,,peems,nw,h,upper,,,,,,,3,nw,LoDemNoTar,h,1,0.8085123610217124,,,,,,,,,,,,,,,,,327,2023-11-10_12h28.36.454,leap3,2022.2.5,60.064807021933994,
,,,,,,,,,,,,,,,,,,,,11,0,11,0,15,0,15,0,,,,,,treenery,nw,h,upper,,,,,,,3,nw,LoDemNoTar,h,1,0.8705445826053619,,,,,,,,,,,,,,,,,327,2023-11-10_12h28.36.454,leap3,2022.2.5,60.064807021933994,
,,,,,,,,,,,,,,,,,,,,11,0,11,0,16,0,16,0,,,,,,snays,nw,h,upper,,,,,,,3,nw,LoDemNoTar,h,1,0.5778390381019562,,,,,,,,,,,,,,,,,327,2023-11-10_12h28.36.454,leap3,2022.2.5,60.064807021933994,
,,,,,,,,,,,,,,,,,,,,11,0,11,0,17,0,17,0,,,,,,nimono,nw,h,upper,,,,,,,3,nw,LoDemNoTar,h,1,0.6002199007198215,,,,,,,,,,,,,,,,,327,2023-11-10_12h28.36.454,leap3,2022.2.5,60.064807021933994,
,,,,,,,,,,,,,,,,,,,,11,0,11,0,18,0,18,0,,,,,,committed,w,g,upper,,,,,,,3,w,LoDemNoTar,g,1,0.606969385407865,,,,,,,,,,,,,,,,,327,2023-11-10_12h28.36.454,leap3,2022.2.5,60.064807021933994,
,,,,,,,,,,,,,,,,,,,,11,0,11,0,19,0,19,0,,,,,,legalize,w,g,upper,,,,,,,3,w,LoDemNoTar,g,1,0.5168904021847993,,,,,,,,,,,,,,,,,327,2023-11-10_12h28.36.454,leap3,2022.2.5,60.064807021933994,
,,,,,,,,,,,,,,,,,,,,11,0,11,0,20,0,20,0,,,,,,begut,nw,h,upper,,,,,,,3,nw,LoDemNoTar,h,1,0.6789604651276022,,,,,,,,,,,,,,,,,327,2023-11-10_12h28.36.454,leap3,2022.2.5,60.064807021933994,
,,,,,,,,,,,,,,,,,,,,11,0,11,0,21,0,21,0,,,,,,sporidic,nw,h,upper,,,,,,,3,nw,LoDemNoTar,h,1,1.2183183319866657,,,,,,,,,,,,,,,,,327,2023-11-10_12h28.36.454,leap3,2022.2.5,60.064807021933994,
,,,,,,,,,,,,,,,,,,,,11,0,11,0,22,0,22,0,,,,,,amplifier,w,g,upper,,,,,,,3,w,LoDemNoTar,g,1,0.6163703936617821,,,,,,,,,,,,,,,,,327,2023-11-10_12h28.36.454,leap3,2022.2.5,60.064807021933994,
,,,,,,,,,,,,,,,,,,,,11,0,11,0,23,0,23,0,,,,,,childhood,w,g,upper,,,,,,,3,w,LoDemNoTar,g,1,0.5103243296034634,,,,,,,,,,,,,,,,,327,2023-11-10_12h28.36.454,leap3,2022.2.5,60.064807021933994,
,,,,,,,,,,,,,,,,,,,,11,0,11,0,24,0,24,0,,,,,,bullet,w,g,upper,,,,,,,3,w,LoDemNoTar,g,1,0.8002770431339741,,,,,,,,,,,,,,,,,327,2023-11-10_12h28.36.454,leap3,2022.2.5,60.064807021933994,
,,,,,,,,,,,,,,,,,,,,11,0,11,0,25,0,25,0,,,,,,decant,w,g,upper,,,,,,,3,w,LoDemNoTar,g,1,0.9511129735037684,,,,,,,,,,,,,,,,,327,2023-11-10_12h28.36.454,leap3,2022.2.5,60.064807021933994,
,,,,,,,,,,,,,,,,,,,,11,0,11,0,26,0,26,0,,,,,,mamps,nw,h,upper,,,,,,,3,nw,LoDemNoTar,h,1,0.7667434909380972,,,,,,,,,,,,,,,,,327,2023-11-10_12h28.36.454,leap3,2022.2.5,60.064807021933994,
,,,,,,,,,,,,,,,,,,,,11,0,11,0,27,0,27,0,,,,,,grummer,nw,h,upper,,,,,,,3,nw,LoDemNoTar,h,1,1.0306858425028622,,,,,,,,,,,,,,,,,327,2023-11-10_12h28.36.454,leap3,2022.2.5,60.064807021933994,
,,,,,,,,,,,,,,,,,,,,11,0,11,0,28,0,28,0,,,,,,forfeit,w,g,upper,,,,,,,3,w,LoDemNoTar,g,1,0.7080699547659606,,,,,,,,,,,,,,,,,327,2023-11-10_12h28.36.454,leap3,2022.2.5,60.064807021933994,
,,,,,,,,,,,,,,,,,,,,11,0,11,0,29,0,29,0,,,,,,recollect,w,g,upper,,,,,,,3,w,LoDemNoTar,g,1,0.7020746432244778,,,,,,,,,,,,,,,,,327,2023-11-10_12h28.36.454,leap3,2022.2.5,60.064807021933994,
,,,,,,,,,,,,,,,,,,,,11,0,11,0,,,,,,,,,,,,,,,,,,,,,,,,,,,,,,,,,,,,,,,,,,327,2023-11-10_12h28.36.454,leap3,2022.2.5,60.064807021933994,
,,,,,,,,,,,,,,,,,,,,12,0,12,0,0,0,0,0,,,,,,coverall,w,g,lower,,,,,,,1,w,HiDemTar,g,1,1.0082566442433745,,,,,,,,,,,,,,,,,327,2023-11-10_12h28.36.454,leap3,2022.2.5,60.064807021933994,
,,,,,,,,,,,,,,,,,,,,12,0,12,0,1,0,1,0,,,,,,neliefs,nw,h,lower,,,,,,,1,nw,HiDemTar,h,1,0.6057788645848632,,,,,,,,,,,,,,,,,327,2023-11-10_12h28.36.454,leap3,2022.2.5,60.064807021933994,
,,,,,,,,,,,,,,,,,,,,12,0,12,0,2,0,2,0,,,,,,gymnasium,w,g,lower,,,,,,,1,w,HiDemTar,g,1,0.8278189257252961,,,,,,,,,,,,,,,,,327,2023-11-10_12h28.36.454,leap3,2022.2.5,60.064807021933994,
,,,,,,,,,,,,,,,,,,,,12,0,12,0,3,0,3,0,,,,,,beartiset,nw,h,lower,,,,,,,1,nw,HiDemTar,h,1,0.9531672506127506,,,,,,,,,,,,,,,,,327,2023-11-10_12h28.36.454,leap3,2022.2.5,60.064807021933994,
,,,,,,,,,,,,,,,,,,,,12,0,12,0,4,0,4,0,,,,,,plogging,nw,h,lower,,,,,,,1,nw,HiDemTar,h,1,0.6892401280347258,,,,,,,,,,,,,,,,,327,2023-11-10_12h28.36.454,leap3,2022.2.5,60.064807021933994,
,,,,,,,,,,,,,,,,,,,,12,0,12,0,5,0,5,0,,,,,,suspect,w,g,lower,,,,,,,1,w,HiDemTar,g,1,0.6679325881414115,,,,,,,,,,,,,,,,,327,2023-11-10_12h28.36.454,leap3,2022.2.5,60.064807021933994,
,,,,,,,,,,,,,,,,,,,,12,0,12,0,6,0,6,0,,,,,,cills,nw,h,lower,,,,,,,1,nw,HiDemTar,h,1,0.6953145647421479,,,,,,,,,,,,,,,,,327,2023-11-10_12h28.36.454,leap3,2022.2.5,60.064807021933994,
,,,,,,,,,,,,,,,,,,,,12,0,12,0,7,0,7,0,,,,,,emotion,w,g,lower,,,,,,,1,w,HiDemTar,g,1,0.5300175817683339,,,,,,,,,,,,,,,,,327,2023-11-10_12h28.36.454,leap3,2022.2.5,60.064807021933994,
,,,,,,,,,,,,,,,,,,,,12,0,12,0,8,0,8,0,,,,,,appain,nw,h,lower,,,,,,,1,nw,HiDemTar,h,1,0.7794094923883677,,,,,,,,,,,,,,,,,327,2023-11-10_12h28.36.454,leap3,2022.2.5,60.064807021933994,
,,,,,,,,,,,,,,,,,,,,12,0,12,0,9,0,9,0,,,,,,subber,nw,h,lower,,,,,,,1,nw,HiDemTar,h,1,0.6587580300401896,,,,,,,,,,,,,,,,,327,2023-11-10_12h28.36.454,leap3,2022.2.5,60.064807021933994,
,,,,,,,,,,,,,,,,,,,,12,0,12,0,10,0,10,0,,,,,,seartfelt,nw,h,lower,,,,,,,1,nw,HiDemTar,h,1,0.5895369967911392,,,,,,,,,,,,,,,,,327,2023-11-10_12h28.36.454,leap3,2022.2.5,60.064807021933994,
,,,,,,,,,,,,,,,,,,,,12,0,12,0,11,0,11,0,,,,,,pived,nw,h,lower,,,,,,,1,nw,HiDemTar,h,1,0.6123512275516987,,,,,,,,,,,,,,,,,327,2023-11-10_12h28.36.454,leap3,2022.2.5,60.064807021933994,
,,,,,,,,,,,,,,,,,,,,12,0,12,0,12,0,12,0,,,,,,comment,w,g,lower,,,,,,,1,w,HiDemTar,g,1,0.5782757168635726,,,,,,,,,,,,,,,,,327,2023-11-10_12h28.36.454,leap3,2022.2.5,60.064807021933994,
,,,,,,,,,,,,,,,,,,,,12,0,12,0,13,0,13,0,,,,,,amms,nw,h,lower,,,,,,,1,nw,HiDemTar,h,1,0.4497176872100681,,,,,,,,,,,,,,,,,327,2023-11-10_12h28.36.454,leap3,2022.2.5,60.064807021933994,
,,,,,,,,,,,,,,,,,,,,12,0,12,0,14,0,14,0,,,,,,plunging,w,g,lower,,,,,,,1,w,HiDemTar,g,1,0.7742541008628905,,,,,,,,,,,,,,,,,327,2023-11-10_12h28.36.454,leap3,2022.2.5,60.064807021933994,
,,,,,,,,,,,,,,,,,,,,12,0,12,0,15,0,15,0,,,,,,scabry,nw,h,lower,,,,,,,1,nw,HiDemTar,h,1,0.741495578782633,,,,,,,,,,,,,,,,,327,2023-11-10_12h28.36.454,leap3,2022.2.5,60.064807021933994,
,,,,,,,,,,,,,,,,,,,,12,0,12,0,16,0,16,0,,,,,,brimitive,nw,h,lower,,,,,,,1,nw,HiDemTar,h,1,0.5819389850366861,,,,,,,,,,,,,,,,,327,2023-11-10_12h28.36.454,leap3,2022.2.5,60.064807021933994,
,,,,,,,,,,,,,,,,,,,,12,0,12,0,17,0,17,0,,,,,,crocodile,target,q,lower,,,,,,,1,target,HiDemTar,g,0,0.5250694386195391,,,,,,,,,,,,,,,,,327,2023-11-10_12h28.36.454,leap3,2022.2.5,60.064807021933994,
,,,,,,,,,,,,,,,,,,,,12,0,12,0,18,0,18,0,,,,,,halms,nw,h,lower,,,,,,,1,aftertar1,HiDemTar,h,1,0.6790809738449752,,,,,,,,,,,,,,,,,327,2023-11-10_12h28.36.454,leap3,2022.2.5,60.064807021933994,
,,,,,,,,,,,,,,,,,,,,12,0,12,0,19,0,19,0,,,,,,relaying,w,g,lower,,,,,,,1,aftertar2,HiDemTar,g,1,1.1934216830413789,,,,,,,,,,,,,,,,,327,2023-11-10_12h28.36.454,leap3,2022.2.5,60.064807021933994,
,,,,,,,,,,,,,,,,,,,,12,0,12,0,20,0,20,0,,,,,,perishing,w,g,lower,,,,,,,1,aftertar3,HiDemTar,g,1,1.08034075377509,,,,,,,,,,,,,,,,,327,2023-11-10_12h28.36.454,leap3,2022.2.5,60.064807021933994,
,,,,,,,,,,,,,,,,,,,,12,0,12,0,21,0,21,0,,,,,,surface,w,g,lower,,,,,,,1,w,HiDemTar,g,1,1.1876289853826165,,,,,,,,,,,,,,,,,327,2023-11-10_12h28.36.454,leap3,2022.2.5,60.064807021933994,
,,,,,,,,,,,,,,,,,,,,12,0,12,0,22,0,22,0,,,,,,fetching,w,g,lower,,,,,,,1,w,HiDemTar,g,1,0.7304167174734175,,,,,,,,,,,,,,,,,327,2023-11-10_12h28.36.454,leap3,2022.2.5,60.064807021933994,
,,,,,,,,,,,,,,,,,,,,12,0,12,0,23,0,23,0,,,,,,fomrade,nw,h,lower,,,,,,,1,w,HiDemTar,h,1,0.6356570944190025,,,,,,,,,,,,,,,,,327,2023-11-10_12h28.36.454,leap3,2022.2.5,60.064807021933994,
,,,,,,,,,,,,,,,,,,,,12,0,12,0,24,0,24,0,,,,,,seasoning,w,g,lower,,,,,,,1,nw,HiDemTar,g,1,0.6010128087364137,,,,,,,,,,,,,,,,,327,2023-11-10_12h28.36.454,leap3,2022.2.5,60.064807021933994,
,,,,,,,,,,,,,,,,,,,,12,0,12,0,25,0,25,0,,,,,,define,w,g,lower,,,,,,,1,w,HiDemTar,g,1,0.5109944115392864,,,,,,,,,,,,,,,,,327,2023-11-10_12h28.36.454,leap3,2022.2.5,60.064807021933994,
,,,,,,,,,,,,,,,,,,,,12,0,12,0,26,0,26,0,,,,,,marinate,w,g,lower,,,,,,,1,w,HiDemTar,g,1,0.8172280585858971,,,,,,,,,,,,,,,,,327,2023-11-10_12h28.36.454,leap3,2022.2.5,60.064807021933994,
,,,,,,,,,,,,,,,,,,,,12,0,12,0,27,0,27,0,,,,,,scack,nw,h,lower,,,,,,,1,w,HiDemTar,h,1,0.6304877977818251,,,,,,,,,,,,,,,,,327,2023-11-10_12h28.36.454,leap3,2022.2.5,60.064807021933994,
,,,,,,,,,,,,,,,,,,,,12,0,12,0,28,0,28,0,,,,,,even,w,g,lower,,,,,,,1,nw,HiDemTar,g,1,0.7228263199795038,,,,,,,,,,,,,,,,,327,2023-11-10_12h28.36.454,leap3,2022.2.5,60.064807021933994,
,,,,,,,,,,,,,,,,,,,,12,0,12,0,29,0,29,0,,,,,,gumdrep,nw,h,lower,,,,,,,1,w,HiDemTar,h,1,0.9244477590546012,,,,,,,,,,,,,,,,,327,2023-11-10_12h28.36.454,leap3,2022.2.5,60.064807021933994,
,,,,,,,,,,,,,,,,,,,,12,0,12,0,,,,,,,,,,,,,,,,,,,,,,,,,,,,,,,,,,,,,,,,,,327,2023-11-10_12h28.36.454,leap3,2022.2.5,60.064807021933994,
,,,,,,,,,,,,,,,,,,,,13,0,13,0,0,0,0,0,,,,,,amkles,nw,h,upper,,,,,,,4,nw,LoDemTar,h,1,0.8543854819145054,,,,,,,,,,,,,,,,,327,2023-11-10_12h28.36.454,leap3,2022.2.5,60.064807021933994,
,,,,,,,,,,,,,,,,,,,,13,0,13,0,1,0,1,0,,,,,,persona,w,g,upper,,,,,,,4,w,LoDemTar,g,1,1.4105639234185219,,,,,,,,,,,,,,,,,327,2023-11-10_12h28.36.454,leap3,2022.2.5,60.064807021933994,
,,,,,,,,,,,,,,,,,,,,13,0,13,0,2,0,2,0,,,,,,turntable,w,g,upper,,,,,,,4,w,LoDemTar,g,1,0.584459075005725,,,,,,,,,,,,,,,,,327,2023-11-10_12h28.36.454,leap3,2022.2.5,60.064807021933994,
,,,,,,,,,,,,,,,,,,,,13,0,13,0,3,0,3,0,,,,,,series,w,g,upper,,,,,,,4,w,LoDemTar,g,1,0.5420767357572913,,,,,,,,,,,,,,,,,327,2023-11-10_12h28.36.454,leap3,2022.2.5,60.064807021933994,
,,,,,,,,,,,,,,,,,,,,13,0,13,0,4,0,4,0,,,,,,ufionize,nw,h,upper,,,,,,,4,nw,LoDemTar,h,1,0.8708342669997364,,,,,,,,,,,,,,,,,327,2023-11-10_12h28.36.454,leap3,2022.2.5,60.064807021933994,
,,,,,,,,,,,,,,,,,,,,13,0,13,0,5,0,5,0,,,,,,telecast,w,g,upper,,,,,,,4,w,LoDemTar,g,1,0.5781618293840438,,,,,,,,,,,,,,,,,327,2023-11-10_12h28.36.454,leap3,2022.2.5,60.064807021933994,
,,,,,,,,,,,,,,,,,,,,13,0,13,0,6,0,6,0,,,,,,rivet,w,g,upper,,,,,,,4,w,LoDemTar,g,1,1.001496565528214,,,,,,,,,,,,,,,,,327,2023-11-10_12h28.36.454,leap3,2022.2.5,60.064807021933994,
,,,,,,,,,,,,,,,,,,,,13,0,13,0,7,0,7,0,,,,,,latpin,nw,h,upper,,,,,,,4,nw,LoDemTar,h,1,0.7122520066332072,,,,,,,,,,,,,,,,,327,2023-11-10_12h28.36.454,leap3,2022.2.5,60.064807021933994,
,,,,,,,,,,,,,,,,,,,,13,0,13,0,8,0,8,0,,,,,,topefuls,nw,h,upper,,,,,,,4,nw,LoDemTar,h,1,0.8504222661722451,,,,,,,,,,,,,,,,,327,2023-11-10_12h28.36.454,leap3,2022.2.5,60.064807021933994,
,,,,,,,,,,,,,,,,,,,,13,0,13,0,9,0,9,0,,,,,,hodels,nw,h,upper,,,,,,,4,nw,LoDemTar,h,1,0.6469855811446905,,,,,,,,,,,,,,,,,327,2023-11-10_12h28.36.454,leap3,2022.2.5,60.064807021933994,
,,,,,,,,,,,,,,,,,,,,13,0,13,0,10,0,10,0,,,,,,veclors,nw,h,upper,,,,,,,4,nw,LoDemTar,h,1,0.4997801431454718,,,,,,,,,,,,,,,,,327,2023-11-10_12h28.36.454,leap3,2022.2.5,60.064807021933994,
,,,,,,,,,,,,,,,,,,,,13,0,13,0,11,0,11,0,,,,,,epthuse,nw,h,upper,,,,,,,4,nw,LoDemTar,h,1,0.5814039788674563,,,,,,,,,,,,,,,,,327,2023-11-10_12h28.36.454,leap3,2022.2.5,60.064807021933994,
,,,,,,,,,,,,,,,,,,,,13,0,13,0,12,0,12,0,,,,,,gettle,nw,h,upper,,,,,,,4,nw,LoDemTar,h,1,0.7247084418777376,,,,,,,,,,,,,,,,,327,2023-11-10_12h28.36.454,leap3,2022.2.5,60.064807021933994,
,,,,,,,,,,,,,,,,,,,,13,0,13,0,13,0,13,0,,,,,,brouhuha,nw,h,upper,,,,,,,4,nw,LoDemTar,h,1,0.7741723270155489,,,,,,,,,,,,,,,,,327,2023-11-10_12h28.36.454,leap3,2022.2.5,60.064807021933994,
,,,,,,,,,,,,,,,,,,,,13,0,13,0,14,0,14,0,,,,,,violate,w,g,upper,,,,,,,4,w,LoDemTar,g,1,0.629395604133606,,,,,,,,,,,,,,,,,327,2023-11-10_12h28.36.454,leap3,2022.2.5,60.064807021933994,
,,,,,,,,,,,,,,,,,,,,13,0,13,0,15,0,15,0,,,,,,gures,nw,h,upper,,,,,,,4,nw,LoDemTar,h,1,0.6187656710390002,,,,,,,,,,,,,,,,,327,2023-11-10_12h28.36.454,leap3,2022.2.5,60.064807021933994,
,,,,,,,,,,,,,,,,,,,,13,0,13,0,16,0,16,0,,,,,,aviation,w,g,upper,,,,,,,4,w,LoDemTar,g,1,0.6481721289455891,,,,,,,,,,,,,,,,,327,2023-11-10_12h28.36.454,leap3,2022.2.5,60.064807021933994,
,,,,,,,,,,,,,,,,,,,,13,0,13,0,17,0,17,0,,,,,,burrowing,w,g,upper,,,,,,,4,w,LoDemTar,g,1,0.9255134670529515,,,,,,,,,,,,,,,,,327,2023-11-10_12h28.36.454,leap3,2022.2.5,60.064807021933994,
,,,,,,,,,,,,,,,,,,,,13,0,13,0,18,0,18,0,,,,,,repayment,w,g,upper,,,,,,,4,w,LoDemTar,g,1,0.8708978320937604,,,,,,,,,,,,,,,,,327,2023-11-10_12h28.36.454,leap3,2022.2.5,60.064807021933994,
,,,,,,,,,,,,,,,,,,,,13,0,13,0,19,0,19,0,,,,,,maroon,w,g,upper,,,,,,,4,w,LoDemTar,g,1,0.8022564989514649,,,,,,,,,,,,,,,,,327,2023-11-10_12h28.36.454,leap3,2022.2.5,60.064807021933994,
,,,,,,,,,,,,,,,,,,,,13,0,13,0,20,0,20,0,,,,,,snife,nw,h,upper,,,,,,,4,nw,LoDemTar,h,1,0.9912473605945706,,,,,,,,,,,,,,,,,327,2023-11-10_12h28.36.454,leap3,2022.2.5,60.064807021933994,
,,,,,,,,,,,,,,,,,,,,13,0,13,0,21,0,21,0,,,,,,antonym,w,g,upper,,,,,,,4,w,LoDemTar,g,1,0.6542942393571138,,,,,,,,,,,,,,,,,327,2023-11-10_12h28.36.454,leap3,2022.2.5,60.064807021933994,
,,,,,,,,,,,,,,,,,,,,13,0,13,0,22,0,22,0,,,,,,slogan,w,g,upper,,,,,,,4,w,LoDemTar,g,1,0.5860207229852676,,,,,,,,,,,,,,,,,327,2023-11-10_12h28.36.454,leap3,2022.2.5,60.064807021933994,
,,,,,,,,,,,,,,,,,,,,13,0,13,0,23,0,23,0,,,,,,bloves,nw,h,upper,,,,,,,4,nw,LoDemTar,h,1,0.6094494161661714,,,,,,,,,,,,,,,,,327,2023-11-10_12h28.36.454,leap3,2022.2.5,60.064807021933994,
,,,,,,,,,,,,,,,,,,,,13,0,13,0,24,0,24,0,,,,,,company,w,g,upper,,,,,,,4,w,LoDemTar,g,1,0.5114559200592339,,,,,,,,,,,,,,,,,327,2023-11-10_12h28.36.454,leap3,2022.2.5,60.064807021933994,
,,,,,,,,,,,,,,,,,,,,13,0,13,0,25,0,25,0,,,,,,talate,nw,h,upper,,,,,,,4,nw,LoDemTar,h,1,0.7374999185558408,,,,,,,,,,,,,,,,,327,2023-11-10_12h28.36.454,leap3,2022.2.5,60.064807021933994,
,,,,,,,,,,,,,,,,,,,,13,0,13,0,26,0,26,0,,,,,,rarely,w,g,upper,,,,,,,4,w,LoDemTar,g,1,0.5380605491809547,,,,,,,,,,,,,,,,,327,2023-11-10_12h28.36.454,leap3,2022.2.5,60.064807021933994,
,,,,,,,,,,,,,,,,,,,,13,0,13,0,27,0,27,0,,,,,,triplet,w,g,upper,,,,,,,4,w,LoDemTar,g,1,0.6268503528553993,,,,,,,,,,,,,,,,,327,2023-11-10_12h28.36.454,leap3,2022.2.5,60.064807021933994,
,,,,,,,,,,,,,,,,,,,,13,0,13,0,28,0,28,0,,,,,,squirrel,target,q,upper,,,,,,,4,target,LoDemTar,q,1,0.5602543582208455,q,,,,,,,,,,,,,,,,327,2023-11-10_12h28.36.454,leap3,2022.2.5,60.064807021933994,
,,,,,,,,,,,,,,,,,,,,13,0,13,0,29,0,29,0,,,,,,baladroit,nw,h,upper,,,,,,,4,aftertar1,LoDemTar,h,1,1.223275745054707,,,,,,,,,,,,,,,,,327,2023-11-10_12h28.36.454,leap3,2022.2.5,60.064807021933994,
,,,,,,,,,,,,,,,,,,,,13,0,13,0,,,,,,,,,,,,,,,,,,,,,,,,,,,,,,,,,,,,,,,,,,327,2023-11-10_12h28.36.454,leap3,2022.2.5,60.064807021933994,
,,,,,,,,,,,,,,,,,,,,14,0,14,0,0,0,0,0,,,,,,forgive,w,g,lower,,,,,,,1,w,HiDemTar,g,1,0.8540391847491264,,,,,,,,,,,,,,,,,327,2023-11-10_12h28.36.454,leap3,2022.2.5,60.064807021933994,
,,,,,,,,,,,,,,,,,,,,14,0,14,0,1,0,1,0,,,,,,ounwit,nw,h,lower,,,,,,,1,nw,HiDemTar,h,1,0.6260703566949815,,,,,,,,,,,,,,,,,327,2023-11-10_12h28.36.454,leap3,2022.2.5,60.064807021933994,
,,,,,,,,,,,,,,,,,,,,14,0,14,0,2,0,2,0,,,,,,elderly,w,g,lower,,,,,,,1,w,HiDemTar,g,1,0.5361185038927943,,,,,,,,,,,,,,,,,327,2023-11-10_12h28.36.454,leap3,2022.2.5,60.064807021933994,
,,,,,,,,,,,,,,,,,,,,14,0,14,0,3,0,3,0,,,,,,hivinity,nw,h,lower,,,,,,,1,nw,HiDemTar,h,1,0.624912611907348,,,,,,,,,,,,,,,,,327,2023-11-10_12h28.36.454,leap3,2022.2.5,60.064807021933994,
,,,,,,,,,,,,,,,,,,,,14,0,14,0,4,0,4,0,,,,,,airline,w,g,lower,,,,,,,1,w,HiDemTar,g,1,0.5506047178059816,,,,,,,,,,,,,,,,,327,2023-11-10_12h28.36.454,leap3,2022.2.5,60.064807021933994,
,,,,,,,,,,,,,,,,,,,,14,0,14,0,5,0,5,0,,,,,,regional,w,g,lower,,,,,,,1,w,HiDemTar,g,1,0.6380546893924475,,,,,,,,,,,,,,,,,327,2023-11-10_12h28.36.454,leap3,2022.2.5,60.064807021933994,
,,,,,,,,,,,,,,,,,,,,14,0,14,0,6,0,6,0,,,,,,forecast,w,g,lower,,,,,,,1,w,HiDemTar,g,1,0.6667096226010472,,,,,,,,,,,,,,,,,327,2023-11-10_12h28.36.454,leap3,2022.2.5,60.064807021933994,
,,,,,,,,,,,,,,,,,,,,14,0,14,0,7,0,7,0,,,,,,soluced,nw,h,lower,,,,,,,1,nw,HiDemTar,h,1,0.7587756761349738,,,,,,,,,,,,,,,,,327,2023-11-10_12h28.36.454,leap3,2022.2.5,60.064807021933994,
,,,,,,,,,,,,,,,,,,,,14,0,14,0,8,0,8,0,,,,,,ergonomic,w,g,lower,,,,,,,1,w,HiDemTar,g,1,1.0947849221993238,,,,,,,,,,,,,,,,,327,2023-11-10_12h28.36.454,leap3,2022.2.5,60.064807021933994,
,,,,,,,,,,,,,,,,,,,,14,0,14,0,9,0,9,0,,,,,,deficit,w,g,lower,,,,,,,1,w,HiDemTar,g,1,0.5934194319415838,,,,,,,,,,,,,,,,,327,2023-11-10_12h28.36.454,leap3,2022.2.5,60.064807021933994,
,,,,,,,,,,,,,,,,,,,,14,0,14,0,10,0,10,0,,,,,,geborn,nw,h,lower,,,,,,,1,nw,HiDemTar,h,1,0.5680894148536026,,,,,,,,,,,,,,,,,327,2023-11-10_12h28.36.454,leap3,2022.2.5,60.064807021933994,
,,,,,,,,,,,,,,,,,,,,14,0,14,0,11,0,11,0,,,,,,traze,nw,h,lower,,,,,,,1,nw,HiDemTar,h,1,0.5834138931240886,,,,,,,,,,,,,,,,,327,2023-11-10_12h28.36.454,leap3,2022.2.5,60.064807021933994,
,,,,,,,,,,,,,,,,,,,,14,0,14,0,12,0,12,0,,,,,,fuack,nw,h,lower,,,,,,,1,nw,HiDemTar,h,1,0.7907465870957822,,,,,,,,,,,,,,,,,327,2023-11-10_12h28.36.454,leap3,2022.2.5,60.064807021933994,
,,,,,,,,,,,,,,,,,,,,14,0,14,0,13,0,13,0,,,,,,infested,w,g,lower,,,,,,,1,w,HiDemTar,g,1,1.1805146639235318,,,,,,,,,,,,,,,,,327,2023-11-10_12h28.36.454,leap3,2022.2.5,60.064807021933994,
,,,,,,,,,,,,,,,,,,,,14,0,14,0,14,0,14,0,,,,,,plartly,nw,h,lower,,,,,,,1,nw,HiDemTar,h,1,0.6920916172675788,,,,,,,,,,,,,,,,,327,2023-11-10_12h28.36.454,leap3,2022.2.5,60.064807021933994,
,,,,,,,,,,,,,,,,,,,,14,0,14,0,15,0,15,0,,,,,,giraffe,target,q,lower,,,,,,,1,target,HiDemTar,q,1,0.6145160815212876,q,,,,,,,,,,,,,,,,327,2023-11-10_12h28.36.454,leap3,2022.2.5,60.064807021933994,
,,,,,,,,,,,,,,,,,,,,14,0,14,0,16,0,16,0,,,,,,potatoes,w,g,lower,,,,,,,1,aftertar1,HiDemTar,g,1,1.0046049633529037,,,,,,,,,,,,,,,,,327,2023-11-10_12h28.36.454,leap3,2022.2.5,60.064807021933994,
,,,,,,,,,,,,,,,,,,,,14,0,14,0,17,0,17,0,,,,,,cheathe,nw,h,lower,,,,,,,1,aftertar2,HiDemTar,h,1,0.6746555869467556,,,,,,,,,,,,,,,,,327,2023-11-10_12h28.36.454,leap3,2022.2.5,60.064807021933994,
,,,,,,,,,,,,,,,,,,,,14,0,14,0,18,0,18,0,,,,,,schinter,nw,h,lower,,,,,,,1,aftertar3,HiDemTar,h,1,0.6619905787520111,,,,,,,,,,,,,,,,,327,2023-11-10_12h28.36.454,leap3,2022.2.5,60.064807021933994,
,,,,,,,,,,,,,,,,,,,,14,0,14,0,19,0,19,0,,,,,,sodent,nw,h,lower,,,,,,,1,nw,HiDemTar,h,1,0.8420131376478821,,,,,,,,,,,,,,,,,327,2023-11-10_12h28.36.454,leap3,2022.2.5,60.064807021933994,
,,,,,,,,,,,,,,,,,,,,14,0,14,0,20,0,20,0,,,,,,seldom,w,g,lower,,,,,,,1,nw,HiDemTar,g,1,0.7587164146825671,,,,,,,,,,,,,,,,,327,2023-11-10_12h28.36.454,leap3,2022.2.5,60.064807021933994,
,,,,,,,,,,,,,,,,,,,,14,0,14,0,21,0,21,0,,,,,,nomma,nw,h,lower,,,,,,,1,w,HiDemTar,h,1,0.57506203930825,,,,,,,,,,,,,,,,,327,2023-11-10_12h28.36.454,leap3,2022.2.5,60.064807021933994,
,,,,,,,,,,,,,,,,,,,,14,0,14,0,22,0,22,0,,,,,,strenuous,w,g,lower,,,,,,,1,nw,HiDemTar,g,1,0.685057083144784,,,,,,,,,,,,,,,,,327,2023-11-10_12h28.36.454,leap3,2022.2.5,60.064807021933994,
,,,,,,,,,,,,,,,,,,,,14,0,14,0,23,0,23,0,,,,,,alber,nw,h,lower,,,,,,,1,w,HiDemTar,h,1,0.5998308958951384,,,,,,,,,,,,,,,,,327,2023-11-10_12h28.36.454,leap3,2022.2.5,60.064807021933994,
,,,,,,,,,,,,,,,,,,,,14,0,14,0,24,0,24,0,,,,,,picnic,w,g,lower,,,,,,,1,nw,HiDemTar,g,1,0.45426490693353117,,,,,,,,,,,,,,,,,327,2023-11-10_12h28.36.454,leap3,2022.2.5,60.064807021933994,
,,,,,,,,,,,,,,,,,,,,14,0,14,0,25,0,25,0,,,,,,causality,w,g,lower,,,,,,,1,w,HiDemTar,g,1,0.5626694997772574,,,,,,,,,,,,,,,,,327,2023-11-10_12h28.36.454,leap3,2022.2.5,60.064807021933994,
,,,,,,,,,,,,,,,,,,,,14,0,14,0,26,0,26,0,,,,,,antwers,nw,h,lower,,,,,,,1,w,HiDemTar,h,1,0.6106313290074468,,,,,,,,,,,,,,,,,327,2023-11-10_12h28.36.454,leap3,2022.2.5,60.064807021933994,
,,,,,,,,,,,,,,,,,,,,14,0,14,0,27,0,27,0,,,,,,preclude,w,g,lower,,,,,,,1,nw,HiDemTar,g,1,0.792557529406622,,,,,,,,,,,,,,,,,327,2023-11-10_12h28.36.454,leap3,2022.2.5,60.064807021933994,
,,,,,,,,,,,,,,,,,,,,14,0,14,0,28,0,28,0,,,,,,gewer,nw,h,lower,,,,,,,1,w,HiDemTar,h,1,0.6320007788017392,,,,,,,,,,,,,,,,,327,2023-11-10_12h28.36.454,leap3,2022.2.5,60.064807021933994,
,,,,,,,,,,,,,,,,,,,,14,0,14,0,29,0,29,0,,,,,,unspoken,w,g,lower,,,,,,,1,nw,HiDemTar,g,1,0.5497853243723512,,,,,,,,,,,,,,,,,327,2023-11-10_12h28.36.454,leap3,2022.2.5,60.064807021933994,
,,,,,,,,,,,,,,,,,,,,14,0,14,0,,,,,,,,,,,,,,,,,,,,,,,,,,,,,,,,,,,,,,,,,,327,2023-11-10_12h28.36.454,leap3,2022.2.5,60.064807021933994,
,,,,,,,,,,,,,,,,,,,,15,0,15,0,0,0,0,0,,,,,,pracking,nw,h,lower,,,,,,,2,nw,HiDemNoTar,h,1,0.7259767637588084,,,,,,,,,,,,,,,,,327,2023-11-10_12h28.36.454,leap3,2022.2.5,60.064807021933994,
,,,,,,,,,,,,,,,,,,,,15,0,15,0,1,0,1,0,,,,,,category,w,g,lower,,,,,,,2,w,HiDemNoTar,g,1,0.5593816628679633,,,,,,,,,,,,,,,,,327,2023-11-10_12h28.36.454,leap3,2022.2.5,60.064807021933994,
,,,,,,,,,,,,,,,,,,,,15,0,15,0,2,0,2,0,,,,,,curricula,w,g,lower,,,,,,,2,w,HiDemNoTar,h,0,0.6233383831568062,,,,,,,,,,,,,,,,,327,2023-11-10_12h28.36.454,leap3,2022.2.5,60.064807021933994,
,,,,,,,,,,,,,,,,,,,,15,0,15,0,3,0,3,0,,,,,,fisco,nw,h,lower,,,,,,,2,nw,HiDemNoTar,h,1,0.7967316354624927,,,,,,,,,,,,,,,,,327,2023-11-10_12h28.36.454,leap3,2022.2.5,60.064807021933994,
,,,,,,,,,,,,,,,,,,,,15,0,15,0,4,0,4,0,,,,,,phraining,nw,h,lower,,,,,,,2,nw,HiDemNoTar,h,1,0.8353540347889066,,,,,,,,,,,,,,,,,327,2023-11-10_12h28.36.454,leap3,2022.2.5,60.064807021933994,
,,,,,,,,,,,,,,,,,,,,15,0,15,0,5,0,5,0,,,,,,pender,nw,h,lower,,,,,,,2,nw,HiDemNoTar,h,1,0.7360336179845035,,,,,,,,,,,,,,,,,327,2023-11-10_12h28.36.454,leap3,2022.2.5,60.064807021933994,
,,,,,,,,,,,,,,,,,,,,15,0,15,0,6,0,6,0,,,,,,harder,w,g,lower,,,,,,,2,w,HiDemNoTar,g,1,0.5610429625958204,,,,,,,,,,,,,,,,,327,2023-11-10_12h28.36.454,leap3,2022.2.5,60.064807021933994,
,,,,,,,,,,,,,,,,,,,,15,0,15,0,7,0,7,0,,,,,,louches,nw,h,lower,,,,,,,2,nw,HiDemNoTar,h,1,0.5925351490732282,,,,,,,,,,,,,,,,,327,2023-11-10_12h28.36.454,leap3,2022.2.5,60.064807021933994,
,,,,,,,,,,,,,,,,,,,,15,0,15,0,8,0,8,0,,,,,,splinging,nw,h,lower,,,,,,,2,nw,HiDemNoTar,h,1,0.6232496567536145,,,,,,,,,,,,,,,,,327,2023-11-10_12h28.36.454,leap3,2022.2.5,60.064807021933994,
,,,,,,,,,,,,,,,,,,,,15,0,15,0,9,0,9,0,,,,,,yellep,nw,h,lower,,,,,,,2,nw,HiDemNoTar,h,1,0.5405902401544154,,,,,,,,,,,,,,,,,327,2023-11-10_12h28.36.454,leap3,2022.2.5,60.064807021933994,
,,,,,,,,,,,,,,,,,,,,15,0,15,0,10,0,10,0,,,,,,duplex,w,g,lower,,,,,,,2,w,HiDemNoTar,g,1,0.8374563169199973,,,,,,,,,,,,,,,,,327,2023-11-10_12h28.36.454,leap3,2022.2.5,60.064807021933994,
,,,,,,,,,,,,,,,,,,,,15,0,15,0,11,0,11,0,,,,,,nameplate,w,g,lower,,,,,,,2,w,HiDemNoTar,g,1,0.7941016308031976,,,,,,,,,,,,,,,,,327,2023-11-10_12h28.36.454,leap3,2022.2.5,60.064807021933994,
,,,,,,,,,,,,,,,,,,,,15,0,15,0,12,0,12,0,,,,,,paranoid,w,g,lower,,,,,,,2,w,HiDemNoTar,g,1,0.6012832913547754,,,,,,,,,,,,,,,,,327,2023-11-10_12h28.36.454,leap3,2022.2.5,60.064807021933994,
,,,,,,,,,,,,,,,,,,,,15,0,15,0,13,0,13,0,,,,,,neuran,nw,h,lower,,,,,,,2,nw,HiDemNoTar,h,1,0.5672958446666598,,,,,,,,,,,,,,,,,327,2023-11-10_12h28.36.454,leap3,2022.2.5,60.064807021933994,
,,,,,,,,,,,,,,,,,,,,15,0,15,0,14,0,14,0,,,,,,icepick,w,g,lower,,,,,,,2,w,HiDemNoTar,g,1,0.6787644727155566,,,,,,,,,,,,,,,,,327,2023-11-10_12h28.36.454,leap3,2022.2.5,60.064807021933994,
,,,,,,,,,,,,,,,,,,,,15,0,15,0,15,0,15,0,,,,,,parody,w,g,lower,,,,,,,2,w,HiDemNoTar,g,1,0.6579081784002483,,,,,,,,,,,,,,,,,327,2023-11-10_12h28.36.454,leap3,2022.2.5,60.064807021933994,
,,,,,,,,,,,,,,,,,,,,15,0,15,0,16,0,16,0,,,,,,dehydrate,w,g,lower,,,,,,,2,w,HiDemNoTar,g,1,0.5731117173563689,,,,,,,,,,,,,,,,,327,2023-11-10_12h28.36.454,leap3,2022.2.5,60.064807021933994,
,,,,,,,,,,,,,,,,,,,,15,0,15,0,17,0,17,0,,,,,,inforl,nw,h,lower,,,,,,,2,nw,HiDemNoTar,h,1,0.7804222297854722,,,,,,,,,,,,,,,,,327,2023-11-10_12h28.36.454,leap3,2022.2.5,60.064807021933994,
,,,,,,,,,,,,,,,,,,,,15,0,15,0,18,0,18,0,,,,,,bumbo,nw,h,lower,,,,,,,2,nw,HiDemNoTar,h,1,0.6679130550473928,,,,,,,,,,,,,,,,,327,2023-11-10_12h28.36.454,leap3,2022.2.5,60.064807021933994,
,,,,,,,,,,,,,,,,,,,,15,0,15,0,19,0,19,0,,,,,,spaceship,w,g,lower,,,,,,,2,w,HiDemNoTar,g,1,0.5430590144824237,,,,,,,,,,,,,,,,,327,2023-11-10_12h28.36.454,leap3,2022.2.5,60.064807021933994,
,,,,,,,,,,,,,,,,,,,,15,0,15,0,20,0,20,0,,,,,,blerapies,nw,h,lower,,,,,,,2,nw,HiDemNoTar,h,1,0.6485270340926945,,,,,,,,,,,,,,,,,327,2023-11-10_12h28.36.454,leap3,2022.2.5,60.064807021933994,
,,,,,,,,,,,,,,,,,,,,15,0,15,0,21,0,21,0,,,,,,moozy,nw,h,lower,,,,,,,2,nw,HiDemNoTar,h,1,0.7253470723517239,,,,,,,,,,,,,,,,,327,2023-11-10_12h28.36.454,leap3,2022.2.5,60.064807021933994,
,,,,,,,,,,,,,,,,,,,,15,0,15,0,22,0,22,0,,,,,,rantho,nw,h,lower,,,,,,,2,nw,HiDemNoTar,h,1,0.5669353117700666,,,,,,,,,,,,,,,,,327,2023-11-10_12h28.36.454,leap3,2022.2.5,60.064807021933994,
,,,,,,,,,,,,,,,,,,,,15,0,15,0,23,0,23,0,,,,,,dominion,w,g,lower,,,,,,,2,w,HiDemNoTar,g,1,0.6626851593609899,,,,,,,,,,,,,,,,,327,2023-11-10_12h28.36.454,leap3,2022.2.5,60.064807021933994,
,,,,,,,,,,,,,,,,,,,,15,0,15,0,24,0,24,0,,,,,,grieving,w,g,lower,,,,,,,2,w,HiDemNoTar,g,1,0.5710971681401134,,,,,,,,,,,,,,,,,327,2023-11-10_12h28.36.454,leap3,2022.2.5,60.064807021933994,
,,,,,,,,,,,,,,,,,,,,15,0,15,0,25,0,25,0,,,,,,egpended,nw,h,lower,,,,,,,2,nw,HiDemNoTar,h,1,0.9217949106823653,,,,,,,,,,,,,,,,,327,2023-11-10_12h28.36.454,leap3,2022.2.5,60.064807021933994,
,,,,,,,,,,,,,,,,,,,,15,0,15,0,26,0,26,0,,,,,,bedding,w,g,lower,,,,,,,2,w,HiDemNoTar,g,1,0.6911351615563035,,,,,,,,,,,,,,,,,327,2023-11-10_12h28.36.454,leap3,2022.2.5,60.064807021933994,
,,,,,,,,,,,,,,,,,,,,15,0,15,0,27,0,27,0,,,,,,create,w,g,lower,,,,,,,2,w,HiDemNoTar,g,1,0.5578647090587765,,,,,,,,,,,,,,,,,327,2023-11-10_12h28.36.454,leap3,2022.2.5,60.064807021933994,
,,,,,,,,,,,,,,,,,,,,15,0,15,0,28,0,28,0,,,,,,rodeo,w,g,lower,,,,,,,2,w,HiDemNoTar,g,1,0.5258994263131171,,,,,,,,,,,,,,,,,327,2023-11-10_12h28.36.454,leap3,2022.2.5,60.064807021933994,
,,,,,,,,,,,,,,,,,,,,15,0,15,0,29,0,29,0,,,,,,natch,nw,h,lower,,,,,,,2,nw,HiDemNoTar,h,1,0.9192658818792552,,,,,,,,,,,,,,,,,327,2023-11-10_12h28.36.454,leap3,2022.2.5,60.064807021933994,
,,,,,,,,,,,,,,,,,,,,15,0,15,0,,,,,,,,,,,,,,,,,,,,,,,,,,,,,,,,,,,,,,,,,,327,2023-11-10_12h28.36.454,leap3,2022.2.5,60.064807021933994,
,,,,,,,,,,,,,,,,,,,,16,0,16,0,0,0,0,0,,,,,,sengry,nw,h,upper,,,,,,,3,nw,LoDemNoTar,h,1,0.6253843836020678,,,,,,,,,,,,,,,,,327,2023-11-10_12h28.36.454,leap3,2022.2.5,60.064807021933994,
,,,,,,,,,,,,,,,,,,,,16,0,16,0,1,0,1,0,,,,,,patio,w,g,upper,,,,,,,3,w,LoDemNoTar,g,1,0.4538010803516954,,,,,,,,,,,,,,,,,327,2023-11-10_12h28.36.454,leap3,2022.2.5,60.064807021933994,
,,,,,,,,,,,,,,,,,,,,16,0,16,0,2,0,2,0,,,,,,shests,nw,h,upper,,,,,,,3,nw,LoDemNoTar,h,1,0.6176542756147683,,,,,,,,,,,,,,,,,327,2023-11-10_12h28.36.454,leap3,2022.2.5,60.064807021933994,
,,,,,,,,,,,,,,,,,,,,16,0,16,0,3,0,3,0,,,,,,mining,w,g,upper,,,,,,,3,w,LoDemNoTar,g,1,0.5589360455051064,,,,,,,,,,,,,,,,,327,2023-11-10_12h28.36.454,leap3,2022.2.5,60.064807021933994,
,,,,,,,,,,,,,,,,,,,,16,0,16,0,4,0,4,0,,,,,,prama,nw,h,upper,,,,,,,3,nw,LoDemNoTar,h,1,0.862982988357544,,,,,,,,,,,,,,,,,327,2023-11-10_12h28.36.454,leap3,2022.2.5,60.064807021933994,
,,,,,,,,,,,,,,,,,,,,16,0,16,0,5,0,5,0,,,,,,landing,w,g,upper,,,,,,,3,w,LoDemNoTar,g,1,0.5710200294852257,,,,,,,,,,,,,,,,,327,2023-11-10_12h28.36.454,leap3,2022.2.5,60.064807021933994,
,,,,,,,,,,,,,,,,,,,,16,0,16,0,6,0,6,0,,,,,,currowing,nw,h,upper,,,,,,,3,nw,LoDemNoTar,h,1,0.5944023728370667,,,,,,,,,,,,,,,,,327,2023-11-10_12h28.36.454,leap3,2022.2.5,60.064807021933994,
,,,,,,,,,,,,,,,,,,,,16,0,16,0,7,0,7,0,,,,,,handcuff,w,g,upper,,,,,,,3,w,LoDemNoTar,g,1,0.6009671213105321,,,,,,,,,,,,,,,,,327,2023-11-10_12h28.36.454,leap3,2022.2.5,60.064807021933994,
,,,,,,,,,,,,,,,,,,,,16,0,16,0,8,0,8,0,,,,,,number,w,g,upper,,,,,,,3,w,LoDemNoTar,g,1,0.6710452898405492,,,,,,,,,,,,,,,,,327,2023-11-10_12h28.36.454,leap3,2022.2.5,60.064807021933994,
,,,,,,,,,,,,,,,,,,,,16,0,16,0,9,0,9,0,,,,,,collute,nw,h,upper,,,,,,,3,nw,LoDemNoTar,h,1,0.5763830007053912,,,,,,,,,,,,,,,,,327,2023-11-10_12h28.36.454,leap3,2022.2.5,60.064807021933994,
,,,,,,,,,,,,,,,,,,,,16,0,16,0,10,0,10,0,,,,,,grefab,nw,h,upper,,,,,,,3,nw,LoDemNoTar,h,1,0.5459661232307553,,,,,,,,,,,,,,,,,327,2023-11-10_12h28.36.454,leap3,2022.2.5,60.064807021933994,
,,,,,,,,,,,,,,,,,,,,16,0,16,0,11,0,11,0,,,,,,intrude,w,g,upper,,,,,,,3,w,LoDemNoTar,g,1,0.5855830512009561,,,,,,,,,,,,,,,,,327,2023-11-10_12h28.36.454,leap3,2022.2.5,60.064807021933994,
