demoRace_loop.thisRepN,demoRace_loop.thisTrialN,demoRace_loop.thisN,demoRace_loop.thisIndex,LDTunderstand.thisRepN,LDTunderstand.thisTrialN,LDTunderstand.thisN,LDTunderstand.thisIndex,pracBlocks.thisRepN,pracBlocks.thisTrialN,pracBlocks.thisN,pracBlocks.thisIndex,pracTrial.thisRepN,pracTrial.thisTrialN,pracTrial.thisN,pracTrial.thisIndex,PMunderstand.thisRepN,PMunderstand.thisTrialN,PMunderstand.thisN,PMunderstand.thisIndex,LDT_block.thisRepN,LDT_block.thisTrialN,LDT_block.thisN,LDT_block.thisIndex,LDT_trial.thisRepN,LDT_trial.thisTrialN,LDT_trial.thisN,LDT_trial.thisIndex,ageTextbox.text,genderTextbox.text,race,raceResp,LDTunderstand,stim,word_type,corr_key,stim_location,LDTpracKey.keys,LDTpracKey.corr,LDTpracKey.rt,PMunderstand,cueTextbox.text,intentionTextbox.text,block_type,role,block_desc,LDTResp.keys,LDTResp.corr,LDTResp.rt,pressedQ,PM_accuracy,pressedQ_late,pressedQ_blank,postQ1,Q2Textbox.text,Q3Textbox.text,Q4,Q5,Q6Key.keys,Q6Key.rt,postQ7_correct,postQ7,Q8Textbox.text,education,medTextbox.text,health,healthLimit,psych,participant,date,expName,psychopyVersion,frameRate,
0,0,0,0,,,,,,,,,,,,,,,,,,,,,,,,,"
19", female,American Indian or Alaska Native,n,,,,,,,,,,,,,,,,,,,,,,,,,,,,,,,,,,,,,328,2023-11-10_13h25.21.151,leap3,2022.2.5,59.995610355266436,
1,0,1,0,,,,,,,,,,,,,,,,,,,,,,,,,,,Asian,n,,,,,,,,,,,,,,,,,,,,,,,,,,,,,,,,,,,,,328,2023-11-10_13h25.21.151,leap3,2022.2.5,59.995610355266436,
2,0,2,0,,,,,,,,,,,,,,,,,,,,,,,,,,,Black or African American,n,,,,,,,,,,,,,,,,,,,,,,,,,,,,,,,,,,,,,328,2023-11-10_13h25.21.151,leap3,2022.2.5,59.995610355266436,
3,0,3,0,,,,,,,,,,,,,,,,,,,,,,,,,,,Native Hawaiian or other Pacific Islander,n,,,,,,,,,,,,,,,,,,,,,,,,,,,,,,,,,,,,,328,2023-11-10_13h25.21.151,leap3,2022.2.5,59.995610355266436,
4,0,4,0,,,,,,,,,,,,,,,,,,,,,,,,,,,White,y,,,,,,,,,,,,,,,,,,,,,,,,,,,,,,,,,,,,,328,2023-11-10_13h25.21.151,leap3,2022.2.5,59.995610355266436,
,,,,0,0,0,0,,,,,,,,,,,,,,,,,,,,,,,,,y,,,,,,,,,,,,,,,,,,,,,,,,,,,,,,,,,,,,328,2023-11-10_13h25.21.151,leap3,2022.2.5,59.995610355266436,
,,,,,,,,0,0,0,0,0,0,0,0,,,,,,,,,,,,,,,,,,unscrew,w,g,upper,g,1,0.8063731093425304,,,,,,,,,,,,,,,,,,,,,,,,,,,,,328,2023-11-10_13h25.21.151,leap3,2022.2.5,59.995610355266436,
,,,,,,,,0,0,0,0,1,0,1,0,,,,,,,,,,,,,,,,,,sponsor,w,g,upper,g,1,0.6190584453288466,,,,,,,,,,,,,,,,,,,,,,,,,,,,,328,2023-11-10_13h25.21.151,leap3,2022.2.5,59.995610355266436,
,,,,,,,,0,0,0,0,2,0,2,0,,,,,,,,,,,,,,,,,,reputable,w,g,upper,h,0,1.1041526028420776,,,,,,,,,,,,,,,,,,,,,,,,,,,,,328,2023-11-10_13h25.21.151,leap3,2022.2.5,59.995610355266436,
,,,,,,,,0,0,0,0,3,0,3,0,,,,,,,,,,,,,,,,,,umpire,w,g,upper,g,1,0.7280947163235396,,,,,,,,,,,,,,,,,,,,,,,,,,,,,328,2023-11-10_13h25.21.151,leap3,2022.2.5,59.995610355266436,
,,,,,,,,0,0,0,0,4,0,4,0,,,,,,,,,,,,,,,,,,turative,nw,h,upper,h,1,0.9316313837189227,,,,,,,,,,,,,,,,,,,,,,,,,,,,,328,2023-11-10_13h25.21.151,leap3,2022.2.5,59.995610355266436,
,,,,,,,,0,0,0,0,5,0,5,0,,,,,,,,,,,,,,,,,,hiring,w,g,upper,g,1,0.5217105322517455,,,,,,,,,,,,,,,,,,,,,,,,,,,,,328,2023-11-10_13h25.21.151,leap3,2022.2.5,59.995610355266436,
,,,,,,,,0,0,0,0,6,0,6,0,,,,,,,,,,,,,,,,,,trotch,nw,h,upper,h,1,0.885249080369249,,,,,,,,,,,,,,,,,,,,,,,,,,,,,328,2023-11-10_13h25.21.151,leap3,2022.2.5,59.995610355266436,
,,,,,,,,0,0,0,0,7,0,7,0,,,,,,,,,,,,,,,,,,revival,w,g,upper,g,1,0.7600851603783667,,,,,,,,,,,,,,,,,,,,,,,,,,,,,328,2023-11-10_13h25.21.151,leap3,2022.2.5,59.995610355266436,
,,,,,,,,0,0,0,0,8,0,8,0,,,,,,,,,,,,,,,,,,lurshing,nw,h,upper,g,0,0.9031681388150901,,,,,,,,,,,,,,,,,,,,,,,,,,,,,328,2023-11-10_13h25.21.151,leap3,2022.2.5,59.995610355266436,
,,,,,,,,0,0,0,0,9,0,9,0,,,,,,,,,,,,,,,,,,alolition,nw,h,upper,h,1,0.9292559705208987,,,,,,,,,,,,,,,,,,,,,,,,,,,,,328,2023-11-10_13h25.21.151,leap3,2022.2.5,59.995610355266436,
,,,,,,,,0,0,0,0,10,0,10,0,,,,,,,,,,,,,,,,,,raestro,nw,h,upper,h,1,0.6106781198177487,,,,,,,,,,,,,,,,,,,,,,,,,,,,,328,2023-11-10_13h25.21.151,leap3,2022.2.5,59.995610355266436,
,,,,,,,,0,0,0,0,11,0,11,0,,,,,,,,,,,,,,,,,,busted,w,g,upper,g,1,0.6568564854096621,,,,,,,,,,,,,,,,,,,,,,,,,,,,,328,2023-11-10_13h25.21.151,leap3,2022.2.5,59.995610355266436,
,,,,,,,,0,0,0,0,12,0,12,0,,,,,,,,,,,,,,,,,,lumbigo,nw,h,upper,h,1,0.8046806894708425,,,,,,,,,,,,,,,,,,,,,,,,,,,,,328,2023-11-10_13h25.21.151,leap3,2022.2.5,59.995610355266436,
,,,,,,,,0,0,0,0,13,0,13,0,,,,,,,,,,,,,,,,,,grocus,nw,h,upper,h,1,0.5297664112877101,,,,,,,,,,,,,,,,,,,,,,,,,,,,,328,2023-11-10_13h25.21.151,leap3,2022.2.5,59.995610355266436,
,,,,,,,,0,0,0,0,,,,,,,,,,,,,,,,,,,,,,,,,,,,,,,,,,,,,,,,,,,,,,,,,,,,,,,,,328,2023-11-10_13h25.21.151,leap3,2022.2.5,59.995610355266436,
,,,,,,,,1,0,1,0,0,0,0,0,,,,,,,,,,,,,,,,,,grimace,w,g,lower,h,0,0.8600359305273741,,,,,,,,,,,,,,,,,,,,,,,,,,,,,328,2023-11-10_13h25.21.151,leap3,2022.2.5,59.995610355266436,
,,,,,,,,1,0,1,0,1,0,1,0,,,,,,,,,,,,,,,,,,slumber,w,g,lower,g,1,0.5200396317522973,,,,,,,,,,,,,,,,,,,,,,,,,,,,,328,2023-11-10_13h25.21.151,leap3,2022.2.5,59.995610355266436,
,,,,,,,,1,0,1,0,2,0,2,0,,,,,,,,,,,,,,,,,,summary,w,g,lower,g,1,0.6165923194494098,,,,,,,,,,,,,,,,,,,,,,,,,,,,,328,2023-11-10_13h25.21.151,leap3,2022.2.5,59.995610355266436,
,,,,,,,,1,0,1,0,3,0,3,0,,,,,,,,,,,,,,,,,,picture,w,g,lower,g,1,0.4624337903223932,,,,,,,,,,,,,,,,,,,,,,,,,,,,,328,2023-11-10_13h25.21.151,leap3,2022.2.5,59.995610355266436,
,,,,,,,,1,0,1,0,4,0,4,0,,,,,,,,,,,,,,,,,,hasking,nw,h,lower,g,0,0.5221551565919071,,,,,,,,,,,,,,,,,,,,,,,,,,,,,328,2023-11-10_13h25.21.151,leap3,2022.2.5,59.995610355266436,
,,,,,,,,1,0,1,0,5,0,5,0,,,,,,,,,,,,,,,,,,tricycle,w,g,lower,g,1,0.8997114573139697,,,,,,,,,,,,,,,,,,,,,,,,,,,,,328,2023-11-10_13h25.21.151,leap3,2022.2.5,59.995610355266436,
,,,,,,,,1,0,1,0,6,0,6,0,,,,,,,,,,,,,,,,,,crinklo,nw,h,lower,h,1,0.7833549408242106,,,,,,,,,,,,,,,,,,,,,,,,,,,,,328,2023-11-10_13h25.21.151,leap3,2022.2.5,59.995610355266436,
,,,,,,,,1,0,1,0,7,0,7,0,,,,,,,,,,,,,,,,,,infinity,w,g,lower,g,1,0.5180396498180926,,,,,,,,,,,,,,,,,,,,,,,,,,,,,328,2023-11-10_13h25.21.151,leap3,2022.2.5,59.995610355266436,
,,,,,,,,1,0,1,0,8,0,8,0,,,,,,,,,,,,,,,,,,julled,nw,h,lower,h,1,0.7034437200054526,,,,,,,,,,,,,,,,,,,,,,,,,,,,,328,2023-11-10_13h25.21.151,leap3,2022.2.5,59.995610355266436,
,,,,,,,,1,0,1,0,9,0,9,0,,,,,,,,,,,,,,,,,,latador,nw,h,lower,g,0,0.7612564791925251,,,,,,,,,,,,,,,,,,,,,,,,,,,,,328,2023-11-10_13h25.21.151,leap3,2022.2.5,59.995610355266436,
,,,,,,,,1,0,1,0,10,0,10,0,,,,,,,,,,,,,,,,,,treeps,nw,h,lower,h,1,0.8253558895085007,,,,,,,,,,,,,,,,,,,,,,,,,,,,,328,2023-11-10_13h25.21.151,leap3,2022.2.5,59.995610355266436,
,,,,,,,,1,0,1,0,11,0,11,0,,,,,,,,,,,,,,,,,,overshoot,w,g,lower,g,1,0.6066910673398525,,,,,,,,,,,,,,,,,,,,,,,,,,,,,328,2023-11-10_13h25.21.151,leap3,2022.2.5,59.995610355266436,
,,,,,,,,1,0,1,0,12,0,12,0,,,,,,,,,,,,,,,,,,curlecs,nw,h,lower,h,1,0.6687812255695462,,,,,,,,,,,,,,,,,,,,,,,,,,,,,328,2023-11-10_13h25.21.151,leap3,2022.2.5,59.995610355266436,
,,,,,,,,1,0,1,0,13,0,13,0,,,,,,,,,,,,,,,,,,grutch,nw,h,lower,h,1,0.7440240557771176,,,,,,,,,,,,,,,,,,,,,,,,,,,,,328,2023-11-10_13h25.21.151,leap3,2022.2.5,59.995610355266436,
,,,,,,,,1,0,1,0,,,,,,,,,,,,,,,,,,,,,,,,,,,,,,,,,,,,,,,,,,,,,,,,,,,,,,,,,328,2023-11-10_13h25.21.151,leap3,2022.2.5,59.995610355266436,
,,,,,,,,,,,,,,,,0,0,0,0,,,,,,,,,,,,,,,,,,,,,y,,,,,,,,,,,,,,,,,,,,,,,,,,,,328,2023-11-10_13h25.21.151,leap3,2022.2.5,59.995610355266436,
,,,,,,,,,,,,,,,,,,,,0,0,0,0,0,0,0,0,,,,,,mixture,w,g,upper,,,,,animal,"
q
",1,w,HiDemTar,g,1,0.930226330878213,,,,,,,,,,,,,,,,,,,,328,2023-11-10_13h25.21.151,leap3,2022.2.5,59.995610355266436,
,,,,,,,,,,,,,,,,,,,,0,0,0,0,1,0,1,0,,,,,,lenie,nw,h,upper,,,,,,,1,nw,HiDemTar,h,1,0.9558920511044562,,,,,,,,,,,,,,,,,,,,328,2023-11-10_13h25.21.151,leap3,2022.2.5,59.995610355266436,
,,,,,,,,,,,,,,,,,,,,0,0,0,0,2,0,2,0,,,,,,welayed,nw,h,upper,,,,,,,1,nw,HiDemTar,h,1,1.4126034129876643,,,,,,,,,,,,,,,,,,,,328,2023-11-10_13h25.21.151,leap3,2022.2.5,59.995610355266436,
,,,,,,,,,,,,,,,,,,,,0,0,0,0,3,0,3,0,,,,,,seldom,w,g,upper,,,,,,,1,w,HiDemTar,g,1,0.9872922005597502,,,,,,,,,,,,,,,,,,,,328,2023-11-10_13h25.21.151,leap3,2022.2.5,59.995610355266436,
,,,,,,,,,,,,,,,,,,,,0,0,0,0,4,0,4,0,,,,,,purpose,w,g,upper,,,,,,,1,w,HiDemTar,g,1,0.8186792400665581,,,,,,,,,,,,,,,,,,,,328,2023-11-10_13h25.21.151,leap3,2022.2.5,59.995610355266436,
,,,,,,,,,,,,,,,,,,,,0,0,0,0,5,0,5,0,,,,,,natch,nw,h,upper,,,,,,,1,nw,HiDemTar,h,1,1.0967932911589742,,,,,,,,,,,,,,,,,,,,328,2023-11-10_13h25.21.151,leap3,2022.2.5,59.995610355266436,
,,,,,,,,,,,,,,,,,,,,0,0,0,0,6,0,6,0,,,,,,perishing,w,g,upper,,,,,,,1,w,HiDemTar,g,1,0.8041185359470546,,,,,,,,,,,,,,,,,,,,328,2023-11-10_13h25.21.151,leap3,2022.2.5,59.995610355266436,
,,,,,,,,,,,,,,,,,,,,0,0,0,0,7,0,7,0,,,,,,sequence,w,g,upper,,,,,,,1,w,HiDemTar,g,1,0.7130546257831156,,,,,,,,,,,,,,,,,,,,328,2023-11-10_13h25.21.151,leap3,2022.2.5,59.995610355266436,
,,,,,,,,,,,,,,,,,,,,0,0,0,0,8,0,8,0,,,,,,curricula,w,g,upper,,,,,,,1,w,HiDemTar,h,0,1.700813053175807,,,,,,,,,,,,,,,,,,,,328,2023-11-10_13h25.21.151,leap3,2022.2.5,59.995610355266436,
,,,,,,,,,,,,,,,,,,,,0,0,0,0,9,0,9,0,,,,,,binder,w,g,upper,,,,,,,1,w,HiDemTar,g,1,0.6473382785916328,,,,,,,,,,,,,,,,,,,,328,2023-11-10_13h25.21.151,leap3,2022.2.5,59.995610355266436,
,,,,,,,,,,,,,,,,,,,,0,0,0,0,10,0,10,0,,,,,,resonant,w,g,upper,,,,,,,1,w,HiDemTar,h,0,1.5726933574769646,,,,,,,,,,,,,,,,,,,,328,2023-11-10_13h25.21.151,leap3,2022.2.5,59.995610355266436,
,,,,,,,,,,,,,,,,,,,,0,0,0,0,11,0,11,0,,,,,,publish,w,g,upper,,,,,,,1,w,HiDemTar,g,1,0.6447248274926096,,,,,,,,,,,,,,,,,,,,328,2023-11-10_13h25.21.151,leap3,2022.2.5,59.995610355266436,
,,,,,,,,,,,,,,,,,,,,0,0,0,0,12,0,12,0,,,,,,company,w,g,upper,,,,,,,1,w,HiDemTar,g,1,0.6100298883393407,,,,,,,,,,,,,,,,,,,,328,2023-11-10_13h25.21.151,leap3,2022.2.5,59.995610355266436,
,,,,,,,,,,,,,,,,,,,,0,0,0,0,13,0,13,0,,,,,,erithets,nw,h,upper,,,,,,,1,nw,HiDemTar,h,1,1.04872982413508,,,,,,,,,,,,,,,,,,,,328,2023-11-10_13h25.21.151,leap3,2022.2.5,59.995610355266436,
,,,,,,,,,,,,,,,,,,,,0,0,0,0,14,0,14,0,,,,,,assent,w,g,upper,,,,,,,1,w,HiDemTar,g,1,0.5901072060223669,,,,,,,,,,,,,,,,,,,,328,2023-11-10_13h25.21.151,leap3,2022.2.5,59.995610355266436,
,,,,,,,,,,,,,,,,,,,,0,0,0,0,15,0,15,0,,,,,,pranny,nw,h,upper,,,,,,,1,nw,HiDemTar,h,1,0.6454306645318866,,,,,,,,,,,,,,,,,,,,328,2023-11-10_13h25.21.151,leap3,2022.2.5,59.995610355266436,
,,,,,,,,,,,,,,,,,,,,0,0,0,0,16,0,16,0,,,,,,potter,w,g,upper,,,,,,,1,w,HiDemTar,g,1,1.249654033454135,,,,,,,,,,,,,,,,,,,,328,2023-11-10_13h25.21.151,leap3,2022.2.5,59.995610355266436,
,,,,,,,,,,,,,,,,,,,,0,0,0,0,17,0,17,0,,,,,,cemoir,nw,h,upper,,,,,,,1,nw,HiDemTar,h,1,1.0308905527926981,,,,,,,,,,,,,,,,,,,,328,2023-11-10_13h25.21.151,leap3,2022.2.5,59.995610355266436,
,,,,,,,,,,,,,,,,,,,,0,0,0,0,18,0,18,0,,,,,,latpin,nw,h,upper,,,,,,,1,nw,HiDemTar,h,1,0.9093551386613399,,,,,,,,,,,,,,,,,,,,328,2023-11-10_13h25.21.151,leap3,2022.2.5,59.995610355266436,
,,,,,,,,,,,,,,,,,,,,0,0,0,0,19,0,19,0,,,,,,gremieres,nw,h,upper,,,,,,,1,nw,HiDemTar,h,1,0.8959237076342106,,,,,,,,,,,,,,,,,,,,328,2023-11-10_13h25.21.151,leap3,2022.2.5,59.995610355266436,
,,,,,,,,,,,,,,,,,,,,0,0,0,0,20,0,20,0,,,,,,spider,target,q,upper,,,,,,,1,target,HiDemTar,q,1,1.6834568101912737,1,,,,,,,,,,,,,,,,,,,328,2023-11-10_13h25.21.151,leap3,2022.2.5,59.995610355266436,
,,,,,,,,,,,,,,,,,,,,0,0,0,0,21,0,21,0,,,,,,movie,w,g,upper,,,,,,,1,aftertar1,HiDemTar,g,1,0.9275085935369134,,,,,,,,,,,,,,,,,,,,328,2023-11-10_13h25.21.151,leap3,2022.2.5,59.995610355266436,
,,,,,,,,,,,,,,,,,,,,0,0,0,0,22,0,22,0,,,,,,pimorous,nw,h,upper,,,,,,,1,aftertar2,HiDemTar,h,1,0.7855575364083052,,,,,,,,,,,,,,,,,,,,328,2023-11-10_13h25.21.151,leap3,2022.2.5,59.995610355266436,
,,,,,,,,,,,,,,,,,,,,0,0,0,0,23,0,23,0,,,,,,ounwit,nw,h,upper,,,,,,,1,aftertar3,HiDemTar,h,1,0.8805753926280886,,,,,,,,,,,,,,,,,,,,328,2023-11-10_13h25.21.151,leap3,2022.2.5,59.995610355266436,
,,,,,,,,,,,,,,,,,,,,0,0,0,0,24,0,24,0,,,,,,neliefs,nw,h,upper,,,,,,,1,nw,HiDemTar,h,1,0.8440019735135138,,,,,,,,,,,,,,,,,,,,328,2023-11-10_13h25.21.151,leap3,2022.2.5,59.995610355266436,
,,,,,,,,,,,,,,,,,,,,0,0,0,0,25,0,25,0,,,,,,roaned,nw,h,upper,,,,,,,1,nw,HiDemTar,h,1,0.9534057297278196,,,,,,,,,,,,,,,,,,,,328,2023-11-10_13h25.21.151,leap3,2022.2.5,59.995610355266436,
,,,,,,,,,,,,,,,,,,,,0,0,0,0,26,0,26,0,,,,,,worps,nw,h,upper,,,,,,,1,nw,HiDemTar,g,0,1.1781102267559618,,,,,,,,,,,,,,,,,,,,328,2023-11-10_13h25.21.151,leap3,2022.2.5,59.995610355266436,
,,,,,,,,,,,,,,,,,,,,0,0,0,0,27,0,27,0,,,,,,hangar,w,g,upper,,,,,,,1,nw,HiDemTar,h,0,1.3302475856617093,,,,,,,,,,,,,,,,,,,,328,2023-11-10_13h25.21.151,leap3,2022.2.5,59.995610355266436,
,,,,,,,,,,,,,,,,,,,,0,0,0,0,28,0,28,0,,,,,,chyme,nw,h,upper,,,,,,,1,w,HiDemTar,h,1,2.0203284886665642,,,,,,,,,,,,,,,,,,,,328,2023-11-10_13h25.21.151,leap3,2022.2.5,59.995610355266436,
,,,,,,,,,,,,,,,,,,,,0,0,0,0,29,0,29,0,,,,,,lignpost,nw,h,upper,,,,,,,1,nw,HiDemTar,h,1,1.0262834099121392,,,,,,,,,,,,,,,,,,,,328,2023-11-10_13h25.21.151,leap3,2022.2.5,59.995610355266436,
,,,,,,,,,,,,,,,,,,,,0,0,0,0,,,,,,,,,,,,,,,,,,,,,,,,,,,1,,,,,,,,,,,,,,,,,,328,2023-11-10_13h25.21.151,leap3,2022.2.5,59.995610355266436,
,,,,,,,,,,,,,,,,,,,,1,0,1,0,0,0,0,0,,,,,,gunrunker,nw,h,upper,,,,,,,1,nw,HiDemTar,h,1,0.7835999310482293,,,,,,,,,,,,,,,,,,,,328,2023-11-10_13h25.21.151,leap3,2022.2.5,59.995610355266436,
,,,,,,,,,,,,,,,,,,,,1,0,1,0,1,0,1,0,,,,,,daylight,w,g,upper,,,,,,,1,w,HiDemTar,g,1,0.5914278365671635,,,,,,,,,,,,,,,,,,,,328,2023-11-10_13h25.21.151,leap3,2022.2.5,59.995610355266436,
,,,,,,,,,,,,,,,,,,,,1,0,1,0,2,0,2,0,,,,,,railway,w,g,upper,,,,,,,1,w,HiDemTar,g,1,0.5908153606578708,,,,,,,,,,,,,,,,,,,,328,2023-11-10_13h25.21.151,leap3,2022.2.5,59.995610355266436,
,,,,,,,,,,,,,,,,,,,,1,0,1,0,3,0,3,0,,,,,,catacomb,w,g,upper,,,,,,,1,w,HiDemTar,h,0,0.8382062963210046,,,,,,,,,,,,,,,,,,,,328,2023-11-10_13h25.21.151,leap3,2022.2.5,59.995610355266436,
,,,,,,,,,,,,,,,,,,,,1,0,1,0,4,0,4,0,,,,,,typical,w,g,upper,,,,,,,1,w,HiDemTar,g,1,0.6119444551877677,,,,,,,,,,,,,,,,,,,,328,2023-11-10_13h25.21.151,leap3,2022.2.5,59.995610355266436,
,,,,,,,,,,,,,,,,,,,,1,0,1,0,5,0,5,0,,,,,,gettle,nw,h,upper,,,,,,,1,nw,HiDemTar,g,0,0.6583118606358767,,,,,,,,,,,,,,,,,,,,328,2023-11-10_13h25.21.151,leap3,2022.2.5,59.995610355266436,
,,,,,,,,,,,,,,,,,,,,1,0,1,0,6,0,6,0,,,,,,borrent,nw,h,upper,,,,,,,1,nw,HiDemTar,h,1,0.7088834992609918,,,,,,,,,,,,,,,,,,,,328,2023-11-10_13h25.21.151,leap3,2022.2.5,59.995610355266436,
,,,,,,,,,,,,,,,,,,,,1,0,1,0,7,0,7,0,,,,,,telecast,w,g,upper,,,,,,,1,w,HiDemTar,h,0,1.2407966386526823,,,,,,,,,,,,,,,,,,,,328,2023-11-10_13h25.21.151,leap3,2022.2.5,59.995610355266436,
,,,,,,,,,,,,,,,,,,,,1,0,1,0,8,0,8,0,,,,,,tycoon,w,g,upper,,,,,,,1,w,HiDemTar,h,0,0.565234063193202,,,,,,,,,,,,,,,,,,,,328,2023-11-10_13h25.21.151,leap3,2022.2.5,59.995610355266436,
,,,,,,,,,,,,,,,,,,,,1,0,1,0,9,0,9,0,,,,,,etuip,nw,h,upper,,,,,,,1,nw,HiDemTar,h,1,1.038816322106868,,,,,,,,,,,,,,,,,,,,328,2023-11-10_13h25.21.151,leap3,2022.2.5,59.995610355266436,
,,,,,,,,,,,,,,,,,,,,1,0,1,0,10,0,10,0,,,,,,lovud,nw,h,upper,,,,,,,1,nw,HiDemTar,h,1,0.6281823499593884,,,,,,,,,,,,,,,,,,,,328,2023-11-10_13h25.21.151,leap3,2022.2.5,59.995610355266436,
,,,,,,,,,,,,,,,,,,,,1,0,1,0,11,0,11,0,,,,,,tuckel,nw,h,upper,,,,,,,1,nw,HiDemTar,h,1,1.146372387651354,,,,,,,,,,,,,,,,,,,,328,2023-11-10_13h25.21.151,leap3,2022.2.5,59.995610355266436,
,,,,,,,,,,,,,,,,,,,,1,0,1,0,12,0,12,0,,,,,,porcupine,target,q,upper,,,,,,,1,target,HiDemTar,q,1,0.9157113144174218,1,,,,,,,,,,,,,,,,,,,328,2023-11-10_13h25.21.151,leap3,2022.2.5,59.995610355266436,
,,,,,,,,,,,,,,,,,,,,1,0,1,0,13,0,13,0,,,,,,compose,w,g,upper,,,,,,,1,aftertar1,HiDemTar,g,1,1.1106061125174165,,,,,,,,,,,,,,,,,,,,328,2023-11-10_13h25.21.151,leap3,2022.2.5,59.995610355266436,
,,,,,,,,,,,,,,,,,,,,1,0,1,0,14,0,14,0,,,,,,result,w,g,upper,,,,,,,1,aftertar2,HiDemTar,g,1,0.7281599368434399,,,,,,,,,,,,,,,,,,,,328,2023-11-10_13h25.21.151,leap3,2022.2.5,59.995610355266436,
,,,,,,,,,,,,,,,,,,,,1,0,1,0,15,0,15,0,,,,,,even,w,g,upper,,,,,,,1,aftertar3,HiDemTar,g,1,0.45809977827593684,,,,,,,,,,,,,,,,,,,,328,2023-11-10_13h25.21.151,leap3,2022.2.5,59.995610355266436,
,,,,,,,,,,,,,,,,,,,,1,0,1,0,16,0,16,0,,,,,,poughest,nw,h,upper,,,,,,,1,w,HiDemTar,h,1,0.7828974046278745,,,,,,,,,,,,,,,,,,,,328,2023-11-10_13h25.21.151,leap3,2022.2.5,59.995610355266436,
,,,,,,,,,,,,,,,,,,,,1,0,1,0,17,0,17,0,,,,,,caution,w,g,upper,,,,,,,1,nw,HiDemTar,g,1,0.6548515371978283,,,,,,,,,,,,,,,,,,,,328,2023-11-10_13h25.21.151,leap3,2022.2.5,59.995610355266436,
,,,,,,,,,,,,,,,,,,,,1,0,1,0,18,0,18,0,,,,,,valif,nw,h,upper,,,,,,,1,w,HiDemTar,h,1,0.6756035450380296,,,,,,,,,,,,,,,,,,,,328,2023-11-10_13h25.21.151,leap3,2022.2.5,59.995610355266436,
,,,,,,,,,,,,,,,,,,,,1,0,1,0,19,0,19,0,,,,,,zears,nw,h,upper,,,,,,,1,nw,HiDemTar,h,1,0.917435516603291,,,,,,,,,,,,,,,,,,,,328,2023-11-10_13h25.21.151,leap3,2022.2.5,59.995610355266436,
,,,,,,,,,,,,,,,,,,,,1,0,1,0,20,0,20,0,,,,,,ezulated,nw,h,upper,,,,,,,1,nw,HiDemTar,h,1,0.969215553952381,,,,,,,,,,,,,,,,,,,,328,2023-11-10_13h25.21.151,leap3,2022.2.5,59.995610355266436,
,,,,,,,,,,,,,,,,,,,,1,0,1,0,21,0,21,0,,,,,,subber,nw,h,upper,,,,,,,1,nw,HiDemTar,h,1,0.9137007379904389,,,,,,,,,,,,,,,,,,,,328,2023-11-10_13h25.21.151,leap3,2022.2.5,59.995610355266436,
,,,,,,,,,,,,,,,,,,,,1,0,1,0,22,0,22,0,,,,,,terrify,w,g,upper,,,,,,,1,nw,HiDemTar,g,1,0.7324846787378192,,,,,,,,,,,,,,,,,,,,328,2023-11-10_13h25.21.151,leap3,2022.2.5,59.995610355266436,
,,,,,,,,,,,,,,,,,,,,1,0,1,0,23,0,23,0,,,,,,comply,w,g,upper,,,,,,,1,w,HiDemTar,g,1,0.8375133706722409,,,,,,,,,,,,,,,,,,,,328,2023-11-10_13h25.21.151,leap3,2022.2.5,59.995610355266436,
,,,,,,,,,,,,,,,,,,,,1,0,1,0,24,0,24,0,,,,,,rillains,nw,h,upper,,,,,,,1,w,HiDemTar,h,1,0.7868844573386014,,,,,,,,,,,,,,,,,,,,328,2023-11-10_13h25.21.151,leap3,2022.2.5,59.995610355266436,
,,,,,,,,,,,,,,,,,,,,1,0,1,0,25,0,25,0,,,,,,prominent,w,g,upper,,,,,,,1,nw,HiDemTar,g,1,0.9222211053129286,,,,,,,,,,,,,,,,,,,,328,2023-11-10_13h25.21.151,leap3,2022.2.5,59.995610355266436,
,,,,,,,,,,,,,,,,,,,,1,0,1,0,26,0,26,0,,,,,,reason,w,g,upper,,,,,,,1,w,HiDemTar,g,1,0.7481806150171906,,,,,,,,,,,,,,,,,,,,328,2023-11-10_13h25.21.151,leap3,2022.2.5,59.995610355266436,
,,,,,,,,,,,,,,,,,,,,1,0,1,0,27,0,27,0,,,,,,sludding,nw,h,upper,,,,,,,1,w,HiDemTar,h,1,1.053667041938752,,,,,,,,,,,,,,,,,,,,328,2023-11-10_13h25.21.151,leap3,2022.2.5,59.995610355266436,
,,,,,,,,,,,,,,,,,,,,1,0,1,0,28,0,28,0,,,,,,iolize,nw,h,upper,,,,,,,1,nw,HiDemTar,h,1,0.9943181269336492,,,,,,,,,,,,,,,,,,,,328,2023-11-10_13h25.21.151,leap3,2022.2.5,59.995610355266436,
,,,,,,,,,,,,,,,,,,,,1,0,1,0,29,0,29,0,,,,,,arcients,nw,h,upper,,,,,,,1,nw,HiDemTar,h,1,0.6736979172565043,,,,,,,,,,,,,,,,,,,,328,2023-11-10_13h25.21.151,leap3,2022.2.5,59.995610355266436,
,,,,,,,,,,,,,,,,,,,,1,0,1,0,,,,,,,,,,,,,,,,,,,,,,,,,,,1,,,,,,,,,,,,,,,,,,328,2023-11-10_13h25.21.151,leap3,2022.2.5,59.995610355266436,
,,,,,,,,,,,,,,,,,,,,2,0,2,0,0,0,0,0,,,,,,undimmec,nw,h,upper,,,,,,,1,nw,HiDemTar,h,1,0.7735103010199964,,,,,,,,,,,,,,,,,,,,328,2023-11-10_13h25.21.151,leap3,2022.2.5,59.995610355266436,
,,,,,,,,,,,,,,,,,,,,2,0,2,0,1,0,1,0,,,,,,nomma,nw,h,upper,,,,,,,1,nw,HiDemTar,h,1,0.5976396666374058,,,,,,,,,,,,,,,,,,,,328,2023-11-10_13h25.21.151,leap3,2022.2.5,59.995610355266436,
,,,,,,,,,,,,,,,,,,,,2,0,2,0,2,0,2,0,,,,,,parody,w,g,upper,,,,,,,1,w,HiDemTar,g,1,0.6926181255839765,,,,,,,,,,,,,,,,,,,,328,2023-11-10_13h25.21.151,leap3,2022.2.5,59.995610355266436,
,,,,,,,,,,,,,,,,,,,,2,0,2,0,3,0,3,0,,,,,,midday,w,g,upper,,,,,,,1,w,HiDemTar,g,1,0.7124193059280515,,,,,,,,,,,,,,,,,,,,328,2023-11-10_13h25.21.151,leap3,2022.2.5,59.995610355266436,
,,,,,,,,,,,,,,,,,,,,2,0,2,0,4,0,4,0,,,,,,crimb,nw,h,upper,,,,,,,1,nw,HiDemTar,h,1,1.171153824776411,,,,,,,,,,,,,,,,,,,,328,2023-11-10_13h25.21.151,leap3,2022.2.5,59.995610355266436,
,,,,,,,,,,,,,,,,,,,,2,0,2,0,5,0,5,0,,,,,,prawls,nw,h,upper,,,,,,,1,nw,HiDemTar,h,1,1.6192219930235296,,,,,,,,,,,,,,,,,,,,328,2023-11-10_13h25.21.151,leap3,2022.2.5,59.995610355266436,
,,,,,,,,,,,,,,,,,,,,2,0,2,0,6,0,6,0,,,,,,erony,nw,h,upper,,,,,,,1,nw,HiDemTar,h,1,1.1202415169682354,,,,,,,,,,,,,,,,,,,,328,2023-11-10_13h25.21.151,leap3,2022.2.5,59.995610355266436,
,,,,,,,,,,,,,,,,,,,,2,0,2,0,7,0,7,0,,,,,,warden,w,g,upper,,,,,,,1,w,HiDemTar,g,1,2.114184958161786,,,,,,,,,,,,,,,,,,,,328,2023-11-10_13h25.21.151,leap3,2022.2.5,59.995610355266436,
,,,,,,,,,,,,,,,,,,,,2,0,2,0,8,0,8,0,,,,,,arranged,w,g,upper,,,,,,,1,w,HiDemTar,g,1,0.5882528938818723,,,,,,,,,,,,,,,,,,,,328,2023-11-10_13h25.21.151,leap3,2022.2.5,59.995610355266436,
,,,,,,,,,,,,,,,,,,,,2,0,2,0,9,0,9,0,,,,,,offonents,nw,h,upper,,,,,,,1,nw,HiDemTar,h,1,1.196429546456784,,,,,,,,,,,,,,,,,,,,328,2023-11-10_13h25.21.151,leap3,2022.2.5,59.995610355266436,
,,,,,,,,,,,,,,,,,,,,2,0,2,0,10,0,10,0,,,,,,number,w,g,upper,,,,,,,1,w,HiDemTar,g,1,0.5318054594099522,,,,,,,,,,,,,,,,,,,,328,2023-11-10_13h25.21.151,leap3,2022.2.5,59.995610355266436,
,,,,,,,,,,,,,,,,,,,,2,0,2,0,11,0,11,0,,,,,,airline,w,g,upper,,,,,,,1,w,HiDemTar,g,1,0.7258497436996549,,,,,,,,,,,,,,,,,,,,328,2023-11-10_13h25.21.151,leap3,2022.2.5,59.995610355266436,
,,,,,,,,,,,,,,,,,,,,2,0,2,0,12,0,12,0,,,,,,elderly,w,g,upper,,,,,,,1,w,HiDemTar,g,1,0.9999363517854363,,,,,,,,,,,,,,,,,,,,328,2023-11-10_13h25.21.151,leap3,2022.2.5,59.995610355266436,
,,,,,,,,,,,,,,,,,,,,2,0,2,0,13,0,13,0,,,,,,veirs,nw,h,upper,,,,,,,1,nw,HiDemTar,h,1,1.0063262963667512,,,,,,,,,,,,,,,,,,,,328,2023-11-10_13h25.21.151,leap3,2022.2.5,59.995610355266436,
,,,,,,,,,,,,,,,,,,,,2,0,2,0,14,0,14,0,,,,,,mopping,w,g,upper,,,,,,,1,w,HiDemTar,g,1,0.7090285068843514,,,,,,,,,,,,,,,,,,,,328,2023-11-10_13h25.21.151,leap3,2022.2.5,59.995610355266436,
,,,,,,,,,,,,,,,,,,,,2,0,2,0,15,0,15,0,,,,,,gontracts,nw,h,upper,,,,,,,1,nw,HiDemTar,h,1,0.7596008076798171,,,,,,,,,,,,,,,,,,,,328,2023-11-10_13h25.21.151,leap3,2022.2.5,59.995610355266436,
,,,,,,,,,,,,,,,,,,,,2,0,2,0,16,0,16,0,,,,,,drauns,nw,h,upper,,,,,,,1,nw,HiDemTar,h,1,0.6402858670335263,,,,,,,,,,,,,,,,,,,,328,2023-11-10_13h25.21.151,leap3,2022.2.5,59.995610355266436,
,,,,,,,,,,,,,,,,,,,,2,0,2,0,17,0,17,0,,,,,,giraffe,target,q,upper,,,,,,,1,target,HiDemTar,q,1,0.9577029931824654,1,,,,,,,,,,,,,,,,,,,328,2023-11-10_13h25.21.151,leap3,2022.2.5,59.995610355266436,
,,,,,,,,,,,,,,,,,,,,2,0,2,0,18,0,18,0,,,,,,alber,nw,h,upper,,,,,,,1,aftertar1,HiDemTar,h,1,0.9024186008609831,,,,,,,,,,,,,,,,,,,,328,2023-11-10_13h25.21.151,leap3,2022.2.5,59.995610355266436,
,,,,,,,,,,,,,,,,,,,,2,0,2,0,19,0,19,0,,,,,,childhood,w,g,upper,,,,,,,1,aftertar2,HiDemTar,g,1,1.4170930266845971,,,,,,,,,,,,,,,,,,,,328,2023-11-10_13h25.21.151,leap3,2022.2.5,59.995610355266436,
,,,,,,,,,,,,,,,,,,,,2,0,2,0,20,0,20,0,,,,,,integral,w,g,upper,,,,,,,1,aftertar3,HiDemTar,g,1,1.0475995575543493,,,,,,,,,,,,,,,,,,,,328,2023-11-10_13h25.21.151,leap3,2022.2.5,59.995610355266436,
,,,,,,,,,,,,,,,,,,,,2,0,2,0,21,0,21,0,,,,,,advantage,w,g,upper,,,,,,,1,w,HiDemTar,g,1,0.5723447427153587,,,,,,,,,,,,,,,,,,,,328,2023-11-10_13h25.21.151,leap3,2022.2.5,59.995610355266436,
,,,,,,,,,,,,,,,,,,,,2,0,2,0,22,0,22,0,,,,,,pircus,nw,h,upper,,,,,,,1,w,HiDemTar,h,1,0.6362415396142751,,,,,,,,,,,,,,,,,,,,328,2023-11-10_13h25.21.151,leap3,2022.2.5,59.995610355266436,
,,,,,,,,,,,,,,,,,,,,2,0,2,0,23,0,23,0,,,,,,penalize,w,g,upper,,,,,,,1,nw,HiDemTar,g,1,0.7536246983800083,,,,,,,,,,,,,,,,,,,,328,2023-11-10_13h25.21.151,leap3,2022.2.5,59.995610355266436,
,,,,,,,,,,,,,,,,,,,,2,0,2,0,24,0,24,0,,,,,,despise,w,g,upper,,,,,,,1,w,HiDemTar,g,1,0.7625747919082642,,,,,,,,,,,,,,,,,,,,328,2023-11-10_13h25.21.151,leap3,2022.2.5,59.995610355266436,
,,,,,,,,,,,,,,,,,,,,2,0,2,0,25,0,25,0,,,,,,gepealed,nw,h,upper,,,,,,,1,w,HiDemTar,h,1,0.6671960717067122,,,,,,,,,,,,,,,,,,,,328,2023-11-10_13h25.21.151,leap3,2022.2.5,59.995610355266436,
,,,,,,,,,,,,,,,,,,,,2,0,2,0,26,0,26,0,,,,,,alchemist,w,g,upper,,,,,,,1,nw,HiDemTar,g,1,0.7031702578533441,,,,,,,,,,,,,,,,,,,,328,2023-11-10_13h25.21.151,leap3,2022.2.5,59.995610355266436,
,,,,,,,,,,,,,,,,,,,,2,0,2,0,27,0,27,0,,,,,,insertion,w,g,upper,,,,,,,1,w,HiDemTar,g,1,0.6258668599184602,,,,,,,,,,,,,,,,,,,,328,2023-11-10_13h25.21.151,leap3,2022.2.5,59.995610355266436,
,,,,,,,,,,,,,,,,,,,,2,0,2,0,28,0,28,0,,,,,,egpended,nw,h,upper,,,,,,,1,w,HiDemTar,h,1,0.7198921742383391,,,,,,,,,,,,,,,,,,,,328,2023-11-10_13h25.21.151,leap3,2022.2.5,59.995610355266436,
,,,,,,,,,,,,,,,,,,,,2,0,2,0,29,0,29,0,,,,,,clooped,nw,h,upper,,,,,,,1,nw,HiDemTar,h,1,0.8739493966568261,,,,,,,,,,,,,,,,,,,,328,2023-11-10_13h25.21.151,leap3,2022.2.5,59.995610355266436,
,,,,,,,,,,,,,,,,,,,,2,0,2,0,,,,,,,,,,,,,,,,,,,,,,,,,,,1,,,,,,,,,,,,,,,,,,328,2023-11-10_13h25.21.151,leap3,2022.2.5,59.995610355266436,
,,,,,,,,,,,,,,,,,,,,3,0,3,0,0,0,0,0,,,,,,virulent,w,g,lower,,,,,,,3,w,LoDemNoTar,h,0,0.8051829196047038,,,,,,,,,,,,,,,,,,,,328,2023-11-10_13h25.21.151,leap3,2022.2.5,59.995610355266436,
,,,,,,,,,,,,,,,,,,,,3,0,3,0,1,0,1,0,,,,,,column,w,g,lower,,,,,,,3,w,LoDemNoTar,g,1,0.635901863919571,,,,,,,,,,,,,,,,,,,,328,2023-11-10_13h25.21.151,leap3,2022.2.5,59.995610355266436,
,,,,,,,,,,,,,,,,,,,,3,0,3,0,2,0,2,0,,,,,,handed,w,g,lower,,,,,,,3,w,LoDemNoTar,g,1,0.46521343756467104,,,,,,,,,,,,,,,,,,,,328,2023-11-10_13h25.21.151,leap3,2022.2.5,59.995610355266436,
,,,,,,,,,,,,,,,,,,,,3,0,3,0,3,0,3,0,,,,,,quickel,nw,h,lower,,,,,,,3,nw,LoDemNoTar,h,1,1.3102745807264,,,,,,,,,,,,,,,,,,,,328,2023-11-10_13h25.21.151,leap3,2022.2.5,59.995610355266436,
,,,,,,,,,,,,,,,,,,,,3,0,3,0,4,0,4,0,,,,,,saturate,w,g,lower,,,,,,,3,w,LoDemNoTar,g,1,0.9286799121182412,,,,,,,,,,,,,,,,,,,,328,2023-11-10_13h25.21.151,leap3,2022.2.5,59.995610355266436,
,,,,,,,,,,,,,,,,,,,,3,0,3,0,5,0,5,0,,,,,,halter,w,g,lower,,,,,,,3,w,LoDemNoTar,g,1,0.8816563298460096,,,,,,,,,,,,,,,,,,,,328,2023-11-10_13h25.21.151,leap3,2022.2.5,59.995610355266436,
,,,,,,,,,,,,,,,,,,,,3,0,3,0,6,0,6,0,,,,,,veranpah,nw,h,lower,,,,,,,3,nw,LoDemNoTar,h,1,1.2933007217943668,,,,,,,,,,,,,,,,,,,,328,2023-11-10_13h25.21.151,leap3,2022.2.5,59.995610355266436,
,,,,,,,,,,,,,,,,,,,,3,0,3,0,7,0,7,0,,,,,,sequence,w,g,lower,,,,,,,3,w,LoDemNoTar,g,1,0.6411181720905006,,,,,,,,,,,,,,,,,,,,328,2023-11-10_13h25.21.151,leap3,2022.2.5,59.995610355266436,
,,,,,,,,,,,,,,,,,,,,3,0,3,0,8,0,8,0,,,,,,redefloy,nw,h,lower,,,,,,,3,nw,LoDemNoTar,h,1,1.11046706372872,,,,,,,,,,,,,,,,,,,,328,2023-11-10_13h25.21.151,leap3,2022.2.5,59.995610355266436,
,,,,,,,,,,,,,,,,,,,,3,0,3,0,9,0,9,0,,,,,,outflow,w,g,lower,,,,,,,3,w,LoDemNoTar,g,1,0.6172011536546052,,,,,,,,,,,,,,,,,,,,328,2023-11-10_13h25.21.151,leap3,2022.2.5,59.995610355266436,
,,,,,,,,,,,,,,,,,,,,3,0,3,0,10,0,10,0,,,,,,eightiech,nw,h,lower,,,,,,,3,nw,LoDemNoTar,h,1,1.0130953136831522,,,,,,,,,,,,,,,,,,,,328,2023-11-10_13h25.21.151,leap3,2022.2.5,59.995610355266436,
,,,,,,,,,,,,,,,,,,,,3,0,3,0,11,0,11,0,,,,,,plashed,nw,h,lower,,,,,,,3,nw,LoDemNoTar,h,1,0.6374148447066545,,,,,,,,,,,,,,,,,,,,328,2023-11-10_13h25.21.151,leap3,2022.2.5,59.995610355266436,
,,,,,,,,,,,,,,,,,,,,3,0,3,0,12,0,12,0,,,,,,blueberry,w,g,lower,,,,,,,3,w,LoDemNoTar,g,1,0.6992818634025753,,,,,,,,,,,,,,,,,,,,328,2023-11-10_13h25.21.151,leap3,2022.2.5,59.995610355266436,
,,,,,,,,,,,,,,,,,,,,3,0,3,0,13,0,13,0,,,,,,pigned,nw,h,lower,,,,,,,3,nw,LoDemNoTar,h,1,1.709673096658662,,,,,,,,,,,,,,,,,,,,328,2023-11-10_13h25.21.151,leap3,2022.2.5,59.995610355266436,
,,,,,,,,,,,,,,,,,,,,3,0,3,0,14,0,14,0,,,,,,aefated,nw,h,lower,,,,,,,3,nw,LoDemNoTar,h,1,0.7364710692781955,,,,,,,,,,,,,,,,,,,,328,2023-11-10_13h25.21.151,leap3,2022.2.5,59.995610355266436,
,,,,,,,,,,,,,,,,,,,,3,0,3,0,15,0,15,0,,,,,,harder,w,g,lower,,,,,,,3,w,LoDemNoTar,g,1,0.5539241163060069,,,,,,,,,,,,,,,,,,,,328,2023-11-10_13h25.21.151,leap3,2022.2.5,59.995610355266436,
,,,,,,,,,,,,,,,,,,,,3,0,3,0,16,0,16,0,,,,,,butler,w,g,lower,,,,,,,3,w,LoDemNoTar,g,1,0.8265848141163588,,,,,,,,,,,,,,,,,,,,328,2023-11-10_13h25.21.151,leap3,2022.2.5,59.995610355266436,
,,,,,,,,,,,,,,,,,,,,3,0,3,0,17,0,17,0,,,,,,deadly,w,g,lower,,,,,,,3,w,LoDemNoTar,g,1,0.5526011681649834,,,,,,,,,,,,,,,,,,,,328,2023-11-10_13h25.21.151,leap3,2022.2.5,59.995610355266436,
,,,,,,,,,,,,,,,,,,,,3,0,3,0,18,0,18,0,,,,,,living,w,g,lower,,,,,,,3,w,LoDemNoTar,g,1,0.5453193264547735,,,,,,,,,,,,,,,,,,,,328,2023-11-10_13h25.21.151,leap3,2022.2.5,59.995610355266436,
,,,,,,,,,,,,,,,,,,,,3,0,3,0,19,0,19,0,,,,,,oldest,w,g,lower,,,,,,,3,w,LoDemNoTar,g,1,0.5146524924784899,,,,,,,,,,,,,,,,,,,,328,2023-11-10_13h25.21.151,leap3,2022.2.5,59.995610355266436,
,,,,,,,,,,,,,,,,,,,,3,0,3,0,20,0,20,0,,,,,,flieves,nw,h,lower,,,,,,,3,nw,LoDemNoTar,h,1,0.8453994116280228,,,,,,,,,,,,,,,,,,,,328,2023-11-10_13h25.21.151,leap3,2022.2.5,59.995610355266436,
,,,,,,,,,,,,,,,,,,,,3,0,3,0,21,0,21,0,,,,,,dorte,nw,h,lower,,,,,,,3,nw,LoDemNoTar,h,1,0.7546910685487092,,,,,,,,,,,,,,,,,,,,328,2023-11-10_13h25.21.151,leap3,2022.2.5,59.995610355266436,
,,,,,,,,,,,,,,,,,,,,3,0,3,0,22,0,22,0,,,,,,gairs,nw,h,lower,,,,,,,3,nw,LoDemNoTar,g,0,0.7864130162633955,,,,,,,,,,,,,,,,,,,,328,2023-11-10_13h25.21.151,leap3,2022.2.5,59.995610355266436,
,,,,,,,,,,,,,,,,,,,,3,0,3,0,23,0,23,0,,,,,,hegacy,nw,h,lower,,,,,,,3,nw,LoDemNoTar,h,1,0.9618261146824807,,,,,,,,,,,,,,,,,,,,328,2023-11-10_13h25.21.151,leap3,2022.2.5,59.995610355266436,
,,,,,,,,,,,,,,,,,,,,3,0,3,0,24,0,24,0,,,,,,professor,w,g,lower,,,,,,,3,w,LoDemNoTar,g,1,0.8665602884721011,,,,,,,,,,,,,,,,,,,,328,2023-11-10_13h25.21.151,leap3,2022.2.5,59.995610355266436,
,,,,,,,,,,,,,,,,,,,,3,0,3,0,25,0,25,0,,,,,,fisco,nw,h,lower,,,,,,,3,nw,LoDemNoTar,h,1,0.7992399171926081,,,,,,,,,,,,,,,,,,,,328,2023-11-10_13h25.21.151,leap3,2022.2.5,59.995610355266436,
,,,,,,,,,,,,,,,,,,,,3,0,3,0,26,0,26,0,,,,,,walsams,nw,h,lower,,,,,,,3,nw,LoDemNoTar,h,1,0.6225717396009713,,,,,,,,,,,,,,,,,,,,328,2023-11-10_13h25.21.151,leap3,2022.2.5,59.995610355266436,
,,,,,,,,,,,,,,,,,,,,3,0,3,0,27,0,27,0,,,,,,mitro,nw,h,lower,,,,,,,3,nw,LoDemNoTar,h,1,0.5806184646207839,,,,,,,,,,,,,,,,,,,,328,2023-11-10_13h25.21.151,leap3,2022.2.5,59.995610355266436,
,,,,,,,,,,,,,,,,,,,,3,0,3,0,28,0,28,0,,,,,,ordinary,w,g,lower,,,,,,,3,w,LoDemNoTar,g,1,0.7166847868356854,,,,,,,,,,,,,,,,,,,,328,2023-11-10_13h25.21.151,leap3,2022.2.5,59.995610355266436,
,,,,,,,,,,,,,,,,,,,,3,0,3,0,29,0,29,0,,,,,,lecked,nw,h,lower,,,,,,,3,nw,LoDemNoTar,h,1,1.0393890698906034,,,,,,,,,,,,,,,,,,,,328,2023-11-10_13h25.21.151,leap3,2022.2.5,59.995610355266436,
,,,,,,,,,,,,,,,,,,,,3,0,3,0,,,,,,,,,,,,,,,,,,,,,,,,,,,NA,,,,,,,,,,,,,,,,,,328,2023-11-10_13h25.21.151,leap3,2022.2.5,59.995610355266436,
,,,,,,,,,,,,,,,,,,,,4,0,4,0,0,0,0,0,,,,,,index,w,g,lower,,,,,,,3,w,LoDemNoTar,g,1,0.7158481779042631,,,,,,,,,,,,,,,,,,,,328,2023-11-10_13h25.21.151,leap3,2022.2.5,59.995610355266436,
,,,,,,,,,,,,,,,,,,,,4,0,4,0,1,0,1,0,,,,,,crundle,nw,h,lower,,,,,,,3,nw,LoDemNoTar,h,1,0.7985791051760316,,,,,,,,,,,,,,,,,,,,328,2023-11-10_13h25.21.151,leap3,2022.2.5,59.995610355266436,
,,,,,,,,,,,,,,,,,,,,4,0,4,0,2,0,2,0,,,,,,potent,w,g,lower,,,,,,,3,w,LoDemNoTar,g,1,0.934009445598349,,,,,,,,,,,,,,,,,,,,328,2023-11-10_13h25.21.151,leap3,2022.2.5,59.995610355266436,
,,,,,,,,,,,,,,,,,,,,4,0,4,0,3,0,3,0,,,,,,hanling,nw,h,lower,,,,,,,3,nw,LoDemNoTar,h,1,0.7909006436821073,,,,,,,,,,,,,,,,,,,,328,2023-11-10_13h25.21.151,leap3,2022.2.5,59.995610355266436,
,,,,,,,,,,,,,,,,,,,,4,0,4,0,4,0,4,0,,,,,,tinion,nw,h,lower,,,,,,,3,nw,LoDemNoTar,h,1,0.6793740789871663,,,,,,,,,,,,,,,,,,,,328,2023-11-10_13h25.21.151,leap3,2022.2.5,59.995610355266436,
,,,,,,,,,,,,,,,,,,,,4,0,4,0,5,0,5,0,,,,,,micron,w,g,lower,,,,,,,3,w,LoDemNoTar,h,0,0.666529300622642,,,,,,,,,,,,,,,,,,,,328,2023-11-10_13h25.21.151,leap3,2022.2.5,59.995610355266436,
,,,,,,,,,,,,,,,,,,,,4,0,4,0,6,0,6,0,,,,,,huzzles,nw,h,lower,,,,,,,3,nw,LoDemNoTar,h,1,0.646993305766955,,,,,,,,,,,,,,,,,,,,328,2023-11-10_13h25.21.151,leap3,2022.2.5,59.995610355266436,
,,,,,,,,,,,,,,,,,,,,4,0,4,0,7,0,7,0,,,,,,glocked,nw,h,lower,,,,,,,3,nw,LoDemNoTar,g,0,1.1726323748007417,,,,,,,,,,,,,,,,,,,,328,2023-11-10_13h25.21.151,leap3,2022.2.5,59.995610355266436,
,,,,,,,,,,,,,,,,,,,,4,0,4,0,8,0,8,0,,,,,,truthful,w,g,lower,,,,,,,3,w,LoDemNoTar,g,1,0.6205704333260655,,,,,,,,,,,,,,,,,,,,328,2023-11-10_13h25.21.151,leap3,2022.2.5,59.995610355266436,
,,,,,,,,,,,,,,,,,,,,4,0,4,0,9,0,9,0,,,,,,rapport,w,g,lower,,,,,,,3,w,LoDemNoTar,g,1,0.794651644770056,,,,,,,,,,,,,,,,,,,,328,2023-11-10_13h25.21.151,leap3,2022.2.5,59.995610355266436,
,,,,,,,,,,,,,,,,,,,,4,0,4,0,10,0,10,0,,,,,,preclude,w,g,lower,,,,,,,3,w,LoDemNoTar,g,1,1.5462489654310048,,,,,,,,,,,,,,,,,,,,328,2023-11-10_13h25.21.151,leap3,2022.2.5,59.995610355266436,
,,,,,,,,,,,,,,,,,,,,4,0,4,0,11,0,11,0,,,,,,aicline,nw,h,lower,,,,,,,3,nw,LoDemNoTar,h,1,0.8353975147474557,,,,,,,,,,,,,,,,,,,,328,2023-11-10_13h25.21.151,leap3,2022.2.5,59.995610355266436,
,,,,,,,,,,,,,,,,,,,,4,0,4,0,12,0,12,0,,,,,,tibs,nw,h,lower,,,,,,,3,nw,LoDemNoTar,h,1,0.7447848501615226,,,,,,,,,,,,,,,,,,,,328,2023-11-10_13h25.21.151,leap3,2022.2.5,59.995610355266436,
,,,,,,,,,,,,,,,,,,,,4,0,4,0,13,0,13,0,,,,,,loneliest,w,g,lower,,,,,,,3,w,LoDemNoTar,g,1,0.6972004384733737,,,,,,,,,,,,,,,,,,,,328,2023-11-10_13h25.21.151,leap3,2022.2.5,59.995610355266436,
,,,,,,,,,,,,,,,,,,,,4,0,4,0,14,0,14,0,,,,,,plunging,w,g,lower,,,,,,,3,w,LoDemNoTar,g,1,1.0205413654912263,,,,,,,,,,,,,,,,,,,,328,2023-11-10_13h25.21.151,leap3,2022.2.5,59.995610355266436,
,,,,,,,,,,,,,,,,,,,,4,0,4,0,15,0,15,0,,,,,,paranoid,w,g,lower,,,,,,,3,w,LoDemNoTar,g,1,0.8265662742778659,,,,,,,,,,,,,,,,,,,,328,2023-11-10_13h25.21.151,leap3,2022.2.5,59.995610355266436,
,,,,,,,,,,,,,,,,,,,,4,0,4,0,16,0,16,0,,,,,,rantho,nw,h,lower,,,,,,,3,nw,LoDemNoTar,h,1,0.6966442440170795,,,,,,,,,,,,,,,,,,,,328,2023-11-10_13h25.21.151,leap3,2022.2.5,59.995610355266436,
,,,,,,,,,,,,,,,,,,,,4,0,4,0,17,0,17,0,,,,,,grummer,nw,h,lower,,,,,,,3,nw,LoDemNoTar,h,1,0.8595515780616552,,,,,,,,,,,,,,,,,,,,328,2023-11-10_13h25.21.151,leap3,2022.2.5,59.995610355266436,
,,,,,,,,,,,,,,,,,,,,4,0,4,0,18,0,18,0,,,,,,couple,w,g,lower,,,,,,,3,w,LoDemNoTar,g,1,0.7127331583760679,,,,,,,,,,,,,,,,,,,,328,2023-11-10_13h25.21.151,leap3,2022.2.5,59.995610355266436,
,,,,,,,,,,,,,,,,,,,,4,0,4,0,19,0,19,0,,,,,,chesume,nw,h,lower,,,,,,,3,nw,LoDemNoTar,h,1,0.8034471299033612,,,,,,,,,,,,,,,,,,,,328,2023-11-10_13h25.21.151,leap3,2022.2.5,59.995610355266436,
,,,,,,,,,,,,,,,,,,,,4,0,4,0,20,0,20,0,,,,,,crudios,nw,h,lower,,,,,,,3,nw,LoDemNoTar,h,1,1.5301954755559564,,,,,,,,,,,,,,,,,,,,328,2023-11-10_13h25.21.151,leap3,2022.2.5,59.995610355266436,
,,,,,,,,,,,,,,,,,,,,4,0,4,0,21,0,21,0,,,,,,explosion,w,g,lower,,,,,,,3,w,LoDemNoTar,g,1,0.6121550141833723,,,,,,,,,,,,,,,,,,,,328,2023-11-10_13h25.21.151,leap3,2022.2.5,59.995610355266436,
,,,,,,,,,,,,,,,,,,,,4,0,4,0,22,0,22,0,,,,,,dishwater,w,g,lower,,,,,,,3,w,LoDemNoTar,g,1,0.5618008873425424,,,,,,,,,,,,,,,,,,,,328,2023-11-10_13h25.21.151,leap3,2022.2.5,59.995610355266436,
,,,,,,,,,,,,,,,,,,,,4,0,4,0,23,0,23,0,,,,,,irregular,w,g,lower,,,,,,,3,w,LoDemNoTar,g,1,0.67455372819677,,,,,,,,,,,,,,,,,,,,328,2023-11-10_13h25.21.151,leap3,2022.2.5,59.995610355266436,
,,,,,,,,,,,,,,,,,,,,4,0,4,0,24,0,24,0,,,,,,gradielts,nw,h,lower,,,,,,,3,nw,LoDemNoTar,h,1,0.726503272075206,,,,,,,,,,,,,,,,,,,,328,2023-11-10_13h25.21.151,leap3,2022.2.5,59.995610355266436,
,,,,,,,,,,,,,,,,,,,,4,0,4,0,25,0,25,0,,,,,,seartfelt,nw,h,lower,,,,,,,3,nw,LoDemNoTar,h,1,0.7528728428296745,,,,,,,,,,,,,,,,,,,,328,2023-11-10_13h25.21.151,leap3,2022.2.5,59.995610355266436,
,,,,,,,,,,,,,,,,,,,,4,0,4,0,26,0,26,0,,,,,,drobate,nw,h,lower,,,,,,,3,nw,LoDemNoTar,h,1,0.7933267105836421,,,,,,,,,,,,,,,,,,,,328,2023-11-10_13h25.21.151,leap3,2022.2.5,59.995610355266436,
,,,,,,,,,,,,,,,,,,,,4,0,4,0,27,0,27,0,,,,,,figure,w,g,lower,,,,,,,3,w,LoDemNoTar,g,1,0.600737470202148,,,,,,,,,,,,,,,,,,,,328,2023-11-10_13h25.21.151,leap3,2022.2.5,59.995610355266436,
,,,,,,,,,,,,,,,,,,,,4,0,4,0,28,0,28,0,,,,,,heaviest,w,g,lower,,,,,,,3,w,LoDemNoTar,g,1,0.64722472243011,,,,,,,,,,,,,,,,,,,,328,2023-11-10_13h25.21.151,leap3,2022.2.5,59.995610355266436,
,,,,,,,,,,,,,,,,,,,,4,0,4,0,29,0,29,0,,,,,,hivinity,nw,h,lower,,,,,,,3,nw,LoDemNoTar,h,1,0.6774916262365878,,,,,,,,,,,,,,,,,,,,328,2023-11-10_13h25.21.151,leap3,2022.2.5,59.995610355266436,
,,,,,,,,,,,,,,,,,,,,4,0,4,0,,,,,,,,,,,,,,,,,,,,,,,,,,,NA,,,,,,,,,,,,,,,,,,328,2023-11-10_13h25.21.151,leap3,2022.2.5,59.995610355266436,
,,,,,,,,,,,,,,,,,,,,5,0,5,0,0,0,0,0,,,,,,surdens,nw,h,upper,,,,,,,2,nw,HiDemNoTar,h,1,0.7447242648340762,,,,,,,,,,,,,,,,,,,,328,2023-11-10_13h25.21.151,leap3,2022.2.5,59.995610355266436,
,,,,,,,,,,,,,,,,,,,,5,0,5,0,1,0,1,0,,,,,,pypecast,nw,h,upper,,,,,,,2,nw,HiDemNoTar,h,1,0.5620942136738449,,,,,,,,,,,,,,,,,,,,328,2023-11-10_13h25.21.151,leap3,2022.2.5,59.995610355266436,
,,,,,,,,,,,,,,,,,,,,5,0,5,0,2,0,2,0,,,,,,emission,w,g,upper,,,,,,,2,w,HiDemNoTar,g,1,0.7708200421184301,,,,,,,,,,,,,,,,,,,,328,2023-11-10_13h25.21.151,leap3,2022.2.5,59.995610355266436,
,,,,,,,,,,,,,,,,,,,,5,0,5,0,3,0,3,0,,,,,,lawsuit,w,g,upper,,,,,,,2,w,HiDemNoTar,g,1,0.5868150654714555,,,,,,,,,,,,,,,,,,,,328,2023-11-10_13h25.21.151,leap3,2022.2.5,59.995610355266436,
,,,,,,,,,,,,,,,,,,,,5,0,5,0,4,0,4,0,,,,,,previous,w,g,upper,,,,,,,2,w,HiDemNoTar,g,1,1.282226495211944,,,,,,,,,,,,,,,,,,,,328,2023-11-10_13h25.21.151,leap3,2022.2.5,59.995610355266436,
,,,,,,,,,,,,,,,,,,,,5,0,5,0,5,0,5,0,,,,,,sength,nw,h,upper,,,,,,,2,nw,HiDemNoTar,h,1,0.7893962706439197,,,,,,,,,,,,,,,,,,,,328,2023-11-10_13h25.21.151,leap3,2022.2.5,59.995610355266436,
,,,,,,,,,,,,,,,,,,,,5,0,5,0,6,0,6,0,,,,,,fission,w,g,upper,,,,,,,2,w,HiDemNoTar,g,1,0.7005723668262362,,,,,,,,,,,,,,,,,,,,328,2023-11-10_13h25.21.151,leap3,2022.2.5,59.995610355266436,
,,,,,,,,,,,,,,,,,,,,5,0,5,0,7,0,7,0,,,,,,phambled,nw,h,upper,,,,,,,2,nw,HiDemNoTar,h,1,0.742860020371154,,,,,,,,,,,,,,,,,,,,328,2023-11-10_13h25.21.151,leap3,2022.2.5,59.995610355266436,
,,,,,,,,,,,,,,,,,,,,5,0,5,0,8,0,8,0,,,,,,nearsipe,nw,h,upper,,,,,,,2,nw,HiDemNoTar,h,1,0.7927907113917172,,,,,,,,,,,,,,,,,,,,328,2023-11-10_13h25.21.151,leap3,2022.2.5,59.995610355266436,
,,,,,,,,,,,,,,,,,,,,5,0,5,0,9,0,9,0,,,,,,trembla,nw,h,upper,,,,,,,2,nw,HiDemNoTar,h,1,0.5762212185654789,,,,,,,,,,,,,,,,,,,,328,2023-11-10_13h25.21.151,leap3,2022.2.5,59.995610355266436,
,,,,,,,,,,,,,,,,,,,,5,0,5,0,10,0,10,0,,,,,,duries,nw,h,upper,,,,,,,2,nw,HiDemNoTar,h,1,0.8634244119748473,,,,,,,,,,,,,,,,,,,,328,2023-11-10_13h25.21.151,leap3,2022.2.5,59.995610355266436,
,,,,,,,,,,,,,,,,,,,,5,0,5,0,11,0,11,0,,,,,,system,w,g,upper,,,,,,,2,w,HiDemNoTar,g,1,0.5882055512629449,,,,,,,,,,,,,,,,,,,,328,2023-11-10_13h25.21.151,leap3,2022.2.5,59.995610355266436,
,,,,,,,,,,,,,,,,,,,,5,0,5,0,12,0,12,0,,,,,,arrow,w,g,upper,,,,,,,2,w,HiDemNoTar,g,1,0.6998572596348822,,,,,,,,,,,,,,,,,,,,328,2023-11-10_13h25.21.151,leap3,2022.2.5,59.995610355266436,
,,,,,,,,,,,,,,,,,,,,5,0,5,0,13,0,13,0,,,,,,shamrock,w,g,upper,,,,,,,2,w,HiDemNoTar,h,0,1.0148993036709726,,,,,,,,,,,,,,,,,,,,328,2023-11-10_13h25.21.151,leap3,2022.2.5,59.995610355266436,
,,,,,,,,,,,,,,,,,,,,5,0,5,0,14,0,14,0,,,,,,grested,nw,h,upper,,,,,,,2,nw,HiDemNoTar,h,1,0.8446525223553181,,,,,,,,,,,,,,,,,,,,328,2023-11-10_13h25.21.151,leap3,2022.2.5,59.995610355266436,
,,,,,,,,,,,,,,,,,,,,5,0,5,0,15,0,15,0,,,,,,hardest,w,g,upper,,,,,,,2,w,HiDemNoTar,g,1,0.6740104453638196,,,,,,,,,,,,,,,,,,,,328,2023-11-10_13h25.21.151,leap3,2022.2.5,59.995610355266436,
,,,,,,,,,,,,,,,,,,,,5,0,5,0,16,0,16,0,,,,,,subpoena,w,g,upper,,,,,,,2,w,HiDemNoTar,h,0,0.7019936419092119,,,,,,,,,,,,,,,,,,,,328,2023-11-10_13h25.21.151,leap3,2022.2.5,59.995610355266436,
,,,,,,,,,,,,,,,,,,,,5,0,5,0,17,0,17,0,,,,,,ascending,w,g,upper,,,,,,,2,w,HiDemNoTar,g,1,0.7444100810680538,,,,,,,,,,,,,,,,,,,,328,2023-11-10_13h25.21.151,leap3,2022.2.5,59.995610355266436,
,,,,,,,,,,,,,,,,,,,,5,0,5,0,18,0,18,0,,,,,,buzzer,w,g,upper,,,,,,,2,w,HiDemNoTar,g,1,0.8101227863226086,,,,,,,,,,,,,,,,,,,,328,2023-11-10_13h25.21.151,leap3,2022.2.5,59.995610355266436,
,,,,,,,,,,,,,,,,,,,,5,0,5,0,19,0,19,0,,,,,,patio,w,g,upper,,,,,,,2,w,HiDemNoTar,g,1,0.6087867280002683,,,,,,,,,,,,,,,,,,,,328,2023-11-10_13h25.21.151,leap3,2022.2.5,59.995610355266436,
,,,,,,,,,,,,,,,,,,,,5,0,5,0,20,0,20,0,,,,,,trecious,nw,h,upper,,,,,,,2,nw,HiDemNoTar,h,1,1.1590185253880918,,,,,,,,,,,,,,,,,,,,328,2023-11-10_13h25.21.151,leap3,2022.2.5,59.995610355266436,
,,,,,,,,,,,,,,,,,,,,5,0,5,0,21,0,21,0,,,,,,ringlat,nw,h,upper,,,,,,,2,nw,HiDemNoTar,h,1,0.7762535309884697,,,,,,,,,,,,,,,,,,,,328,2023-11-10_13h25.21.151,leap3,2022.2.5,59.995610355266436,
,,,,,,,,,,,,,,,,,,,,5,0,5,0,22,0,22,0,,,,,,volition,w,g,upper,,,,,,,2,w,HiDemNoTar,g,1,0.8005658446345478,,,,,,,,,,,,,,,,,,,,328,2023-11-10_13h25.21.151,leap3,2022.2.5,59.995610355266436,
,,,,,,,,,,,,,,,,,,,,5,0,5,0,23,0,23,0,,,,,,dests,nw,h,upper,,,,,,,2,nw,HiDemNoTar,h,1,1.1981703024357557,,,,,,,,,,,,,,,,,,,,328,2023-11-10_13h25.21.151,leap3,2022.2.5,59.995610355266436,
,,,,,,,,,,,,,,,,,,,,5,0,5,0,24,0,24,0,,,,,,collute,nw,h,upper,,,,,,,2,nw,HiDemNoTar,h,1,1.0535471953917295,,,,,,,,,,,,,,,,,,,,328,2023-11-10_13h25.21.151,leap3,2022.2.5,59.995610355266436,
,,,,,,,,,,,,,,,,,,,,5,0,5,0,25,0,25,0,,,,,,filny,nw,h,upper,,,,,,,2,nw,HiDemNoTar,h,1,0.6902605900540948,,,,,,,,,,,,,,,,,,,,328,2023-11-10_13h25.21.151,leap3,2022.2.5,59.995610355266436,
,,,,,,,,,,,,,,,,,,,,5,0,5,0,26,0,26,0,,,,,,punctual,w,g,upper,,,,,,,2,w,HiDemNoTar,g,1,0.7015529903583229,,,,,,,,,,,,,,,,,,,,328,2023-11-10_13h25.21.151,leap3,2022.2.5,59.995610355266436,
,,,,,,,,,,,,,,,,,,,,5,0,5,0,27,0,27,0,,,,,,rumblos,nw,h,upper,,,,,,,2,nw,HiDemNoTar,h,1,0.8642646628431976,,,,,,,,,,,,,,,,,,,,328,2023-11-10_13h25.21.151,leap3,2022.2.5,59.995610355266436,
,,,,,,,,,,,,,,,,,,,,5,0,5,0,28,0,28,0,,,,,,ignoble,w,g,upper,,,,,,,2,w,HiDemNoTar,h,0,0.8770707061048597,,,,,,,,,,,,,,,,,,,,328,2023-11-10_13h25.21.151,leap3,2022.2.5,59.995610355266436,
,,,,,,,,,,,,,,,,,,,,5,0,5,0,29,0,29,0,,,,,,rowel,nw,h,upper,,,,,,,2,nw,HiDemNoTar,h,1,0.7450460628606379,,,,,,,,,,,,,,,,,,,,328,2023-11-10_13h25.21.151,leap3,2022.2.5,59.995610355266436,
,,,,,,,,,,,,,,,,,,,,5,0,5,0,,,,,,,,,,,,,,,,,,,,,,,,,,,NA,,,,,,,,,,,,,,,,,,328,2023-11-10_13h25.21.151,leap3,2022.2.5,59.995610355266436,
,,,,,,,,,,,,,,,,,,,,6,0,6,0,0,0,0,0,,,,,,iflaid,nw,h,lower,,,,,,,3,nw,LoDemNoTar,h,1,0.7695133164525032,,,,,,,,,,,,,,,,,,,,328,2023-11-10_13h25.21.151,leap3,2022.2.5,59.995610355266436,
,,,,,,,,,,,,,,,,,,,,6,0,6,0,1,0,1,0,,,,,,bloodless,w,g,lower,,,,,,,3,w,LoDemNoTar,g,1,1.0497207106091082,,,,,,,,,,,,,,,,,,,,328,2023-11-10_13h25.21.151,leap3,2022.2.5,59.995610355266436,
,,,,,,,,,,,,,,,,,,,,6,0,6,0,2,0,2,0,,,,,,rebool,nw,h,lower,,,,,,,3,nw,LoDemNoTar,h,1,0.7990210810676217,,,,,,,,,,,,,,,,,,,,328,2023-11-10_13h25.21.151,leap3,2022.2.5,59.995610355266436,
,,,,,,,,,,,,,,,,,,,,6,0,6,0,3,0,3,0,,,,,,gensions,nw,h,lower,,,,,,,3,nw,LoDemNoTar,h,1,0.8222733149304986,,,,,,,,,,,,,,,,,,,,328,2023-11-10_13h25.21.151,leap3,2022.2.5,59.995610355266436,
,,,,,,,,,,,,,,,,,,,,6,0,6,0,4,0,4,0,,,,,,knowledge,w,g,lower,,,,,,,3,w,LoDemNoTar,g,1,0.6603436251170933,,,,,,,,,,,,,,,,,,,,328,2023-11-10_13h25.21.151,leap3,2022.2.5,59.995610355266436,
,,,,,,,,,,,,,,,,,,,,6,0,6,0,5,0,5,0,,,,,,imotope,nw,h,lower,,,,,,,3,nw,LoDemNoTar,h,1,0.5851090718060732,,,,,,,,,,,,,,,,,,,,328,2023-11-10_13h25.21.151,leap3,2022.2.5,59.995610355266436,
,,,,,,,,,,,,,,,,,,,,6,0,6,0,6,0,6,0,,,,,,dariner,nw,h,lower,,,,,,,3,nw,LoDemNoTar,h,1,0.8473242414183915,,,,,,,,,,,,,,,,,,,,328,2023-11-10_13h25.21.151,leap3,2022.2.5,59.995610355266436,
,,,,,,,,,,,,,,,,,,,,6,0,6,0,7,0,7,0,,,,,,dislokes,nw,h,lower,,,,,,,3,nw,LoDemNoTar,h,1,0.916771394200623,,,,,,,,,,,,,,,,,,,,328,2023-11-10_13h25.21.151,leap3,2022.2.5,59.995610355266436,
,,,,,,,,,,,,,,,,,,,,6,0,6,0,8,0,8,0,,,,,,scrooner,nw,h,lower,,,,,,,3,nw,LoDemNoTar,h,1,1.0132999138440937,,,,,,,,,,,,,,,,,,,,328,2023-11-10_13h25.21.151,leap3,2022.2.5,59.995610355266436,
,,,,,,,,,,,,,,,,,,,,6,0,6,0,9,0,9,0,,,,,,rainfall,w,g,lower,,,,,,,3,w,LoDemNoTar,g,1,0.6621803906746209,,,,,,,,,,,,,,,,,,,,328,2023-11-10_13h25.21.151,leap3,2022.2.5,59.995610355266436,
,,,,,,,,,,,,,,,,,,,,6,0,6,0,10,0,10,0,,,,,,tenpince,nw,h,lower,,,,,,,3,nw,LoDemNoTar,h,1,0.6109307247679681,,,,,,,,,,,,,,,,,,,,328,2023-11-10_13h25.21.151,leap3,2022.2.5,59.995610355266436,
,,,,,,,,,,,,,,,,,,,,6,0,6,0,11,0,11,0,,,,,,dominion,w,g,lower,,,,,,,3,w,LoDemNoTar,h,0,1.3376204711385071,,,,,,,,,,,,,,,,,,,,328,2023-11-10_13h25.21.151,leap3,2022.2.5,59.995610355266436,
,,,,,,,,,,,,,,,,,,,,6,0,6,0,12,0,12,0,,,,,,border,w,g,lower,,,,,,,3,w,LoDemNoTar,h,0,2.8992135310545564,,,,,,,,,,,,,,,,,,,,328,2023-11-10_13h25.21.151,leap3,2022.2.5,59.995610355266436,
,,,,,,,,,,,,,,,,,,,,6,0,6,0,13,0,13,0,,,,,,elvisages,nw,h,lower,,,,,,,3,nw,LoDemNoTar,h,1,0.6694403819274157,,,,,,,,,,,,,,,,,,,,328,2023-11-10_13h25.21.151,leap3,2022.2.5,59.995610355266436,
,,,,,,,,,,,,,,,,,,,,6,0,6,0,14,0,14,0,,,,,,encounter,w,g,lower,,,,,,,3,w,LoDemNoTar,g,1,0.6255669123493135,,,,,,,,,,,,,,,,,,,,328,2023-11-10_13h25.21.151,leap3,2022.2.5,59.995610355266436,
,,,,,,,,,,,,,,,,,,,,6,0,6,0,15,0,15,0,,,,,,pammed,nw,h,lower,,,,,,,3,nw,LoDemNoTar,h,1,0.6075369459576905,,,,,,,,,,,,,,,,,,,,328,2023-11-10_13h25.21.151,leap3,2022.2.5,59.995610355266436,
,,,,,,,,,,,,,,,,,,,,6,0,6,0,16,0,16,0,,,,,,unbridled,w,g,lower,,,,,,,3,w,LoDemNoTar,h,0,1.126271590590477,,,,,,,,,,,,,,,,,,,,328,2023-11-10_13h25.21.151,leap3,2022.2.5,59.995610355266436,
,,,,,,,,,,,,,,,,,,,,6,0,6,0,17,0,17,0,,,,,,eugenifs,nw,h,lower,,,,,,,3,nw,LoDemNoTar,h,1,0.6402832185849547,,,,,,,,,,,,,,,,,,,,328,2023-11-10_13h25.21.151,leap3,2022.2.5,59.995610355266436,
,,,,,,,,,,,,,,,,,,,,6,0,6,0,18,0,18,0,,,,,,birn,nw,h,lower,,,,,,,3,nw,LoDemNoTar,h,1,0.629688378656283,,,,,,,,,,,,,,,,,,,,328,2023-11-10_13h25.21.151,leap3,2022.2.5,59.995610355266436,
,,,,,,,,,,,,,,,,,,,,6,0,6,0,19,0,19,0,,,,,,neuran,nw,h,lower,,,,,,,3,nw,LoDemNoTar,h,1,1.1558071649633348,,,,,,,,,,,,,,,,,,,,328,2023-11-10_13h25.21.151,leap3,2022.2.5,59.995610355266436,
,,,,,,,,,,,,,,,,,,,,6,0,6,0,20,0,20,0,,,,,,pretzel,w,g,lower,,,,,,,3,w,LoDemNoTar,g,1,0.6524661916773766,,,,,,,,,,,,,,,,,,,,328,2023-11-10_13h25.21.151,leap3,2022.2.5,59.995610355266436,
,,,,,,,,,,,,,,,,,,,,6,0,6,0,21,0,21,0,,,,,,cessation,w,g,lower,,,,,,,3,w,LoDemNoTar,h,0,0.9042066994588822,,,,,,,,,,,,,,,,,,,,328,2023-11-10_13h25.21.151,leap3,2022.2.5,59.995610355266436,
,,,,,,,,,,,,,,,,,,,,6,0,6,0,22,0,22,0,,,,,,graveyard,w,g,lower,,,,,,,3,w,LoDemNoTar,g,1,0.7708216973114759,,,,,,,,,,,,,,,,,,,,328,2023-11-10_13h25.21.151,leap3,2022.2.5,59.995610355266436,
,,,,,,,,,,,,,,,,,,,,6,0,6,0,23,0,23,0,,,,,,dredigest,nw,h,lower,,,,,,,3,nw,LoDemNoTar,h,1,0.810879276599735,,,,,,,,,,,,,,,,,,,,328,2023-11-10_13h25.21.151,leap3,2022.2.5,59.995610355266436,
,,,,,,,,,,,,,,,,,,,,6,0,6,0,24,0,24,0,,,,,,moral,w,g,lower,,,,,,,3,w,LoDemNoTar,g,1,0.6976000377908349,,,,,,,,,,,,,,,,,,,,328,2023-11-10_13h25.21.151,leap3,2022.2.5,59.995610355266436,
,,,,,,,,,,,,,,,,,,,,6,0,6,0,25,0,25,0,,,,,,alarm,w,g,lower,,,,,,,3,w,LoDemNoTar,g,1,0.668946759775281,,,,,,,,,,,,,,,,,,,,328,2023-11-10_13h25.21.151,leap3,2022.2.5,59.995610355266436,
,,,,,,,,,,,,,,,,,,,,6,0,6,0,26,0,26,0,,,,,,mustled,nw,h,lower,,,,,,,3,nw,LoDemNoTar,g,0,1.6730284974910319,,,,,,,,,,,,,,,,,,,,328,2023-11-10_13h25.21.151,leap3,2022.2.5,59.995610355266436,
,,,,,,,,,,,,,,,,,,,,6,0,6,0,27,0,27,0,,,,,,upstairs,w,g,lower,,,,,,,3,w,LoDemNoTar,g,1,0.628708085976541,,,,,,,,,,,,,,,,,,,,328,2023-11-10_13h25.21.151,leap3,2022.2.5,59.995610355266436,
,,,,,,,,,,,,,,,,,,,,6,0,6,0,28,0,28,0,,,,,,pocket,w,g,lower,,,,,,,3,w,LoDemNoTar,g,1,0.6030529602430761,,,,,,,,,,,,,,,,,,,,328,2023-11-10_13h25.21.151,leap3,2022.2.5,59.995610355266436,
,,,,,,,,,,,,,,,,,,,,6,0,6,0,29,0,29,0,,,,,,personify,w,g,lower,,,,,,,3,w,LoDemNoTar,g,1,1.0817389644216746,,,,,,,,,,,,,,,,,,,,328,2023-11-10_13h25.21.151,leap3,2022.2.5,59.995610355266436,
,,,,,,,,,,,,,,,,,,,,6,0,6,0,,,,,,,,,,,,,,,,,,,,,,,,,,,NA,,,,,,,,,,,,,,,,,,328,2023-11-10_13h25.21.151,leap3,2022.2.5,59.995610355266436,
,,,,,,,,,,,,,,,,,,,,7,0,7,0,0,0,0,0,,,,,,latirizes,nw,h,upper,,,,,,,1,nw,HiDemTar,h,1,0.7895048609934747,,,,,,,,,,,,,,,,,,,,328,2023-11-10_13h25.21.151,leap3,2022.2.5,59.995610355266436,
,,,,,,,,,,,,,,,,,,,,7,0,7,0,1,0,1,0,,,,,,contusiok,nw,h,upper,,,,,,,1,nw,HiDemTar,h,1,1.252357535297051,,,,,,,,,,,,,,,,,,,,328,2023-11-10_13h25.21.151,leap3,2022.2.5,59.995610355266436,
,,,,,,,,,,,,,,,,,,,,7,0,7,0,2,0,2,0,,,,,,restock,w,g,upper,,,,,,,1,w,HiDemTar,g,1,0.8331988917198032,,,,,,,,,,,,,,,,,,,,328,2023-11-10_13h25.21.151,leap3,2022.2.5,59.995610355266436,
,,,,,,,,,,,,,,,,,,,,7,0,7,0,3,0,3,0,,,,,,resent,w,g,upper,,,,,,,1,w,HiDemTar,g,1,1.5022665744181722,,,,,,,,,,,,,,,,,,,,328,2023-11-10_13h25.21.151,leap3,2022.2.5,59.995610355266436,
,,,,,,,,,,,,,,,,,,,,7,0,7,0,4,0,4,0,,,,,,innocent,w,g,upper,,,,,,,1,w,HiDemTar,g,1,0.6409509826917201,,,,,,,,,,,,,,,,,,,,328,2023-11-10_13h25.21.151,leap3,2022.2.5,59.995610355266436,
,,,,,,,,,,,,,,,,,,,,7,0,7,0,5,0,5,0,,,,,,kickoff,w,g,upper,,,,,,,1,w,HiDemTar,g,1,0.7502799178473651,,,,,,,,,,,,,,,,,,,,328,2023-11-10_13h25.21.151,leap3,2022.2.5,59.995610355266436,
,,,,,,,,,,,,,,,,,,,,7,0,7,0,6,0,6,0,,,,,,castaway,w,g,upper,,,,,,,1,w,HiDemTar,g,1,0.791653492487967,,,,,,,,,,,,,,,,,,,,328,2023-11-10_13h25.21.151,leap3,2022.2.5,59.995610355266436,
,,,,,,,,,,,,,,,,,,,,7,0,7,0,7,0,7,0,,,,,,marinate,w,g,upper,,,,,,,1,w,HiDemTar,g,1,0.8230466898530722,,,,,,,,,,,,,,,,,,,,328,2023-11-10_13h25.21.151,leap3,2022.2.5,59.995610355266436,
,,,,,,,,,,,,,,,,,,,,7,0,7,0,8,0,8,0,,,,,,carony,nw,h,upper,,,,,,,1,nw,HiDemTar,h,1,0.7971002242993563,,,,,,,,,,,,,,,,,,,,328,2023-11-10_13h25.21.151,leap3,2022.2.5,59.995610355266436,
,,,,,,,,,,,,,,,,,,,,7,0,7,0,9,0,9,0,,,,,,begut,nw,h,upper,,,,,,,1,nw,HiDemTar,h,1,0.516479988116771,,,,,,,,,,,,,,,,,,,,328,2023-11-10_13h25.21.151,leap3,2022.2.5,59.995610355266436,
,,,,,,,,,,,,,,,,,,,,7,0,7,0,10,0,10,0,,,,,,inversion,w,g,upper,,,,,,,1,w,HiDemTar,g,1,0.7104845442809165,,,,,,,,,,,,,,,,,,,,328,2023-11-10_13h25.21.151,leap3,2022.2.5,59.995610355266436,
,,,,,,,,,,,,,,,,,,,,7,0,7,0,11,0,11,0,,,,,,goltish,nw,h,upper,,,,,,,1,nw,HiDemTar,h,1,0.713228105334565,,,,,,,,,,,,,,,,,,,,328,2023-11-10_13h25.21.151,leap3,2022.2.5,59.995610355266436,
,,,,,,,,,,,,,,,,,,,,7,0,7,0,12,0,12,0,,,,,,gund,nw,h,upper,,,,,,,1,nw,HiDemTar,h,1,1.0349732839968055,,,,,,,,,,,,,,,,,,,,328,2023-11-10_13h25.21.151,leap3,2022.2.5,59.995610355266436,
,,,,,,,,,,,,,,,,,,,,7,0,7,0,13,0,13,0,,,,,,axis,w,g,upper,,,,,,,1,w,HiDemTar,g,1,0.75233055325225,,,,,,,,,,,,,,,,,,,,328,2023-11-10_13h25.21.151,leap3,2022.2.5,59.995610355266436,
,,,,,,,,,,,,,,,,,,,,7,0,7,0,14,0,14,0,,,,,,mantos,nw,h,upper,,,,,,,1,nw,HiDemTar,h,1,1.3210952091030777,,,,,,,,,,,,,,,,,,,,328,2023-11-10_13h25.21.151,leap3,2022.2.5,59.995610355266436,
,,,,,,,,,,,,,,,,,,,,7,0,7,0,15,0,15,0,,,,,,ensues,w,g,upper,,,,,,,1,w,HiDemTar,g,1,1.2185051646083593,,,,,,,,,,,,,,,,,,,,328,2023-11-10_13h25.21.151,leap3,2022.2.5,59.995610355266436,
,,,,,,,,,,,,,,,,,,,,7,0,7,0,16,0,16,0,,,,,,artifact,w,g,upper,,,,,,,1,w,HiDemTar,g,1,0.7284271086100489,,,,,,,,,,,,,,,,,,,,328,2023-11-10_13h25.21.151,leap3,2022.2.5,59.995610355266436,
,,,,,,,,,,,,,,,,,,,,7,0,7,0,17,0,17,0,,,,,,peadgear,nw,h,upper,,,,,,,1,nw,HiDemTar,h,1,0.8338861889205873,,,,,,,,,,,,,,,,,,,,328,2023-11-10_13h25.21.151,leap3,2022.2.5,59.995610355266436,
,,,,,,,,,,,,,,,,,,,,7,0,7,0,18,0,18,0,,,,,,defensa,nw,h,upper,,,,,,,1,nw,HiDemTar,h,1,0.727181630441919,,,,,,,,,,,,,,,,,,,,328,2023-11-10_13h25.21.151,leap3,2022.2.5,59.995610355266436,
,,,,,,,,,,,,,,,,,,,,7,0,7,0,19,0,19,0,,,,,,racile,nw,h,upper,,,,,,,1,nw,HiDemTar,h,1,0.5526067966129631,,,,,,,,,,,,,,,,,,,,328,2023-11-10_13h25.21.151,leap3,2022.2.5,59.995610355266436,
,,,,,,,,,,,,,,,,,,,,7,0,7,0,20,0,20,0,,,,,,bullet,w,g,upper,,,,,,,1,w,HiDemTar,g,1,0.7452311299275607,,,,,,,,,,,,,,,,,,,,328,2023-11-10_13h25.21.151,leap3,2022.2.5,59.995610355266436,
,,,,,,,,,,,,,,,,,,,,7,0,7,0,21,0,21,0,,,,,,dialect,w,g,upper,,,,,,,1,w,HiDemTar,g,1,1.0095532168634236,,,,,,,,,,,,,,,,,,,,328,2023-11-10_13h25.21.151,leap3,2022.2.5,59.995610355266436,
,,,,,,,,,,,,,,,,,,,,7,0,7,0,22,0,22,0,,,,,,endgume,nw,h,upper,,,,,,,1,nw,HiDemTar,h,1,1.255711916834116,,,,,,,,,,,,,,,,,,,,328,2023-11-10_13h25.21.151,leap3,2022.2.5,59.995610355266436,
,,,,,,,,,,,,,,,,,,,,7,0,7,0,23,0,23,0,,,,,,sefraud,nw,h,upper,,,,,,,1,nw,HiDemTar,h,1,0.8117479993961751,,,,,,,,,,,,,,,,,,,,328,2023-11-10_13h25.21.151,leap3,2022.2.5,59.995610355266436,
,,,,,,,,,,,,,,,,,,,,7,0,7,0,24,0,24,0,,,,,,golemic,nw,h,upper,,,,,,,1,nw,HiDemTar,h,1,0.9617933391127735,,,,,,,,,,,,,,,,,,,,328,2023-11-10_13h25.21.151,leap3,2022.2.5,59.995610355266436,
,,,,,,,,,,,,,,,,,,,,7,0,7,0,25,0,25,0,,,,,,retona,nw,h,upper,,,,,,,1,nw,HiDemTar,h,1,0.793874628143385,,,,,,,,,,,,,,,,,,,,328,2023-11-10_13h25.21.151,leap3,2022.2.5,59.995610355266436,
,,,,,,,,,,,,,,,,,,,,7,0,7,0,26,0,26,0,,,,,,kettle,w,g,upper,,,,,,,1,w,HiDemTar,g,1,0.8326642168685794,,,,,,,,,,,,,,,,,,,,328,2023-11-10_13h25.21.151,leap3,2022.2.5,59.995610355266436,
,,,,,,,,,,,,,,,,,,,,7,0,7,0,27,0,27,0,,,,,,coyote,target,q,upper,,,,,,,1,target,HiDemTar,q,1,1.166667852550745,1,,,,,,,,,,,,,,,,,,,328,2023-11-10_13h25.21.151,leap3,2022.2.5,59.995610355266436,
,,,,,,,,,,,,,,,,,,,,7,0,7,0,28,0,28,0,,,,,,insole,w,g,upper,,,,,,,1,aftertar1,HiDemTar,h,0,0.6057409017812461,,,,,,,,,,,,,,,,,,,,328,2023-11-10_13h25.21.151,leap3,2022.2.5,59.995610355266436,
,,,,,,,,,,,,,,,,,,,,7,0,7,0,29,0,29,0,,,,,,beartiset,nw,h,upper,,,,,,,1,aftertar2,HiDemTar,h,1,1.2676873104646802,,,,,,,,,,,,,,,,,,,,328,2023-11-10_13h25.21.151,leap3,2022.2.5,59.995610355266436,
,,,,,,,,,,,,,,,,,,,,7,0,7,0,,,,,,,,,,,,,,,,,,,,,,,,,,,1,,,,,,,,,,,,,,,,,,328,2023-11-10_13h25.21.151,leap3,2022.2.5,59.995610355266436,
,,,,,,,,,,,,,,,,,,,,8,0,8,0,0,0,0,0,,,,,,felevance,nw,h,lower,,,,,,,4,nw,LoDemTar,h,1,1.0239718926604837,,,,,,,,,,,,,,,,,,,,328,2023-11-10_13h25.21.151,leap3,2022.2.5,59.995610355266436,
,,,,,,,,,,,,,,,,,,,,8,0,8,0,1,0,1,0,,,,,,sazer,nw,h,lower,,,,,,,4,nw,LoDemTar,h,1,0.6853491952642798,,,,,,,,,,,,,,,,,,,,328,2023-11-10_13h25.21.151,leap3,2022.2.5,59.995610355266436,
,,,,,,,,,,,,,,,,,,,,8,0,8,0,2,0,2,0,,,,,,ufionize,nw,h,lower,,,,,,,4,nw,LoDemTar,h,1,0.8169444436207414,,,,,,,,,,,,,,,,,,,,328,2023-11-10_13h25.21.151,leap3,2022.2.5,59.995610355266436,
,,,,,,,,,,,,,,,,,,,,8,0,8,0,3,0,3,0,,,,,,frader,nw,h,lower,,,,,,,4,nw,LoDemTar,h,1,0.6457647122442722,,,,,,,,,,,,,,,,,,,,328,2023-11-10_13h25.21.151,leap3,2022.2.5,59.995610355266436,
,,,,,,,,,,,,,,,,,,,,8,0,8,0,4,0,4,0,,,,,,chrayed,nw,h,lower,,,,,,,4,nw,LoDemTar,h,1,0.5704791743773967,,,,,,,,,,,,,,,,,,,,328,2023-11-10_13h25.21.151,leap3,2022.2.5,59.995610355266436,
,,,,,,,,,,,,,,,,,,,,8,0,8,0,5,0,5,0,,,,,,mounting,w,g,lower,,,,,,,4,w,LoDemTar,g,1,0.7218302465043962,,,,,,,,,,,,,,,,,,,,328,2023-11-10_13h25.21.151,leap3,2022.2.5,59.995610355266436,
,,,,,,,,,,,,,,,,,,,,8,0,8,0,6,0,6,0,,,,,,bamps,nw,h,lower,,,,,,,4,nw,LoDemTar,h,1,0.7071407570037991,,,,,,,,,,,,,,,,,,,,328,2023-11-10_13h25.21.151,leap3,2022.2.5,59.995610355266436,
,,,,,,,,,,,,,,,,,,,,8,0,8,0,7,0,7,0,,,,,,tucker,w,g,lower,,,,,,,4,w,LoDemTar,g,1,1.3252381947822869,,,,,,,,,,,,,,,,,,,,328,2023-11-10_13h25.21.151,leap3,2022.2.5,59.995610355266436,
,,,,,,,,,,,,,,,,,,,,8,0,8,0,8,0,8,0,,,,,,urgent,w,g,lower,,,,,,,4,w,LoDemTar,g,1,1.3906946533825248,,,,,,,,,,,,,,,,,,,,328,2023-11-10_13h25.21.151,leap3,2022.2.5,59.995610355266436,
,,,,,,,,,,,,,,,,,,,,8,0,8,0,9,0,9,0,,,,,,serfume,nw,h,lower,,,,,,,4,nw,LoDemTar,h,1,0.7332338858395815,,,,,,,,,,,,,,,,,,,,328,2023-11-10_13h25.21.151,leap3,2022.2.5,59.995610355266436,
,,,,,,,,,,,,,,,,,,,,8,0,8,0,10,0,10,0,,,,,,cartles,nw,h,lower,,,,,,,4,nw,LoDemTar,h,1,0.7586549464613199,,,,,,,,,,,,,,,,,,,,328,2023-11-10_13h25.21.151,leap3,2022.2.5,59.995610355266436,
,,,,,,,,,,,,,,,,,,,,8,0,8,0,11,0,11,0,,,,,,gallon,w,g,lower,,,,,,,4,w,LoDemTar,g,1,0.8377259164117277,,,,,,,,,,,,,,,,,,,,328,2023-11-10_13h25.21.151,leap3,2022.2.5,59.995610355266436,
,,,,,,,,,,,,,,,,,,,,8,0,8,0,12,0,12,0,,,,,,nauling,nw,h,lower,,,,,,,4,nw,LoDemTar,h,1,0.8103644656948745,,,,,,,,,,,,,,,,,,,,328,2023-11-10_13h25.21.151,leap3,2022.2.5,59.995610355266436,
,,,,,,,,,,,,,,,,,,,,8,0,8,0,13,0,13,0,,,,,,inducing,w,g,lower,,,,,,,4,w,LoDemTar,g,1,0.8482542117126286,,,,,,,,,,,,,,,,,,,,328,2023-11-10_13h25.21.151,leap3,2022.2.5,59.995610355266436,
,,,,,,,,,,,,,,,,,,,,8,0,8,0,14,0,14,0,,,,,,disease,w,g,lower,,,,,,,4,w,LoDemTar,g,1,0.5652668387629092,,,,,,,,,,,,,,,,,,,,328,2023-11-10_13h25.21.151,leap3,2022.2.5,59.995610355266436,
,,,,,,,,,,,,,,,,,,,,8,0,8,0,15,0,15,0,,,,,,flamingo,target,q,lower,,,,,,,4,target,LoDemTar,q,1,0.8378308650571853,1,,,,,,,,,,,,,,,,,,,328,2023-11-10_13h25.21.151,leap3,2022.2.5,59.995610355266436,
,,,,,,,,,,,,,,,,,,,,8,0,8,0,16,0,16,0,,,,,,swatches,w,g,lower,,,,,,,4,aftertar1,LoDemTar,q,0,0.882604839745909,,,1,,,,,,,,,,,,,,,,,328,2023-11-10_13h25.21.151,leap3,2022.2.5,59.995610355266436,
,,,,,,,,,,,,,,,,,,,,8,0,8,0,17,0,17,0,,,,,,primal,w,g,lower,,,,,,,4,aftertar2,LoDemTar,g,1,1.2305931213777512,,,,,,,,,,,,,,,,,,,,328,2023-11-10_13h25.21.151,leap3,2022.2.5,59.995610355266436,
,,,,,,,,,,,,,,,,,,,,8,0,8,0,18,0,18,0,,,,,,fatho,nw,h,lower,,,,,,,4,aftertar3,LoDemTar,h,1,0.8359566887374967,,,,,,,,,,,,,,,,,,,,328,2023-11-10_13h25.21.151,leap3,2022.2.5,59.995610355266436,
,,,,,,,,,,,,,,,,,,,,8,0,8,0,19,0,19,0,,,,,,brudent,nw,h,lower,,,,,,,4,nw,LoDemTar,h,1,1.6718253963626921,,,,,,,,,,,,,,,,,,,,328,2023-11-10_13h25.21.151,leap3,2022.2.5,59.995610355266436,
,,,,,,,,,,,,,,,,,,,,8,0,8,0,20,0,20,0,,,,,,deakers,nw,h,lower,,,,,,,4,nw,LoDemTar,h,1,0.9551554245408624,,,,,,,,,,,,,,,,,,,,328,2023-11-10_13h25.21.151,leap3,2022.2.5,59.995610355266436,
,,,,,,,,,,,,,,,,,,,,8,0,8,0,21,0,21,0,,,,,,acoustic,w,g,lower,,,,,,,4,nw,LoDemTar,g,1,1.2111703518312424,,,,,,,,,,,,,,,,,,,,328,2023-11-10_13h25.21.151,leap3,2022.2.5,59.995610355266436,
,,,,,,,,,,,,,,,,,,,,8,0,8,0,22,0,22,0,,,,,,eyesight,w,g,lower,,,,,,,4,w,LoDemTar,g,1,0.6731473510153592,,,,,,,,,,,,,,,,,,,,328,2023-11-10_13h25.21.151,leap3,2022.2.5,59.995610355266436,
,,,,,,,,,,,,,,,,,,,,8,0,8,0,23,0,23,0,,,,,,overcoat,w,g,lower,,,,,,,4,w,LoDemTar,g,1,0.7326114778406918,,,,,,,,,,,,,,,,,,,,328,2023-11-10_13h25.21.151,leap3,2022.2.5,59.995610355266436,
,,,,,,,,,,,,,,,,,,,,8,0,8,0,24,0,24,0,,,,,,greft,nw,h,lower,,,,,,,4,w,LoDemTar,h,1,0.6859249228145927,,,,,,,,,,,,,,,,,,,,328,2023-11-10_13h25.21.151,leap3,2022.2.5,59.995610355266436,
,,,,,,,,,,,,,,,,,,,,8,0,8,0,25,0,25,0,,,,,,sording,nw,h,lower,,,,,,,4,nw,LoDemTar,h,1,0.5932990331202745,,,,,,,,,,,,,,,,,,,,328,2023-11-10_13h25.21.151,leap3,2022.2.5,59.995610355266436,
,,,,,,,,,,,,,,,,,,,,8,0,8,0,26,0,26,0,,,,,,railroad,w,g,lower,,,,,,,4,nw,LoDemTar,g,1,0.8240110911428928,,,,,,,,,,,,,,,,,,,,328,2023-11-10_13h25.21.151,leap3,2022.2.5,59.995610355266436,
,,,,,,,,,,,,,,,,,,,,8,0,8,0,27,0,27,0,,,,,,deficit,w,g,lower,,,,,,,4,w,LoDemTar,g,1,0.8124601265881211,,,,,,,,,,,,,,,,,,,,328,2023-11-10_13h25.21.151,leap3,2022.2.5,59.995610355266436,
,,,,,,,,,,,,,,,,,,,,8,0,8,0,28,0,28,0,,,,,,fuack,nw,h,lower,,,,,,,4,w,LoDemTar,h,1,0.6584482605103403,,,,,,,,,,,,,,,,,,,,328,2023-11-10_13h25.21.151,leap3,2022.2.5,59.995610355266436,
,,,,,,,,,,,,,,,,,,,,8,0,8,0,29,0,29,0,,,,,,statute,w,g,lower,,,,,,,4,nw,LoDemTar,g,1,0.9264902279246598,,,,,,,,,,,,,,,,,,,,328,2023-11-10_13h25.21.151,leap3,2022.2.5,59.995610355266436,
,,,,,,,,,,,,,,,,,,,,8,0,8,0,,,,,,,,,,,,,,,,,,,,,,,,,,,1,,,,,,,,,,,,,,,,,,328,2023-11-10_13h25.21.151,leap3,2022.2.5,59.995610355266436,
,,,,,,,,,,,,,,,,,,,,9,0,9,0,0,0,0,0,,,,,,joadbed,nw,h,lower,,,,,,,3,nw,LoDemNoTar,h,1,0.6303111175075173,,,,,,,,,,,,,,,,,,,,328,2023-11-10_13h25.21.151,leap3,2022.2.5,59.995610355266436,
,,,,,,,,,,,,,,,,,,,,9,0,9,0,1,0,1,0,,,,,,fassed,nw,h,lower,,,,,,,3,nw,LoDemNoTar,h,1,0.5820410640444607,,,,,,,,,,,,,,,,,,,,328,2023-11-10_13h25.21.151,leap3,2022.2.5,59.995610355266436,
,,,,,,,,,,,,,,,,,,,,9,0,9,0,2,0,2,0,,,,,,trocess,nw,h,lower,,,,,,,3,nw,LoDemNoTar,h,1,0.7164136420469731,,,,,,,,,,,,,,,,,,,,328,2023-11-10_13h25.21.151,leap3,2022.2.5,59.995610355266436,
,,,,,,,,,,,,,,,,,,,,9,0,9,0,3,0,3,0,,,,,,odacles,nw,h,lower,,,,,,,3,nw,LoDemNoTar,h,1,0.7744243799243122,,,,,,,,,,,,,,,,,,,,328,2023-11-10_13h25.21.151,leap3,2022.2.5,59.995610355266436,
,,,,,,,,,,,,,,,,,,,,9,0,9,0,4,0,4,0,,,,,,scrobby,nw,h,lower,,,,,,,3,nw,LoDemNoTar,h,1,0.8938336751889437,,,,,,,,,,,,,,,,,,,,328,2023-11-10_13h25.21.151,leap3,2022.2.5,59.995610355266436,
,,,,,,,,,,,,,,,,,,,,9,0,9,0,5,0,5,0,,,,,,peags,nw,h,lower,,,,,,,3,nw,LoDemNoTar,h,1,0.6252494181971997,,,,,,,,,,,,,,,,,,,,328,2023-11-10_13h25.21.151,leap3,2022.2.5,59.995610355266436,
,,,,,,,,,,,,,,,,,,,,9,0,9,0,6,0,6,0,,,,,,apticle,nw,h,lower,,,,,,,3,nw,LoDemNoTar,h,1,0.655528902541846,,,,,,,,,,,,,,,,,,,,328,2023-11-10_13h25.21.151,leap3,2022.2.5,59.995610355266436,
,,,,,,,,,,,,,,,,,,,,9,0,9,0,7,0,7,0,,,,,,mandate,w,g,lower,,,,,,,3,w,LoDemNoTar,g,1,0.7473377159330994,,,,,,,,,,,,,,,,,,,,328,2023-11-10_13h25.21.151,leap3,2022.2.5,59.995610355266436,
,,,,,,,,,,,,,,,,,,,,9,0,9,0,8,0,8,0,,,,,,ragtam,nw,h,lower,,,,,,,3,nw,LoDemNoTar,h,1,0.6839530812576413,,,,,,,,,,,,,,,,,,,,328,2023-11-10_13h25.21.151,leap3,2022.2.5,59.995610355266436,
,,,,,,,,,,,,,,,,,,,,9,0,9,0,9,0,9,0,,,,,,removable,w,g,lower,,,,,,,3,w,LoDemNoTar,g,1,0.7265416760928929,,,,,,,,,,,,,,,,,,,,328,2023-11-10_13h25.21.151,leap3,2022.2.5,59.995610355266436,
,,,,,,,,,,,,,,,,,,,,9,0,9,0,10,0,10,0,,,,,,derived,w,g,lower,,,,,,,3,w,LoDemNoTar,g,1,0.7528132502920926,,,,,,,,,,,,,,,,,,,,328,2023-11-10_13h25.21.151,leap3,2022.2.5,59.995610355266436,
,,,,,,,,,,,,,,,,,,,,9,0,9,0,11,0,11,0,,,,,,strenuous,w,g,lower,,,,,,,3,w,LoDemNoTar,g,1,0.7678265245631337,,,,,,,,,,,,,,,,,,,,328,2023-11-10_13h25.21.151,leap3,2022.2.5,59.995610355266436,
,,,,,,,,,,,,,,,,,,,,9,0,9,0,12,0,12,0,,,,,,ifling,nw,h,lower,,,,,,,3,nw,LoDemNoTar,h,1,0.6399071251507849,,,,,,,,,,,,,,,,,,,,328,2023-11-10_13h25.21.151,leap3,2022.2.5,59.995610355266436,
,,,,,,,,,,,,,,,,,,,,9,0,9,0,13,0,13,0,,,,,,sarlock,nw,h,lower,,,,,,,3,nw,LoDemNoTar,h,1,0.6926015722565353,,,,,,,,,,,,,,,,,,,,328,2023-11-10_13h25.21.151,leap3,2022.2.5,59.995610355266436,
,,,,,,,,,,,,,,,,,,,,9,0,9,0,14,0,14,0,,,,,,standard,w,g,lower,,,,,,,3,w,LoDemNoTar,g,1,0.9513120553456247,,,,,,,,,,,,,,,,,,,,328,2023-11-10_13h25.21.151,leap3,2022.2.5,59.995610355266436,
,,,,,,,,,,,,,,,,,,,,9,0,9,0,15,0,15,0,,,,,,fracture,w,g,lower,,,,,,,3,w,LoDemNoTar,g,1,0.888030051952228,,,,,,,,,,,,,,,,,,,,328,2023-11-10_13h25.21.151,leap3,2022.2.5,59.995610355266436,
,,,,,,,,,,,,,,,,,,,,9,0,9,0,16,0,16,0,,,,,,contain,w,g,lower,,,,,,,3,w,LoDemNoTar,g,1,0.6187270462978631,,,,,,,,,,,,,,,,,,,,328,2023-11-10_13h25.21.151,leap3,2022.2.5,59.995610355266436,
,,,,,,,,,,,,,,,,,,,,9,0,9,0,17,0,17,0,,,,,,walnut,w,g,lower,,,,,,,3,w,LoDemNoTar,g,1,1.0728133697994053,,,,,,,,,,,,,,,,,,,,328,2023-11-10_13h25.21.151,leap3,2022.2.5,59.995610355266436,
,,,,,,,,,,,,,,,,,,,,9,0,9,0,18,0,18,0,,,,,,tipoff,w,g,lower,,,,,,,3,w,LoDemNoTar,g,1,1.3481176460627466,,,,,,,,,,,,,,,,,,,,328,2023-11-10_13h25.21.151,leap3,2022.2.5,59.995610355266436,
,,,,,,,,,,,,,,,,,,,,9,0,9,0,19,0,19,0,,,,,,trake,nw,h,lower,,,,,,,3,nw,LoDemNoTar,h,1,0.676841739565134,,,,,,,,,,,,,,,,,,,,328,2023-11-10_13h25.21.151,leap3,2022.2.5,59.995610355266436,
,,,,,,,,,,,,,,,,,,,,9,0,9,0,20,0,20,0,,,,,,sooled,nw,h,lower,,,,,,,3,nw,LoDemNoTar,h,1,0.6159871271811426,,,,,,,,,,,,,,,,,,,,328,2023-11-10_13h25.21.151,leap3,2022.2.5,59.995610355266436,
,,,,,,,,,,,,,,,,,,,,9,0,9,0,21,0,21,0,,,,,,allained,nw,h,lower,,,,,,,3,nw,LoDemNoTar,h,1,1.0859352520201355,,,,,,,,,,,,,,,,,,,,328,2023-11-10_13h25.21.151,leap3,2022.2.5,59.995610355266436,
,,,,,,,,,,,,,,,,,,,,9,0,9,0,22,0,22,0,,,,,,enabled,w,g,lower,,,,,,,3,w,LoDemNoTar,g,1,0.6412962866015732,,,,,,,,,,,,,,,,,,,,328,2023-11-10_13h25.21.151,leap3,2022.2.5,59.995610355266436,
,,,,,,,,,,,,,,,,,,,,9,0,9,0,23,0,23,0,,,,,,apology,w,g,lower,,,,,,,3,w,LoDemNoTar,g,1,0.8220670595765114,,,,,,,,,,,,,,,,,,,,328,2023-11-10_13h25.21.151,leap3,2022.2.5,59.995610355266436,
,,,,,,,,,,,,,,,,,,,,9,0,9,0,24,0,24,0,,,,,,religious,w,g,lower,,,,,,,3,w,LoDemNoTar,g,1,0.6032787489239126,,,,,,,,,,,,,,,,,,,,328,2023-11-10_13h25.21.151,leap3,2022.2.5,59.995610355266436,
,,,,,,,,,,,,,,,,,,,,9,0,9,0,25,0,25,0,,,,,,corduroy,w,g,lower,,,,,,,3,w,LoDemNoTar,h,0,1.216866708593443,,,,,,,,,,,,,,,,,,,,328,2023-11-10_13h25.21.151,leap3,2022.2.5,59.995610355266436,
,,,,,,,,,,,,,,,,,,,,9,0,9,0,26,0,26,0,,,,,,troven,nw,h,lower,,,,,,,3,nw,LoDemNoTar,h,1,0.9274930329993367,,,,,,,,,,,,,,,,,,,,328,2023-11-10_13h25.21.151,leap3,2022.2.5,59.995610355266436,
,,,,,,,,,,,,,,,,,,,,9,0,9,0,27,0,27,0,,,,,,slooping,nw,h,lower,,,,,,,3,nw,LoDemNoTar,h,1,0.7439578422345221,,,,,,,,,,,,,,,,,,,,328,2023-11-10_13h25.21.151,leap3,2022.2.5,59.995610355266436,
,,,,,,,,,,,,,,,,,,,,9,0,9,0,28,0,28,0,,,,,,parent,w,g,lower,,,,,,,3,w,LoDemNoTar,g,1,0.6400941784959286,,,,,,,,,,,,,,,,,,,,328,2023-11-10_13h25.21.151,leap3,2022.2.5,59.995610355266436,
,,,,,,,,,,,,,,,,,,,,9,0,9,0,29,0,29,0,,,,,,oppose,w,g,lower,,,,,,,3,w,LoDemNoTar,g,1,0.7093039555475116,,,,,,,,,,,,,,,,,,,,328,2023-11-10_13h25.21.151,leap3,2022.2.5,59.995610355266436,
,,,,,,,,,,,,,,,,,,,,9,0,9,0,,,,,,,,,,,,,,,,,,,,,,,,,,,NA,,,,,,,,,,,,,,,,,,328,2023-11-10_13h25.21.151,leap3,2022.2.5,59.995610355266436,
,,,,,,,,,,,,,,,,,,,,10,0,10,0,0,0,0,0,,,,,,splinging,nw,h,upper,,,,,,,1,nw,HiDemTar,h,1,0.9361839008051902,,,,,,,,,,,,,,,,,,,,328,2023-11-10_13h25.21.151,leap3,2022.2.5,59.995610355266436,
,,,,,,,,,,,,,,,,,,,,10,0,10,0,1,0,1,0,,,,,,boutique,w,g,upper,,,,,,,1,w,HiDemTar,g,1,0.912882006727159,,,,,,,,,,,,,,,,,,,,328,2023-11-10_13h25.21.151,leap3,2022.2.5,59.995610355266436,
,,,,,,,,,,,,,,,,,,,,10,0,10,0,2,0,2,0,,,,,,scarlet,w,g,upper,,,,,,,1,w,HiDemTar,g,1,0.6979287883732468,,,,,,,,,,,,,,,,,,,,328,2023-11-10_13h25.21.151,leap3,2022.2.5,59.995610355266436,
,,,,,,,,,,,,,,,,,,,,10,0,10,0,3,0,3,0,,,,,,duplex,w,g,upper,,,,,,,1,w,HiDemTar,g,1,0.6765805268660188,,,,,,,,,,,,,,,,,,,,328,2023-11-10_13h25.21.151,leap3,2022.2.5,59.995610355266436,
,,,,,,,,,,,,,,,,,,,,10,0,10,0,4,0,4,0,,,,,,hecture,nw,h,upper,,,,,,,1,nw,HiDemTar,h,1,1.344172639073804,,,,,,,,,,,,,,,,,,,,328,2023-11-10_13h25.21.151,leap3,2022.2.5,59.995610355266436,
,,,,,,,,,,,,,,,,,,,,10,0,10,0,5,0,5,0,,,,,,uncorked,w,g,upper,,,,,,,1,w,HiDemTar,g,1,1.4495522631332278,,,,,,,,,,,,,,,,,,,,328,2023-11-10_13h25.21.151,leap3,2022.2.5,59.995610355266436,
,,,,,,,,,,,,,,,,,,,,10,0,10,0,6,0,6,0,,,,,,farochial,nw,h,upper,,,,,,,1,nw,HiDemTar,h,1,0.9741199959535152,,,,,,,,,,,,,,,,,,,,328,2023-11-10_13h25.21.151,leap3,2022.2.5,59.995610355266436,
,,,,,,,,,,,,,,,,,,,,10,0,10,0,7,0,7,0,,,,,,mullet,w,g,upper,,,,,,,1,w,HiDemTar,g,1,0.7014960465021431,,,,,,,,,,,,,,,,,,,,328,2023-11-10_13h25.21.151,leap3,2022.2.5,59.995610355266436,
,,,,,,,,,,,,,,,,,,,,10,0,10,0,8,0,8,0,,,,,,arpired,nw,h,upper,,,,,,,1,nw,HiDemTar,h,1,1.1362797780893743,,,,,,,,,,,,,,,,,,,,328,2023-11-10_13h25.21.151,leap3,2022.2.5,59.995610355266436,
,,,,,,,,,,,,,,,,,,,,10,0,10,0,9,0,9,0,,,,,,reses,nw,h,upper,,,,,,,1,nw,HiDemTar,h,1,0.8407035423442721,,,,,,,,,,,,,,,,,,,,328,2023-11-10_13h25.21.151,leap3,2022.2.5,59.995610355266436,
,,,,,,,,,,,,,,,,,,,,10,0,10,0,10,0,10,0,,,,,,ebince,nw,h,upper,,,,,,,1,nw,HiDemTar,h,1,0.8201968560460955,,,,,,,,,,,,,,,,,,,,328,2023-11-10_13h25.21.151,leap3,2022.2.5,59.995610355266436,
,,,,,,,,,,,,,,,,,,,,10,0,10,0,11,0,11,0,,,,,,trallion,nw,h,upper,,,,,,,1,nw,HiDemTar,h,1,1.0333116536494344,,,,,,,,,,,,,,,,,,,,328,2023-11-10_13h25.21.151,leap3,2022.2.5,59.995610355266436,
,,,,,,,,,,,,,,,,,,,,10,0,10,0,12,0,12,0,,,,,,huntry,nw,h,upper,,,,,,,1,nw,HiDemTar,h,1,1.2707685609348118,,,,,,,,,,,,,,,,,,,,328,2023-11-10_13h25.21.151,leap3,2022.2.5,59.995610355266436,
,,,,,,,,,,,,,,,,,,,,10,0,10,0,13,0,13,0,,,,,,infancy,w,g,upper,,,,,,,1,w,HiDemTar,g,1,0.9220261061564088,,,,,,,,,,,,,,,,,,,,328,2023-11-10_13h25.21.151,leap3,2022.2.5,59.995610355266436,
,,,,,,,,,,,,,,,,,,,,10,0,10,0,14,0,14,0,,,,,,educate,w,g,upper,,,,,,,1,w,HiDemTar,g,1,0.6336373582016677,,,,,,,,,,,,,,,,,,,,328,2023-11-10_13h25.21.151,leap3,2022.2.5,59.995610355266436,
,,,,,,,,,,,,,,,,,,,,10,0,10,0,15,0,15,0,,,,,,monkey,target,q,upper,,,,,,,1,target,HiDemTar,q,1,0.8408472260925919,1,,,,,,,,,,,,,,,,,,,328,2023-11-10_13h25.21.151,leap3,2022.2.5,59.995610355266436,
,,,,,,,,,,,,,,,,,,,,10,0,10,0,16,0,16,0,,,,,,omission,w,g,upper,,,,,,,1,aftertar1,HiDemTar,g,1,0.7415602472610772,,,,,,,,,,,,,,,,,,,,328,2023-11-10_13h25.21.151,leap3,2022.2.5,59.995610355266436,
,,,,,,,,,,,,,,,,,,,,10,0,10,0,17,0,17,0,,,,,,hasks,nw,h,upper,,,,,,,1,aftertar2,HiDemTar,h,1,1.094355968059972,,,,,,,,,,,,,,,,,,,,328,2023-11-10_13h25.21.151,leap3,2022.2.5,59.995610355266436,
,,,,,,,,,,,,,,,,,,,,10,0,10,0,18,0,18,0,,,,,,athcan,nw,h,upper,,,,,,,1,aftertar3,HiDemTar,h,1,0.8080522865056992,,,,,,,,,,,,,,,,,,,,328,2023-11-10_13h25.21.151,leap3,2022.2.5,59.995610355266436,
,,,,,,,,,,,,,,,,,,,,10,0,10,0,19,0,19,0,,,,,,prillway,nw,h,upper,,,,,,,1,nw,HiDemTar,h,1,0.7259275447577238,,,,,,,,,,,,,,,,,,,,328,2023-11-10_13h25.21.151,leap3,2022.2.5,59.995610355266436,
,,,,,,,,,,,,,,,,,,,,10,0,10,0,20,0,20,0,,,,,,epic,w,g,upper,,,,,,,1,nw,HiDemTar,g,1,1.599413197953254,,,,,,,,,,,,,,,,,,,,328,2023-11-10_13h25.21.151,leap3,2022.2.5,59.995610355266436,
,,,,,,,,,,,,,,,,,,,,10,0,10,0,21,0,21,0,,,,,,trophy,w,g,upper,,,,,,,1,w,HiDemTar,g,1,1.1819870336912572,,,,,,,,,,,,,,,,,,,,328,2023-11-10_13h25.21.151,leap3,2022.2.5,59.995610355266436,
,,,,,,,,,,,,,,,,,,,,10,0,10,0,22,0,22,0,,,,,,inverted,w,g,upper,,,,,,,1,w,HiDemTar,g,1,0.7093973166774958,,,,,,,,,,,,,,,,,,,,328,2023-11-10_13h25.21.151,leap3,2022.2.5,59.995610355266436,
,,,,,,,,,,,,,,,,,,,,10,0,10,0,23,0,23,0,,,,,,acting,w,g,upper,,,,,,,1,w,HiDemTar,g,1,0.5194000082556158,,,,,,,,,,,,,,,,,,,,328,2023-11-10_13h25.21.151,leap3,2022.2.5,59.995610355266436,
,,,,,,,,,,,,,,,,,,,,10,0,10,0,24,0,24,0,,,,,,podges,nw,h,upper,,,,,,,1,w,HiDemTar,h,1,0.6807417212985456,,,,,,,,,,,,,,,,,,,,328,2023-11-10_13h25.21.151,leap3,2022.2.5,59.995610355266436,
,,,,,,,,,,,,,,,,,,,,10,0,10,0,25,0,25,0,,,,,,posing,w,g,upper,,,,,,,1,nw,HiDemTar,g,1,0.8690790543332696,,,,,,,,,,,,,,,,,,,,328,2023-11-10_13h25.21.151,leap3,2022.2.5,59.995610355266436,
,,,,,,,,,,,,,,,,,,,,10,0,10,0,26,0,26,0,,,,,,incidonts,nw,h,upper,,,,,,,1,w,HiDemTar,h,1,1.599944231333211,,,,,,,,,,,,,,,,,,,,328,2023-11-10_13h25.21.151,leap3,2022.2.5,59.995610355266436,
,,,,,,,,,,,,,,,,,,,,10,0,10,0,27,0,27,0,,,,,,nopping,nw,h,upper,,,,,,,1,nw,HiDemTar,h,1,0.8385767613071948,,,,,,,,,,,,,,,,,,,,328,2023-11-10_13h25.21.151,leap3,2022.2.5,59.995610355266436,
,,,,,,,,,,,,,,,,,,,,10,0,10,0,28,0,28,0,,,,,,gaining,w,g,upper,,,,,,,1,nw,HiDemTar,g,1,0.9312993225175887,,,,,,,,,,,,,,,,,,,,328,2023-11-10_13h25.21.151,leap3,2022.2.5,59.995610355266436,
,,,,,,,,,,,,,,,,,,,,10,0,10,0,29,0,29,0,,,,,,function,w,g,upper,,,,,,,1,w,HiDemTar,g,1,0.8127087587490678,,,,,,,,,,,,,,,,,,,,328,2023-11-10_13h25.21.151,leap3,2022.2.5,59.995610355266436,
,,,,,,,,,,,,,,,,,,,,10,0,10,0,,,,,,,,,,,,,,,,,,,,,,,,,,,1,,,,,,,,,,,,,,,,,,328,2023-11-10_13h25.21.151,leap3,2022.2.5,59.995610355266436,
,,,,,,,,,,,,,,,,,,,,11,0,11,0,0,0,0,0,,,,,,riosk,nw,h,upper,,,,,,,1,nw,HiDemTar,h,1,0.8184481547214091,,,,,,,,,,,,,,,,,,,,328,2023-11-10_13h25.21.151,leap3,2022.2.5,59.995610355266436,
,,,,,,,,,,,,,,,,,,,,11,0,11,0,1,0,1,0,,,,,,fonducts,nw,h,upper,,,,,,,1,nw,HiDemTar,h,1,1.6405255601275712,,,,,,,,,,,,,,,,,,,,328,2023-11-10_13h25.21.151,leap3,2022.2.5,59.995610355266436,
,,,,,,,,,,,,,,,,,,,,11,0,11,0,2,0,2,0,,,,,,computer,w,g,upper,,,,,,,1,w,HiDemTar,g,1,0.6052350299432874,,,,,,,,,,,,,,,,,,,,328,2023-11-10_13h25.21.151,leap3,2022.2.5,59.995610355266436,
,,,,,,,,,,,,,,,,,,,,11,0,11,0,3,0,3,0,,,,,,chraps,nw,h,upper,,,,,,,1,nw,HiDemTar,h,1,0.6748473856132478,,,,,,,,,,,,,,,,,,,,328,2023-11-10_13h25.21.151,leap3,2022.2.5,59.995610355266436,
,,,,,,,,,,,,,,,,,,,,11,0,11,0,4,0,4,0,,,,,,intended,w,g,upper,,,,,,,1,w,HiDemTar,g,1,0.6385464353952557,,,,,,,,,,,,,,,,,,,,328,2023-11-10_13h25.21.151,leap3,2022.2.5,59.995610355266436,
,,,,,,,,,,,,,,,,,,,,11,0,11,0,5,0,5,0,,,,,,handcuff,w,g,upper,,,,,,,1,w,HiDemTar,g,1,0.7713163129519671,,,,,,,,,,,,,,,,,,,,328,2023-11-10_13h25.21.151,leap3,2022.2.5,59.995610355266436,
,,,,,,,,,,,,,,,,,,,,11,0,11,0,6,0,6,0,,,,,,showdown,w,g,upper,,,,,,,1,w,HiDemTar,g,1,0.8669350575655699,,,,,,,,,,,,,,,,,,,,328,2023-11-10_13h25.21.151,leap3,2022.2.5,59.995610355266436,
,,,,,,,,,,,,,,,,,,,,11,0,11,0,7,0,7,0,,,,,,chappef,nw,h,upper,,,,,,,1,nw,HiDemTar,h,1,0.7265860391780734,,,,,,,,,,,,,,,,,,,,328,2023-11-10_13h25.21.151,leap3,2022.2.5,59.995610355266436,
,,,,,,,,,,,,,,,,,,,,11,0,11,0,8,0,8,0,,,,,,bengths,nw,h,upper,,,,,,,1,nw,HiDemTar,h,1,0.9109641294926405,,,,,,,,,,,,,,,,,,,,328,2023-11-10_13h25.21.151,leap3,2022.2.5,59.995610355266436,
,,,,,,,,,,,,,,,,,,,,11,0,11,0,9,0,9,0,,,,,,thamp,nw,h,upper,,,,,,,1,nw,HiDemTar,h,1,0.9049466366413981,,,,,,,,,,,,,,,,,,,,328,2023-11-10_13h25.21.151,leap3,2022.2.5,59.995610355266436,
,,,,,,,,,,,,,,,,,,,,11,0,11,0,10,0,10,0,,,,,,elpousal,nw,h,upper,,,,,,,1,nw,HiDemTar,h,1,0.9390320791862905,,,,,,,,,,,,,,,,,,,,328,2023-11-10_13h25.21.151,leap3,2022.2.5,59.995610355266436,
,,,,,,,,,,,,,,,,,,,,11,0,11,0,11,0,11,0,,,,,,sustain,w,g,upper,,,,,,,1,w,HiDemTar,g,1,0.6514521304052323,,,,,,,,,,,,,,,,,,,,328,2023-11-10_13h25.21.151,leap3,2022.2.5,59.995610355266436,
,,,,,,,,,,,,,,,,,,,,11,0,11,0,12,0,12,0,,,,,,ements,nw,h,upper,,,,,,,1,nw,HiDemTar,h,1,0.8961730017326772,,,,,,,,,,,,,,,,,,,,328,2023-11-10_13h25.21.151,leap3,2022.2.5,59.995610355266436,
,,,,,,,,,,,,,,,,,,,,11,0,11,0,13,0,13,0,,,,,,achieve,w,g,upper,,,,,,,1,w,HiDemTar,g,1,0.6192819161806256,,,,,,,,,,,,,,,,,,,,328,2023-11-10_13h25.21.151,leap3,2022.2.5,59.995610355266436,
,,,,,,,,,,,,,,,,,,,,11,0,11,0,14,0,14,0,,,,,,fomes,nw,h,upper,,,,,,,1,nw,HiDemTar,h,1,0.6009798119775951,,,,,,,,,,,,,,,,,,,,328,2023-11-10_13h25.21.151,leap3,2022.2.5,59.995610355266436,
,,,,,,,,,,,,,,,,,,,,11,0,11,0,15,0,15,0,,,,,,season,w,g,upper,,,,,,,1,w,HiDemTar,g,1,0.54359744139947,,,,,,,,,,,,,,,,,,,,328,2023-11-10_13h25.21.151,leap3,2022.2.5,59.995610355266436,
,,,,,,,,,,,,,,,,,,,,11,0,11,0,16,0,16,0,,,,,,plogging,nw,h,upper,,,,,,,1,nw,HiDemTar,h,1,0.6563529307022691,,,,,,,,,,,,,,,,,,,,328,2023-11-10_13h25.21.151,leap3,2022.2.5,59.995610355266436,
,,,,,,,,,,,,,,,,,,,,11,0,11,0,17,0,17,0,,,,,,supplier,w,g,upper,,,,,,,1,w,HiDemTar,g,1,0.7392970658838749,,,,,,,,,,,,,,,,,,,,328,2023-11-10_13h25.21.151,leap3,2022.2.5,59.995610355266436,
,,,,,,,,,,,,,,,,,,,,11,0,11,0,18,0,18,0,,,,,,presently,w,g,upper,,,,,,,1,w,HiDemTar,g,1,1.1164944886695594,,,,,,,,,,,,,,,,,,,,328,2023-11-10_13h25.21.151,leap3,2022.2.5,59.995610355266436,
,,,,,,,,,,,,,,,,,,,,11,0,11,0,19,0,19,0,,,,,,gazes,w,g,upper,,,,,,,1,w,HiDemTar,g,1,0.6630007773637772,,,,,,,,,,,,,,,,,,,,328,2023-11-10_13h25.21.151,leap3,2022.2.5,59.995610355266436,
,,,,,,,,,,,,,,,,,,,,11,0,11,0,20,0,20,0,,,,,,surround,w,g,upper,,,,,,,1,w,HiDemTar,g,1,0.5628434207756072,,,,,,,,,,,,,,,,,,,,328,2023-11-10_13h25.21.151,leap3,2022.2.5,59.995610355266436,
,,,,,,,,,,,,,,,,,,,,11,0,11,0,21,0,21,0,,,,,,cooray,nw,h,upper,,,,,,,1,nw,HiDemTar,h,1,0.8748449357226491,,,,,,,,,,,,,,,,,,,,328,2023-11-10_13h25.21.151,leap3,2022.2.5,59.995610355266436,
,,,,,,,,,,,,,,,,,,,,11,0,11,0,22,0,22,0,,,,,,burning,w,g,upper,,,,,,,1,w,HiDemTar,g,1,0.5984646882861853,,,,,,,,,,,,,,,,,,,,328,2023-11-10_13h25.21.151,leap3,2022.2.5,59.995610355266436,
,,,,,,,,,,,,,,,,,,,,11,0,11,0,23,0,23,0,,,,,,tharcely,nw,h,upper,,,,,,,1,nw,HiDemTar,h,1,0.7970167950261384,,,,,,,,,,,,,,,,,,,,328,2023-11-10_13h25.21.151,leap3,2022.2.5,59.995610355266436,
,,,,,,,,,,,,,,,,,,,,11,0,11,0,24,0,24,0,,,,,,butterfly,target,q,upper,,,,,,,1,target,HiDemTar,q,1,1.0596014368347824,1,,,,,,,,,,,,,,,,,,,328,2023-11-10_13h25.21.151,leap3,2022.2.5,59.995610355266436,
,,,,,,,,,,,,,,,,,,,,11,0,11,0,25,0,25,0,,,,,,gerby,nw,h,upper,,,,,,,1,aftertar1,HiDemTar,h,1,0.9186723870225251,,,,,,,,,,,,,,,,,,,,328,2023-11-10_13h25.21.151,leap3,2022.2.5,59.995610355266436,
,,,,,,,,,,,,,,,,,,,,11,0,11,0,26,0,26,0,,,,,,cogantly,nw,h,upper,,,,,,,1,aftertar2,HiDemTar,h,1,1.2888101146090776,,,,,,,,,,,,,,,,,,,,328,2023-11-10_13h25.21.151,leap3,2022.2.5,59.995610355266436,
,,,,,,,,,,,,,,,,,,,,11,0,11,0,27,0,27,0,,,,,,chemical,w,g,upper,,,,,,,1,aftertar3,HiDemTar,g,1,0.6911101106088609,,,,,,,,,,,,,,,,,,,,328,2023-11-10_13h25.21.151,leap3,2022.2.5,59.995610355266436,
,,,,,,,,,,,,,,,,,,,,11,0,11,0,28,0,28,0,,,,,,warmer,w,g,upper,,,,,,,1,w,HiDemTar,g,1,0.854129345389083,,,,,,,,,,,,,,,,,,,,328,2023-11-10_13h25.21.151,leap3,2022.2.5,59.995610355266436,
,,,,,,,,,,,,,,,,,,,,11,0,11,0,29,0,29,0,,,,,,refebs,nw,h,upper,,,,,,,1,w,HiDemTar,h,1,0.714153109351173,,,,,,,,,,,,,,,,,,,,328,2023-11-10_13h25.21.151,leap3,2022.2.5,59.995610355266436,
,,,,,,,,,,,,,,,,,,,,11,0,11,0,,,,,,,,,,,,,,,,,,,,,,,,,,,1,,,,,,,,,,,,,,,,,,328,2023-11-10_13h25.21.151,leap3,2022.2.5,59.995610355266436,
,,,,,,,,,,,,,,,,,,,,12,0,12,0,0,0,0,0,,,,,,soluced,nw,h,upper,,,,,,,1,nw,HiDemTar,h,1,2.6435637718532234,,,,,,,,,,,,,,,,,,,,328,2023-11-10_13h25.21.151,leap3,2022.2.5,59.995610355266436,
,,,,,,,,,,,,,,,,,,,,12,0,12,0,1,0,1,0,,,,,,squadroim,nw,h,upper,,,,,,,1,nw,HiDemTar,h,1,0.8802420070860535,,,,,,,,,,,,,,,,,,,,328,2023-11-10_13h25.21.151,leap3,2022.2.5,59.995610355266436,
,,,,,,,,,,,,,,,,,,,,12,0,12,0,2,0,2,0,,,,,,party,w,g,upper,,,,,,,1,w,HiDemTar,g,1,0.6595901141408831,,,,,,,,,,,,,,,,,,,,328,2023-11-10_13h25.21.151,leap3,2022.2.5,59.995610355266436,
,,,,,,,,,,,,,,,,,,,,12,0,12,0,3,0,3,0,,,,,,imprives,nw,h,upper,,,,,,,1,nw,HiDemTar,h,1,1.9037230089306831,,,,,,,,,,,,,,,,,,,,328,2023-11-10_13h25.21.151,leap3,2022.2.5,59.995610355266436,
,,,,,,,,,,,,,,,,,,,,12,0,12,0,4,0,4,0,,,,,,unversed,w,g,upper,,,,,,,1,w,HiDemTar,g,1,2.2097821834031492,,,,,,,,,,,,,,,,,,,,328,2023-11-10_13h25.21.151,leap3,2022.2.5,59.995610355266436,
,,,,,,,,,,,,,,,,,,,,12,0,12,0,5,0,5,0,,,,,,graciap,nw,h,upper,,,,,,,1,nw,HiDemTar,h,1,0.9588607382029295,,,,,,,,,,,,,,,,,,,,328,2023-11-10_13h25.21.151,leap3,2022.2.5,59.995610355266436,
,,,,,,,,,,,,,,,,,,,,12,0,12,0,6,0,6,0,,,,,,amms,nw,h,upper,,,,,,,1,nw,HiDemTar,h,1,0.6548478952609003,,,,,,,,,,,,,,,,,,,,328,2023-11-10_13h25.21.151,leap3,2022.2.5,59.995610355266436,
,,,,,,,,,,,,,,,,,,,,12,0,12,0,7,0,7,0,,,,,,atsless,nw,h,upper,,,,,,,1,nw,HiDemTar,h,1,0.7549128842074424,,,,,,,,,,,,,,,,,,,,328,2023-11-10_13h25.21.151,leap3,2022.2.5,59.995610355266436,
,,,,,,,,,,,,,,,,,,,,12,0,12,0,8,0,8,0,,,,,,favoting,nw,h,upper,,,,,,,1,nw,HiDemTar,h,1,1.219011036446318,,,,,,,,,,,,,,,,,,,,328,2023-11-10_13h25.21.151,leap3,2022.2.5,59.995610355266436,
,,,,,,,,,,,,,,,,,,,,12,0,12,0,9,0,9,0,,,,,,robbery,w,g,upper,,,,,,,1,w,HiDemTar,g,1,0.7207509647123516,,,,,,,,,,,,,,,,,,,,328,2023-11-10_13h25.21.151,leap3,2022.2.5,59.995610355266436,
,,,,,,,,,,,,,,,,,,,,12,0,12,0,10,0,10,0,,,,,,sunshine,w,g,upper,,,,,,,1,w,HiDemTar,g,1,0.5621339417994022,,,,,,,,,,,,,,,,,,,,328,2023-11-10_13h25.21.151,leap3,2022.2.5,59.995610355266436,
,,,,,,,,,,,,,,,,,,,,12,0,12,0,11,0,11,0,,,,,,twarfs,nw,h,upper,,,,,,,1,nw,HiDemTar,h,1,0.7780879789497703,,,,,,,,,,,,,,,,,,,,328,2023-11-10_13h25.21.151,leap3,2022.2.5,59.995610355266436,
,,,,,,,,,,,,,,,,,,,,12,0,12,0,12,0,12,0,,,,,,aggepting,nw,h,upper,,,,,,,1,nw,HiDemTar,h,1,0.8495152497198433,,,,,,,,,,,,,,,,,,,,328,2023-11-10_13h25.21.151,leap3,2022.2.5,59.995610355266436,
,,,,,,,,,,,,,,,,,,,,12,0,12,0,13,0,13,0,,,,,,stalemate,w,g,upper,,,,,,,1,w,HiDemTar,h,0,1.990202619927004,,,,,,,,,,,,,,,,,,,,328,2023-11-10_13h25.21.151,leap3,2022.2.5,59.995610355266436,
,,,,,,,,,,,,,,,,,,,,12,0,12,0,14,0,14,0,,,,,,unlined,w,g,upper,,,,,,,1,w,HiDemTar,g,1,1.2763096468988806,,,,,,,,,,,,,,,,,,,,328,2023-11-10_13h25.21.151,leap3,2022.2.5,59.995610355266436,
,,,,,,,,,,,,,,,,,,,,12,0,12,0,15,0,15,0,,,,,,joses,nw,h,upper,,,,,,,1,nw,HiDemTar,h,1,0.7679364392533898,,,,,,,,,,,,,,,,,,,,328,2023-11-10_13h25.21.151,leap3,2022.2.5,59.995610355266436,
,,,,,,,,,,,,,,,,,,,,12,0,12,0,16,0,16,0,,,,,,implode,w,g,upper,,,,,,,1,w,HiDemTar,g,1,0.920067838858813,,,,,,,,,,,,,,,,,,,,328,2023-11-10_13h25.21.151,leap3,2022.2.5,59.995610355266436,
,,,,,,,,,,,,,,,,,,,,12,0,12,0,17,0,17,0,,,,,,emotion,w,g,upper,,,,,,,1,w,HiDemTar,g,1,0.6654563089832664,,,,,,,,,,,,,,,,,,,,328,2023-11-10_13h25.21.151,leap3,2022.2.5,59.995610355266436,
,,,,,,,,,,,,,,,,,,,,12,0,12,0,18,0,18,0,,,,,,airmen,w,g,upper,,,,,,,1,w,HiDemTar,g,1,0.7735417524818331,,,,,,,,,,,,,,,,,,,,328,2023-11-10_13h25.21.151,leap3,2022.2.5,59.995610355266436,
,,,,,,,,,,,,,,,,,,,,12,0,12,0,19,0,19,0,,,,,,togglo,nw,h,upper,,,,,,,1,nw,HiDemTar,h,1,0.7248886530287564,,,,,,,,,,,,,,,,,,,,328,2023-11-10_13h25.21.151,leap3,2022.2.5,59.995610355266436,
,,,,,,,,,,,,,,,,,,,,12,0,12,0,20,0,20,0,,,,,,grolific,nw,h,upper,,,,,,,1,nw,HiDemTar,h,1,1.0222625881433487,,,,,,,,,,,,,,,,,,,,328,2023-11-10_13h25.21.151,leap3,2022.2.5,59.995610355266436,
,,,,,,,,,,,,,,,,,,,,12,0,12,0,21,0,21,0,,,,,,fraft,nw,h,upper,,,,,,,1,nw,HiDemTar,h,1,0.715645233169198,,,,,,,,,,,,,,,,,,,,328,2023-11-10_13h25.21.151,leap3,2022.2.5,59.995610355266436,
,,,,,,,,,,,,,,,,,,,,12,0,12,0,22,0,22,0,,,,,,regional,w,g,upper,,,,,,,1,w,HiDemTar,g,1,1.0286843152716756,,,,,,,,,,,,,,,,,,,,328,2023-11-10_13h25.21.151,leap3,2022.2.5,59.995610355266436,
,,,,,,,,,,,,,,,,,,,,12,0,12,0,23,0,23,0,,,,,,expired,w,g,upper,,,,,,,1,w,HiDemTar,g,1,0.6340442409273237,,,,,,,,,,,,,,,,,,,,328,2023-11-10_13h25.21.151,leap3,2022.2.5,59.995610355266436,
,,,,,,,,,,,,,,,,,,,,12,0,12,0,24,0,24,0,,,,,,dolphin,target,q,upper,,,,,,,1,target,HiDemTar,q,1,0.7995696610305458,1,,,,,,,,,,,,,,,,,,,328,2023-11-10_13h25.21.151,leap3,2022.2.5,59.995610355266436,
,,,,,,,,,,,,,,,,,,,,12,0,12,0,25,0,25,0,,,,,,dialogues,w,g,upper,,,,,,,1,aftertar1,HiDemTar,g,1,0.9107916429638863,,,,,,,,,,,,,,,,,,,,328,2023-11-10_13h25.21.151,leap3,2022.2.5,59.995610355266436,
,,,,,,,,,,,,,,,,,,,,12,0,12,0,26,0,26,0,,,,,,entropy,w,g,upper,,,,,,,1,aftertar2,HiDemTar,g,1,2.6175861856900156,,,,,,,,,,,,,,,,,,,,328,2023-11-10_13h25.21.151,leap3,2022.2.5,59.995610355266436,
,,,,,,,,,,,,,,,,,,,,12,0,12,0,27,0,27,0,,,,,,cabinet,w,g,upper,,,,,,,1,aftertar3,HiDemTar,g,1,0.6950157205574214,,,,,,,,,,,,,,,,,,,,328,2023-11-10_13h25.21.151,leap3,2022.2.5,59.995610355266436,
,,,,,,,,,,,,,,,,,,,,12,0,12,0,28,0,28,0,,,,,,elormity,nw,h,upper,,,,,,,1,w,HiDemTar,h,1,0.977660768898204,,,,,,,,,,,,,,,,,,,,328,2023-11-10_13h25.21.151,leap3,2022.2.5,59.995610355266436,
,,,,,,,,,,,,,,,,,,,,12,0,12,0,29,0,29,0,,,,,,porghum,nw,h,upper,,,,,,,1,nw,HiDemTar,h,1,0.5200863124337047,,,,,,,,,,,,,,,,,,,,328,2023-11-10_13h25.21.151,leap3,2022.2.5,59.995610355266436,
,,,,,,,,,,,,,,,,,,,,12,0,12,0,,,,,,,,,,,,,,,,,,,,,,,,,,,1,,,,,,,,,,,,,,,,,,328,2023-11-10_13h25.21.151,leap3,2022.2.5,59.995610355266436,
,,,,,,,,,,,,,,,,,,,,13,0,13,0,0,0,0,0,,,,,,thorifies,nw,h,lower,,,,,,,3,nw,LoDemNoTar,h,1,0.7381005859933794,,,,,,,,,,,,,,,,,,,,328,2023-11-10_13h25.21.151,leap3,2022.2.5,59.995610355266436,
,,,,,,,,,,,,,,,,,,,,13,0,13,0,1,0,1,0,,,,,,afford,w,g,lower,,,,,,,3,w,LoDemNoTar,g,1,0.5547915145289153,,,,,,,,,,,,,,,,,,,,328,2023-11-10_13h25.21.151,leap3,2022.2.5,59.995610355266436,
,,,,,,,,,,,,,,,,,,,,13,0,13,0,2,0,2,0,,,,,,gablus,nw,h,lower,,,,,,,3,nw,LoDemNoTar,h,1,0.7707667401991785,,,,,,,,,,,,,,,,,,,,328,2023-11-10_13h25.21.151,leap3,2022.2.5,59.995610355266436,
,,,,,,,,,,,,,,,,,,,,13,0,13,0,3,0,3,0,,,,,,hostade,nw,h,lower,,,,,,,3,nw,LoDemNoTar,h,1,0.994232380297035,,,,,,,,,,,,,,,,,,,,328,2023-11-10_13h25.21.151,leap3,2022.2.5,59.995610355266436,
,,,,,,,,,,,,,,,,,,,,13,0,13,0,4,0,4,0,,,,,,rodeo,w,g,lower,,,,,,,3,w,LoDemNoTar,g,1,0.9999423110857606,,,,,,,,,,,,,,,,,,,,328,2023-11-10_13h25.21.151,leap3,2022.2.5,59.995610355266436,
,,,,,,,,,,,,,,,,,,,,13,0,13,0,5,0,5,0,,,,,,sopes,nw,h,lower,,,,,,,3,nw,LoDemNoTar,h,1,0.7746511613950133,,,,,,,,,,,,,,,,,,,,328,2023-11-10_13h25.21.151,leap3,2022.2.5,59.995610355266436,
,,,,,,,,,,,,,,,,,,,,13,0,13,0,6,0,6,0,,,,,,sonnet,w,g,lower,,,,,,,3,w,LoDemNoTar,g,1,1.8377090317662805,,,,,,,,,,,,,,,,,,,,328,2023-11-10_13h25.21.151,leap3,2022.2.5,59.995610355266436,
,,,,,,,,,,,,,,,,,,,,13,0,13,0,7,0,7,0,,,,,,cripet,nw,h,lower,,,,,,,3,nw,LoDemNoTar,h,1,0.8988443901762366,,,,,,,,,,,,,,,,,,,,328,2023-11-10_13h25.21.151,leap3,2022.2.5,59.995610355266436,
,,,,,,,,,,,,,,,,,,,,13,0,13,0,8,0,8,0,,,,,,carbled,nw,h,lower,,,,,,,3,nw,LoDemNoTar,h,1,1.0615808928851038,,,,,,,,,,,,,,,,,,,,328,2023-11-10_13h25.21.151,leap3,2022.2.5,59.995610355266436,
,,,,,,,,,,,,,,,,,,,,13,0,13,0,9,0,9,0,,,,,,yash,nw,h,lower,,,,,,,3,nw,LoDemNoTar,h,1,1.6576967360451818,,,,,,,,,,,,,,,,,,,,328,2023-11-10_13h25.21.151,leap3,2022.2.5,59.995610355266436,
,,,,,,,,,,,,,,,,,,,,13,0,13,0,10,0,10,0,,,,,,entitle,w,g,lower,,,,,,,3,w,LoDemNoTar,g,1,0.8937853390816599,,,,,,,,,,,,,,,,,,,,328,2023-11-10_13h25.21.151,leap3,2022.2.5,59.995610355266436,
,,,,,,,,,,,,,,,,,,,,13,0,13,0,11,0,11,0,,,,,,army,w,g,lower,,,,,,,3,w,LoDemNoTar,g,1,0.7834112222772092,,,,,,,,,,,,,,,,,,,,328,2023-11-10_13h25.21.151,leap3,2022.2.5,59.995610355266436,
,,,,,,,,,,,,,,,,,,,,13,0,13,0,12,0,12,0,,,,,,curtail,w,g,lower,,,,,,,3,w,LoDemNoTar,h,0,2.206804226152599,,,,,,,,,,,,,,,,,,,,328,2023-11-10_13h25.21.151,leap3,2022.2.5,59.995610355266436,
,,,,,,,,,,,,,,,,,,,,13,0,13,0,13,0,13,0,,,,,,brials,nw,h,lower,,,,,,,3,nw,LoDemNoTar,g,0,2.844911086373031,,,,,,,,,,,,,,,,,,,,328,2023-11-10_13h25.21.151,leap3,2022.2.5,59.995610355266436,
,,,,,,,,,,,,,,,,,,,,13,0,13,0,14,0,14,0,,,,,,peanimate,nw,h,lower,,,,,,,3,nw,LoDemNoTar,h,1,0.7295659827068448,,,,,,,,,,,,,,,,,,,,328,2023-11-10_13h25.21.151,leap3,2022.2.5,59.995610355266436,
,,,,,,,,,,,,,,,,,,,,13,0,13,0,15,0,15,0,,,,,,fravity,nw,h,lower,,,,,,,3,nw,LoDemNoTar,h,1,0.6507979398593307,,,,,,,,,,,,,,,,,,,,328,2023-11-10_13h25.21.151,leap3,2022.2.5,59.995610355266436,
,,,,,,,,,,,,,,,,,,,,13,0,13,0,16,0,16,0,,,,,,ebciting,nw,h,lower,,,,,,,3,nw,LoDemNoTar,h,1,0.630688866134733,,,,,,,,,,,,,,,,,,,,328,2023-11-10_13h25.21.151,leap3,2022.2.5,59.995610355266436,
,,,,,,,,,,,,,,,,,,,,13,0,13,0,17,0,17,0,,,,,,pressures,w,g,lower,,,,,,,3,w,LoDemNoTar,g,1,0.8671717713586986,,,,,,,,,,,,,,,,,,,,328,2023-11-10_13h25.21.151,leap3,2022.2.5,59.995610355266436,
,,,,,,,,,,,,,,,,,,,,13,0,13,0,18,0,18,0,,,,,,ireology,nw,h,lower,,,,,,,3,nw,LoDemNoTar,h,1,1.6464453879743814,,,,,,,,,,,,,,,,,,,,328,2023-11-10_13h25.21.151,leap3,2022.2.5,59.995610355266436,
,,,,,,,,,,,,,,,,,,,,13,0,13,0,19,0,19,0,,,,,,enacted,w,g,lower,,,,,,,3,w,LoDemNoTar,g,1,0.7391113368794322,,,,,,,,,,,,,,,,,,,,328,2023-11-10_13h25.21.151,leap3,2022.2.5,59.995610355266436,
,,,,,,,,,,,,,,,,,,,,13,0,13,0,20,0,20,0,,,,,,revising,w,g,lower,,,,,,,3,w,LoDemNoTar,h,0,4.467994409380481,,,,,,,,,,,,,,,,,,,,328,2023-11-10_13h25.21.151,leap3,2022.2.5,59.995610355266436,
,,,,,,,,,,,,,,,,,,,,13,0,13,0,21,0,21,0,,,,,,roughly,w,g,lower,,,,,,,3,w,LoDemNoTar,g,1,2.543353113112971,,,,,,,,,,,,,,,,,,,,328,2023-11-10_13h25.21.151,leap3,2022.2.5,59.995610355266436,
,,,,,,,,,,,,,,,,,,,,13,0,13,0,22,0,22,0,,,,,,monopoly,w,g,lower,,,,,,,3,w,LoDemNoTar,g,1,1.3041153906378895,,,,,,,,,,,,,,,,,,,,328,2023-11-10_13h25.21.151,leap3,2022.2.5,59.995610355266436,
,,,,,,,,,,,,,,,,,,,,13,0,13,0,23,0,23,0,,,,,,ronvince,nw,h,lower,,,,,,,3,nw,LoDemNoTar,h,1,0.865107893012464,,,,,,,,,,,,,,,,,,,,328,2023-11-10_13h25.21.151,leap3,2022.2.5,59.995610355266436,
,,,,,,,,,,,,,,,,,,,,13,0,13,0,24,0,24,0,,,,,,jiggling,w,g,lower,,,,,,,3,w,LoDemNoTar,g,1,1.8611857299692929,,,,,,,,,,,,,,,,,,,,328,2023-11-10_13h25.21.151,leap3,2022.2.5,59.995610355266436,
,,,,,,,,,,,,,,,,,,,,13,0,13,0,25,0,25,0,,,,,,anonymous,w,g,lower,,,,,,,3,w,LoDemNoTar,g,1,1.0735437059774995,,,,,,,,,,,,,,,,,,,,328,2023-11-10_13h25.21.151,leap3,2022.2.5,59.995610355266436,
,,,,,,,,,,,,,,,,,,,,13,0,13,0,26,0,26,0,,,,,,acidic,w,g,lower,,,,,,,3,w,LoDemNoTar,g,1,0.7727538105100393,,,,,,,,,,,,,,,,,,,,328,2023-11-10_13h25.21.151,leap3,2022.2.5,59.995610355266436,
,,,,,,,,,,,,,,,,,,,,13,0,13,0,27,0,27,0,,,,,,yellep,nw,h,lower,,,,,,,3,nw,LoDemNoTar,h,1,0.7480137567035854,,,,,,,,,,,,,,,,,,,,328,2023-11-10_13h25.21.151,leap3,2022.2.5,59.995610355266436,
,,,,,,,,,,,,,,,,,,,,13,0,13,0,28,0,28,0,,,,,,finstrel,nw,h,lower,,,,,,,3,nw,LoDemNoTar,h,1,0.7567698447965086,,,,,,,,,,,,,,,,,,,,328,2023-11-10_13h25.21.151,leap3,2022.2.5,59.995610355266436,
,,,,,,,,,,,,,,,,,,,,13,0,13,0,29,0,29,0,,,,,,calcify,w,g,lower,,,,,,,3,w,LoDemNoTar,h,0,1.2208355525508523,,,,,,,,,,,,,,,,,,,,328,2023-11-10_13h25.21.151,leap3,2022.2.5,59.995610355266436,
,,,,,,,,,,,,,,,,,,,,13,0,13,0,,,,,,,,,,,,,,,,,,,,,,,,,,,NA,,,,,,,,,,,,,,,,,,328,2023-11-10_13h25.21.151,leap3,2022.2.5,59.995610355266436,
,,,,,,,,,,,,,,,,,,,,14,0,14,0,0,0,0,0,,,,,,congraks,nw,h,lower,,,,,,,3,nw,LoDemNoTar,h,1,0.6579526518471539,,,,,,,,,,,,,,,,,,,,328,2023-11-10_13h25.21.151,leap3,2022.2.5,59.995610355266436,
,,,,,,,,,,,,,,,,,,,,14,0,14,0,1,0,1,0,,,,,,atch,nw,h,lower,,,,,,,3,nw,LoDemNoTar,h,1,0.5580502175725996,,,,,,,,,,,,,,,,,,,,328,2023-11-10_13h25.21.151,leap3,2022.2.5,59.995610355266436,
,,,,,,,,,,,,,,,,,,,,14,0,14,0,2,0,2,0,,,,,,mabit,nw,h,lower,,,,,,,3,nw,LoDemNoTar,h,1,0.6701243687421083,,,,,,,,,,,,,,,,,,,,328,2023-11-10_13h25.21.151,leap3,2022.2.5,59.995610355266436,
,,,,,,,,,,,,,,,,,,,,14,0,14,0,3,0,3,0,,,,,,snocks,nw,h,lower,,,,,,,3,nw,LoDemNoTar,h,1,1.4335236032493412,,,,,,,,,,,,,,,,,,,,328,2023-11-10_13h25.21.151,leap3,2022.2.5,59.995610355266436,
,,,,,,,,,,,,,,,,,,,,14,0,14,0,4,0,4,0,,,,,,ubefully,nw,h,lower,,,,,,,3,nw,LoDemNoTar,h,1,0.662893180269748,,,,,,,,,,,,,,,,,,,,328,2023-11-10_13h25.21.151,leap3,2022.2.5,59.995610355266436,
,,,,,,,,,,,,,,,,,,,,14,0,14,0,5,0,5,0,,,,,,suddenly,w,g,lower,,,,,,,3,w,LoDemNoTar,g,1,0.6899877898395061,,,,,,,,,,,,,,,,,,,,328,2023-11-10_13h25.21.151,leap3,2022.2.5,59.995610355266436,
,,,,,,,,,,,,,,,,,,,,14,0,14,0,6,0,6,0,,,,,,rootsie,nw,h,lower,,,,,,,3,nw,LoDemNoTar,h,1,0.9245693711563945,,,,,,,,,,,,,,,,,,,,328,2023-11-10_13h25.21.151,leap3,2022.2.5,59.995610355266436,
,,,,,,,,,,,,,,,,,,,,14,0,14,0,7,0,7,0,,,,,,colicky,w,g,lower,,,,,,,3,w,LoDemNoTar,h,0,0.6859411450568587,,,,,,,,,,,,,,,,,,,,328,2023-11-10_13h25.21.151,leap3,2022.2.5,59.995610355266436,
,,,,,,,,,,,,,,,,,,,,14,0,14,0,8,0,8,0,,,,,,cookbook,w,g,lower,,,,,,,3,w,LoDemNoTar,g,1,1.0967691231053323,,,,,,,,,,,,,,,,,,,,328,2023-11-10_13h25.21.151,leap3,2022.2.5,59.995610355266436,
,,,,,,,,,,,,,,,,,,,,14,0,14,0,9,0,9,0,,,,,,recollect,w,g,lower,,,,,,,3,w,LoDemNoTar,g,1,0.731296144425869,,,,,,,,,,,,,,,,,,,,328,2023-11-10_13h25.21.151,leap3,2022.2.5,59.995610355266436,
,,,,,,,,,,,,,,,,,,,,14,0,14,0,10,0,10,0,,,,,,glates,nw,h,lower,,,,,,,3,nw,LoDemNoTar,h,1,0.9087906675413251,,,,,,,,,,,,,,,,,,,,328,2023-11-10_13h25.21.151,leap3,2022.2.5,59.995610355266436,
,,,,,,,,,,,,,,,,,,,,14,0,14,0,11,0,11,0,,,,,,addma,nw,h,lower,,,,,,,3,nw,LoDemNoTar,h,1,0.766844576690346,,,,,,,,,,,,,,,,,,,,328,2023-11-10_13h25.21.151,leap3,2022.2.5,59.995610355266436,
,,,,,,,,,,,,,,,,,,,,14,0,14,0,12,0,12,0,,,,,,splatter,w,g,lower,,,,,,,3,w,LoDemNoTar,g,1,0.6868115230463445,,,,,,,,,,,,,,,,,,,,328,2023-11-10_13h25.21.151,leap3,2022.2.5,59.995610355266436,
,,,,,,,,,,,,,,,,,,,,14,0,14,0,13,0,13,0,,,,,,gigglod,nw,h,lower,,,,,,,3,nw,LoDemNoTar,h,1,0.9679538535419852,,,,,,,,,,,,,,,,,,,,328,2023-11-10_13h25.21.151,leap3,2022.2.5,59.995610355266436,
,,,,,,,,,,,,,,,,,,,,14,0,14,0,14,0,14,0,,,,,,befriend,w,g,lower,,,,,,,3,w,LoDemNoTar,g,1,0.7997964425012469,,,,,,,,,,,,,,,,,,,,328,2023-11-10_13h25.21.151,leap3,2022.2.5,59.995610355266436,
,,,,,,,,,,,,,,,,,,,,14,0,14,0,15,0,15,0,,,,,,comment,w,g,lower,,,,,,,3,w,LoDemNoTar,g,1,0.7587201667483896,,,,,,,,,,,,,,,,,,,,328,2023-11-10_13h25.21.151,leap3,2022.2.5,59.995610355266436,
,,,,,,,,,,,,,,,,,,,,14,0,14,0,16,0,16,0,,,,,,intrude,w,g,lower,,,,,,,3,w,LoDemNoTar,g,1,0.7828109958209097,,,,,,,,,,,,,,,,,,,,328,2023-11-10_13h25.21.151,leap3,2022.2.5,59.995610355266436,
,,,,,,,,,,,,,,,,,,,,14,0,14,0,17,0,17,0,,,,,,alticles,nw,h,lower,,,,,,,3,nw,LoDemNoTar,h,1,2.374168729176745,,,,,,,,,,,,,,,,,,,,328,2023-11-10_13h25.21.151,leap3,2022.2.5,59.995610355266436,
,,,,,,,,,,,,,,,,,,,,14,0,14,0,18,0,18,0,,,,,,combat,w,g,lower,,,,,,,3,w,LoDemNoTar,g,1,0.6775541978422552,,,,,,,,,,,,,,,,,,,,328,2023-11-10_13h25.21.151,leap3,2022.2.5,59.995610355266436,
,,,,,,,,,,,,,,,,,,,,14,0,14,0,19,0,19,0,,,,,,reconcile,w,g,lower,,,,,,,3,w,LoDemNoTar,g,1,0.7609260731842369,,,,,,,,,,,,,,,,,,,,328,2023-11-10_13h25.21.151,leap3,2022.2.5,59.995610355266436,
,,,,,,,,,,,,,,,,,,,,14,0,14,0,20,0,20,0,,,,,,spigat,nw,h,lower,,,,,,,3,nw,LoDemNoTar,h,1,0.9449737574905157,,,,,,,,,,,,,,,,,,,,328,2023-11-10_13h25.21.151,leap3,2022.2.5,59.995610355266436,
,,,,,,,,,,,,,,,,,,,,14,0,14,0,21,0,21,0,,,,,,aligning,w,g,lower,,,,,,,3,w,LoDemNoTar,g,1,0.7767034524586052,,,,,,,,,,,,,,,,,,,,328,2023-11-10_13h25.21.151,leap3,2022.2.5,59.995610355266436,
,,,,,,,,,,,,,,,,,,,,14,0,14,0,22,0,22,0,,,,,,maunches,nw,h,lower,,,,,,,3,nw,LoDemNoTar,h,1,1.0961391006130725,,,,,,,,,,,,,,,,,,,,328,2023-11-10_13h25.21.151,leap3,2022.2.5,59.995610355266436,
,,,,,,,,,,,,,,,,,,,,14,0,14,0,23,0,23,0,,,,,,triangle,w,g,lower,,,,,,,3,w,LoDemNoTar,g,1,0.7308002044446766,,,,,,,,,,,,,,,,,,,,328,2023-11-10_13h25.21.151,leap3,2022.2.5,59.995610355266436,
,,,,,,,,,,,,,,,,,,,,14,0,14,0,24,0,24,0,,,,,,susher,nw,h,lower,,,,,,,3,nw,LoDemNoTar,h,1,0.9881784699391574,,,,,,,,,,,,,,,,,,,,328,2023-11-10_13h25.21.151,leap3,2022.2.5,59.995610355266436,
,,,,,,,,,,,,,,,,,,,,14,0,14,0,25,0,25,0,,,,,,presence,w,g,lower,,,,,,,3,w,LoDemNoTar,g,1,0.6748550001066178,,,,,,,,,,,,,,,,,,,,328,2023-11-10_13h25.21.151,leap3,2022.2.5,59.995610355266436,
,,,,,,,,,,,,,,,,,,,,14,0,14,0,26,0,26,0,,,,,,bother,w,g,lower,,,,,,,3,w,LoDemNoTar,g,1,0.9422437702305615,,,,,,,,,,,,,,,,,,,,328,2023-11-10_13h25.21.151,leap3,2022.2.5,59.995610355266436,
,,,,,,,,,,,,,,,,,,,,14,0,14,0,27,0,27,0,,,,,,scack,nw,h,lower,,,,,,,3,nw,LoDemNoTar,h,1,1.0309842452406883,,,,,,,,,,,,,,,,,,,,328,2023-11-10_13h25.21.151,leap3,2022.2.5,59.995610355266436,
,,,,,,,,,,,,,,,,,,,,14,0,14,0,28,0,28,0,,,,,,paying,w,g,lower,,,,,,,3,w,LoDemNoTar,g,1,0.844362506410107,,,,,,,,,,,,,,,,,,,,328,2023-11-10_13h25.21.151,leap3,2022.2.5,59.995610355266436,
,,,,,,,,,,,,,,,,,,,,14,0,14,0,29,0,29,0,,,,,,efcorted,nw,h,lower,,,,,,,3,nw,LoDemNoTar,h,1,0.9600052405148745,,,,,,,,,,,,,,,,,,,,328,2023-11-10_13h25.21.151,leap3,2022.2.5,59.995610355266436,
,,,,,,,,,,,,,,,,,,,,14,0,14,0,,,,,,,,,,,,,,,,,,,,,,,,,,,NA,,,,,,,,,,,,,,,,,,328,2023-11-10_13h25.21.151,leap3,2022.2.5,59.995610355266436,
,,,,,,,,,,,,,,,,,,,,15,0,15,0,0,0,0,0,,,,,,amkles,nw,h,upper,,,,,,,2,nw,HiDemNoTar,h,1,0.9045665704179555,,,,,,,,,,,,,,,,,,,,328,2023-11-10_13h25.21.151,leap3,2022.2.5,59.995610355266436,
,,,,,,,,,,,,,,,,,,,,15,0,15,0,1,0,1,0,,,,,,actively,w,g,upper,,,,,,,2,w,HiDemNoTar,g,1,0.7546966965310276,,,,,,,,,,,,,,,,,,,,328,2023-11-10_13h25.21.151,leap3,2022.2.5,59.995610355266436,
,,,,,,,,,,,,,,,,,,,,15,0,15,0,2,0,2,0,,,,,,egcused,nw,h,upper,,,,,,,2,nw,HiDemNoTar,h,1,0.6908217503223568,,,,,,,,,,,,,,,,,,,,328,2023-11-10_13h25.21.151,leap3,2022.2.5,59.995610355266436,
,,,,,,,,,,,,,,,,,,,,15,0,15,0,3,0,3,0,,,,,,migmarole,nw,h,upper,,,,,,,2,nw,HiDemNoTar,h,1,0.6935663043987006,,,,,,,,,,,,,,,,,,,,328,2023-11-10_13h25.21.151,leap3,2022.2.5,59.995610355266436,
,,,,,,,,,,,,,,,,,,,,15,0,15,0,4,0,4,0,,,,,,nores,nw,h,upper,,,,,,,2,nw,HiDemNoTar,h,1,0.6152147452812642,,,,,,,,,,,,,,,,,,,,328,2023-11-10_13h25.21.151,leap3,2022.2.5,59.995610355266436,
,,,,,,,,,,,,,,,,,,,,15,0,15,0,5,0,5,0,,,,,,fidelity,w,g,upper,,,,,,,2,w,HiDemNoTar,g,1,1.1973029039800167,,,,,,,,,,,,,,,,,,,,328,2023-11-10_13h25.21.151,leap3,2022.2.5,59.995610355266436,
,,,,,,,,,,,,,,,,,,,,15,0,15,0,6,0,6,0,,,,,,jinds,nw,h,upper,,,,,,,2,nw,HiDemNoTar,h,1,0.7000035918317735,,,,,,,,,,,,,,,,,,,,328,2023-11-10_13h25.21.151,leap3,2022.2.5,59.995610355266436,
,,,,,,,,,,,,,,,,,,,,15,0,15,0,7,0,7,0,,,,,,deserve,w,g,upper,,,,,,,2,w,HiDemNoTar,g,1,0.6626644122879952,,,,,,,,,,,,,,,,,,,,328,2023-11-10_13h25.21.151,leap3,2022.2.5,59.995610355266436,
,,,,,,,,,,,,,,,,,,,,15,0,15,0,8,0,8,0,,,,,,pexts,nw,h,upper,,,,,,,2,nw,HiDemNoTar,h,1,0.6987266622018069,,,,,,,,,,,,,,,,,,,,328,2023-11-10_13h25.21.151,leap3,2022.2.5,59.995610355266436,
,,,,,,,,,,,,,,,,,,,,15,0,15,0,9,0,9,0,,,,,,dileting,nw,h,upper,,,,,,,2,nw,HiDemNoTar,h,1,0.9734393199905753,,,,,,,,,,,,,,,,,,,,328,2023-11-10_13h25.21.151,leap3,2022.2.5,59.995610355266436,
,,,,,,,,,,,,,,,,,,,,15,0,15,0,10,0,10,0,,,,,,manage,w,g,upper,,,,,,,2,w,HiDemNoTar,g,1,0.676758641609922,,,,,,,,,,,,,,,,,,,,328,2023-11-10_13h25.21.151,leap3,2022.2.5,59.995610355266436,
,,,,,,,,,,,,,,,,,,,,15,0,15,0,11,0,11,0,,,,,,shockwave,w,g,upper,,,,,,,2,w,HiDemNoTar,g,1,1.7522342123556882,,,,,,,,,,,,,,,,,,,,328,2023-11-10_13h25.21.151,leap3,2022.2.5,59.995610355266436,
,,,,,,,,,,,,,,,,,,,,15,0,15,0,12,0,12,0,,,,,,dusmy,nw,h,upper,,,,,,,2,nw,HiDemNoTar,h,1,0.5598651324398816,,,,,,,,,,,,,,,,,,,,328,2023-11-10_13h25.21.151,leap3,2022.2.5,59.995610355266436,
,,,,,,,,,,,,,,,,,,,,15,0,15,0,13,0,13,0,,,,,,series,w,g,upper,,,,,,,2,w,HiDemNoTar,g,1,0.8159383276943117,,,,,,,,,,,,,,,,,,,,328,2023-11-10_13h25.21.151,leap3,2022.2.5,59.995610355266436,
,,,,,,,,,,,,,,,,,,,,15,0,15,0,14,0,14,0,,,,,,threaded,w,g,upper,,,,,,,2,w,HiDemNoTar,g,1,0.7176769976504147,,,,,,,,,,,,,,,,,,,,328,2023-11-10_13h25.21.151,leap3,2022.2.5,59.995610355266436,
,,,,,,,,,,,,,,,,,,,,15,0,15,0,15,0,15,0,,,,,,matter,w,g,upper,,,,,,,2,w,HiDemNoTar,g,1,0.5030541850719601,,,,,,,,,,,,,,,,,,,,328,2023-11-10_13h25.21.151,leap3,2022.2.5,59.995610355266436,
,,,,,,,,,,,,,,,,,,,,15,0,15,0,16,0,16,0,,,,,,mortgage,w,g,upper,,,,,,,2,w,HiDemNoTar,g,1,0.6173269595019519,,,,,,,,,,,,,,,,,,,,328,2023-11-10_13h25.21.151,leap3,2022.2.5,59.995610355266436,
,,,,,,,,,,,,,,,,,,,,15,0,15,0,17,0,17,0,,,,,,schinter,nw,h,upper,,,,,,,2,nw,HiDemNoTar,h,1,0.6305153865832835,,,,,,,,,,,,,,,,,,,,328,2023-11-10_13h25.21.151,leap3,2022.2.5,59.995610355266436,
,,,,,,,,,,,,,,,,,,,,15,0,15,0,18,0,18,0,,,,,,infested,w,g,upper,,,,,,,2,w,HiDemNoTar,g,1,1.2279260370414704,,,,,,,,,,,,,,,,,,,,328,2023-11-10_13h25.21.151,leap3,2022.2.5,59.995610355266436,
,,,,,,,,,,,,,,,,,,,,15,0,15,0,19,0,19,0,,,,,,sliding,w,g,upper,,,,,,,2,w,HiDemNoTar,g,1,0.7932075262069702,,,,,,,,,,,,,,,,,,,,328,2023-11-10_13h25.21.151,leap3,2022.2.5,59.995610355266436,
,,,,,,,,,,,,,,,,,,,,15,0,15,0,20,0,20,0,,,,,,ausht,nw,h,upper,,,,,,,2,nw,HiDemNoTar,h,1,0.671934979967773,,,,,,,,,,,,,,,,,,,,328,2023-11-10_13h25.21.151,leap3,2022.2.5,59.995610355266436,
,,,,,,,,,,,,,,,,,,,,15,0,15,0,21,0,21,0,,,,,,pakened,nw,h,upper,,,,,,,2,nw,HiDemNoTar,h,1,0.9142787829041481,,,,,,,,,,,,,,,,,,,,328,2023-11-10_13h25.21.151,leap3,2022.2.5,59.995610355266436,
,,,,,,,,,,,,,,,,,,,,15,0,15,0,22,0,22,0,,,,,,permeable,w,g,upper,,,,,,,2,w,HiDemNoTar,g,1,0.9002606992144138,,,,,,,,,,,,,,,,,,,,328,2023-11-10_13h25.21.151,leap3,2022.2.5,59.995610355266436,
,,,,,,,,,,,,,,,,,,,,15,0,15,0,23,0,23,0,,,,,,release,w,g,upper,,,,,,,2,w,HiDemNoTar,g,1,0.5670420257374644,,,,,,,,,,,,,,,,,,,,328,2023-11-10_13h25.21.151,leap3,2022.2.5,59.995610355266436,
,,,,,,,,,,,,,,,,,,,,15,0,15,0,24,0,24,0,,,,,,setwixt,nw,h,upper,,,,,,,2,nw,HiDemNoTar,h,1,0.7026686896570027,,,,,,,,,,,,,,,,,,,,328,2023-11-10_13h25.21.151,leap3,2022.2.5,59.995610355266436,
,,,,,,,,,,,,,,,,,,,,15,0,15,0,25,0,25,0,,,,,,decantel,nw,h,upper,,,,,,,2,nw,HiDemNoTar,h,1,0.8333177450112998,,,,,,,,,,,,,,,,,,,,328,2023-11-10_13h25.21.151,leap3,2022.2.5,59.995610355266436,
,,,,,,,,,,,,,,,,,,,,15,0,15,0,26,0,26,0,,,,,,vorm,nw,h,upper,,,,,,,2,nw,HiDemNoTar,h,1,0.9511968439910561,,,,,,,,,,,,,,,,,,,,328,2023-11-10_13h25.21.151,leap3,2022.2.5,59.995610355266436,
,,,,,,,,,,,,,,,,,,,,15,0,15,0,27,0,27,0,,,,,,hutting,nw,h,upper,,,,,,,2,nw,HiDemNoTar,g,0,0.6312387702055275,,,,,,,,,,,,,,,,,,,,328,2023-11-10_13h25.21.151,leap3,2022.2.5,59.995610355266436,
,,,,,,,,,,,,,,,,,,,,15,0,15,0,28,0,28,0,,,,,,resume,w,g,upper,,,,,,,2,w,HiDemNoTar,g,1,0.7965271454304457,,,,,,,,,,,,,,,,,,,,328,2023-11-10_13h25.21.151,leap3,2022.2.5,59.995610355266436,
,,,,,,,,,,,,,,,,,,,,15,0,15,0,29,0,29,0,,,,,,ethical,w,g,upper,,,,,,,2,w,HiDemNoTar,g,1,0.6907065385021269,,,,,,,,,,,,,,,,,,,,328,2023-11-10_13h25.21.151,leap3,2022.2.5,59.995610355266436,
,,,,,,,,,,,,,,,,,,,,15,0,15,0,,,,,,,,,,,,,,,,,,,,,,,,,,,NA,,,,,,,,,,,,,,,,,,328,2023-11-10_13h25.21.151,leap3,2022.2.5,59.995610355266436,
,,,,,,,,,,,,,,,,,,,,16,0,16,0,0,0,0,0,,,,,,caloric,w,g,lower,,,,,,,3,w,LoDemNoTar,g,1,1.1819327387493104,,,,,,,,,,,,,,,,,,,,328,2023-11-10_13h25.21.151,leap3,2022.2.5,59.995610355266436,
,,,,,,,,,,,,,,,,,,,,16,0,16,0,1,0,1,0,,,,,,pived,nw,h,lower,,,,,,,3,nw,LoDemNoTar,h,1,0.6773595300037414,,,,,,,,,,,,,,,,,,,,328,2023-11-10_13h25.21.151,leap3,2022.2.5,59.995610355266436,
