demoRace_loop.thisRepN,demoRace_loop.thisTrialN,demoRace_loop.thisN,demoRace_loop.thisIndex,LDTunderstand.thisRepN,LDTunderstand.thisTrialN,LDTunderstand.thisN,LDTunderstand.thisIndex,pracBlocks.thisRepN,pracBlocks.thisTrialN,pracBlocks.thisN,pracBlocks.thisIndex,pracTrial.thisRepN,pracTrial.thisTrialN,pracTrial.thisN,pracTrial.thisIndex,PMunderstand.thisRepN,PMunderstand.thisTrialN,PMunderstand.thisN,PMunderstand.thisIndex,LDT_block.thisRepN,LDT_block.thisTrialN,LDT_block.thisN,LDT_block.thisIndex,LDT_trial.thisRepN,LDT_trial.thisTrialN,LDT_trial.thisN,LDT_trial.thisIndex,ageTextbox.text,genderTextbox.text,race,raceResp,LDTunderstand,stim,word_type,corr_key,stim_location,LDTpracKey.keys,LDTpracKey.corr,LDTpracKey.rt,PMunderstand,cueTextbox.text,intentionTextbox.text,block_type,role,block_desc,LDTResp.keys,LDTResp.corr,LDTResp.rt,pressedQ,PM_accuracy,pressedQ_late,pressedQ_blank,postQ1,Q2Textbox.text,Q3Textbox.text,Q4,Q5,Q6Key.keys,Q6Key.rt,postQ7_correct,postQ7,Q8Textbox.text,education,medTextbox.text,health,healthLimit,psych,participant,date,expName,psychopyVersion,frameRate,
0,0,0,0,,,,,,,,,,,,,,,,,,,,,,,,,"
20", female,American Indian or Alaska Native,n,,,,,,,,,,,,,,,,,,,,,,,,,,,,,,,,,,,,,329,2023-11-13_13h08.43.290,leap3,2022.2.5,60.00145016017659,
1,0,1,0,,,,,,,,,,,,,,,,,,,,,,,,,,,Asian,n,,,,,,,,,,,,,,,,,,,,,,,,,,,,,,,,,,,,,329,2023-11-13_13h08.43.290,leap3,2022.2.5,60.00145016017659,
2,0,2,0,,,,,,,,,,,,,,,,,,,,,,,,,,,Black or African American,n,,,,,,,,,,,,,,,,,,,,,,,,,,,,,,,,,,,,,329,2023-11-13_13h08.43.290,leap3,2022.2.5,60.00145016017659,
3,0,3,0,,,,,,,,,,,,,,,,,,,,,,,,,,,Native Hawaiian or other Pacific Islander,n,,,,,,,,,,,,,,,,,,,,,,,,,,,,,,,,,,,,,329,2023-11-13_13h08.43.290,leap3,2022.2.5,60.00145016017659,
4,0,4,0,,,,,,,,,,,,,,,,,,,,,,,,,,,White,y,,,,,,,,,,,,,,,,,,,,,,,,,,,,,,,,,,,,,329,2023-11-13_13h08.43.290,leap3,2022.2.5,60.00145016017659,
,,,,0,0,0,0,,,,,,,,,,,,,,,,,,,,,,,,,y,,,,,,,,,,,,,,,,,,,,,,,,,,,,,,,,,,,,329,2023-11-13_13h08.43.290,leap3,2022.2.5,60.00145016017659,
,,,,,,,,0,0,0,0,0,0,0,0,,,,,,,,,,,,,,,,,,umpire,w,g,lower,g,1,1.5672813598066568,,,,,,,,,,,,,,,,,,,,,,,,,,,,,329,2023-11-13_13h08.43.290,leap3,2022.2.5,60.00145016017659,
,,,,,,,,0,0,0,0,1,0,1,0,,,,,,,,,,,,,,,,,,picture,w,g,lower,g,1,0.7506841239519417,,,,,,,,,,,,,,,,,,,,,,,,,,,,,329,2023-11-13_13h08.43.290,leap3,2022.2.5,60.00145016017659,
,,,,,,,,0,0,0,0,2,0,2,0,,,,,,,,,,,,,,,,,,julled,nw,h,lower,h,1,1.3747841566801071,,,,,,,,,,,,,,,,,,,,,,,,,,,,,329,2023-11-13_13h08.43.290,leap3,2022.2.5,60.00145016017659,
,,,,,,,,0,0,0,0,3,0,3,0,,,,,,,,,,,,,,,,,,lurshing,nw,h,lower,h,1,1.1496353661641479,,,,,,,,,,,,,,,,,,,,,,,,,,,,,329,2023-11-13_13h08.43.290,leap3,2022.2.5,60.00145016017659,
,,,,,,,,0,0,0,0,4,0,4,0,,,,,,,,,,,,,,,,,,summary,w,g,lower,g,1,0.5970020010136068,,,,,,,,,,,,,,,,,,,,,,,,,,,,,329,2023-11-13_13h08.43.290,leap3,2022.2.5,60.00145016017659,
,,,,,,,,0,0,0,0,5,0,5,0,,,,,,,,,,,,,,,,,,latador,nw,h,lower,h,1,0.7159951436333358,,,,,,,,,,,,,,,,,,,,,,,,,,,,,329,2023-11-13_13h08.43.290,leap3,2022.2.5,60.00145016017659,
,,,,,,,,0,0,0,0,6,0,6,0,,,,,,,,,,,,,,,,,,infinity,w,g,lower,g,1,0.589842323679477,,,,,,,,,,,,,,,,,,,,,,,,,,,,,329,2023-11-13_13h08.43.290,leap3,2022.2.5,60.00145016017659,
,,,,,,,,0,0,0,0,7,0,7,0,,,,,,,,,,,,,,,,,,grimace,w,g,lower,h,0,0.46848866529762745,,,,,,,,,,,,,,,,,,,,,,,,,,,,,329,2023-11-13_13h08.43.290,leap3,2022.2.5,60.00145016017659,
,,,,,,,,0,0,0,0,8,0,8,0,,,,,,,,,,,,,,,,,,trotch,nw,h,lower,h,1,0.9758987962268293,,,,,,,,,,,,,,,,,,,,,,,,,,,,,329,2023-11-13_13h08.43.290,leap3,2022.2.5,60.00145016017659,
,,,,,,,,0,0,0,0,9,0,9,0,,,,,,,,,,,,,,,,,,unscrew,w,g,lower,g,1,1.0375102306716144,,,,,,,,,,,,,,,,,,,,,,,,,,,,,329,2023-11-13_13h08.43.290,leap3,2022.2.5,60.00145016017659,
,,,,,,,,0,0,0,0,10,0,10,0,,,,,,,,,,,,,,,,,,treeps,nw,h,lower,h,1,0.9396167173981667,,,,,,,,,,,,,,,,,,,,,,,,,,,,,329,2023-11-13_13h08.43.290,leap3,2022.2.5,60.00145016017659,
,,,,,,,,0,0,0,0,11,0,11,0,,,,,,,,,,,,,,,,,,grutch,nw,h,lower,h,1,1.3321730494499207,,,,,,,,,,,,,,,,,,,,,,,,,,,,,329,2023-11-13_13h08.43.290,leap3,2022.2.5,60.00145016017659,
,,,,,,,,0,0,0,0,12,0,12,0,,,,,,,,,,,,,,,,,,busted,w,g,lower,g,1,0.6452978779561818,,,,,,,,,,,,,,,,,,,,,,,,,,,,,329,2023-11-13_13h08.43.290,leap3,2022.2.5,60.00145016017659,
,,,,,,,,0,0,0,0,13,0,13,0,,,,,,,,,,,,,,,,,,alolition,nw,h,lower,h,1,0.7300625564530492,,,,,,,,,,,,,,,,,,,,,,,,,,,,,329,2023-11-13_13h08.43.290,leap3,2022.2.5,60.00145016017659,
,,,,,,,,0,0,0,0,,,,,,,,,,,,,,,,,,,,,,,,,,,,,,,,,,,,,,,,,,,,,,,,,,,,,,,,,329,2023-11-13_13h08.43.290,leap3,2022.2.5,60.00145016017659,
,,,,,,,,1,0,1,0,0,0,0,0,,,,,,,,,,,,,,,,,,reputable,w,g,upper,h,0,0.9873070702888072,,,,,,,,,,,,,,,,,,,,,,,,,,,,,329,2023-11-13_13h08.43.290,leap3,2022.2.5,60.00145016017659,
,,,,,,,,1,0,1,0,1,0,1,0,,,,,,,,,,,,,,,,,,sponsor,w,g,upper,g,1,0.48996306397020817,,,,,,,,,,,,,,,,,,,,,,,,,,,,,329,2023-11-13_13h08.43.290,leap3,2022.2.5,60.00145016017659,
,,,,,,,,1,0,1,0,2,0,2,0,,,,,,,,,,,,,,,,,,curlecs,nw,h,upper,h,1,0.5967205935157835,,,,,,,,,,,,,,,,,,,,,,,,,,,,,329,2023-11-13_13h08.43.290,leap3,2022.2.5,60.00145016017659,
,,,,,,,,1,0,1,0,3,0,3,0,,,,,,,,,,,,,,,,,,lumbigo,nw,h,upper,h,1,0.8921216940507293,,,,,,,,,,,,,,,,,,,,,,,,,,,,,329,2023-11-13_13h08.43.290,leap3,2022.2.5,60.00145016017659,
,,,,,,,,1,0,1,0,4,0,4,0,,,,,,,,,,,,,,,,,,slumber,w,g,upper,g,1,0.5741596296429634,,,,,,,,,,,,,,,,,,,,,,,,,,,,,329,2023-11-13_13h08.43.290,leap3,2022.2.5,60.00145016017659,
,,,,,,,,1,0,1,0,5,0,5,0,,,,,,,,,,,,,,,,,,crinklo,nw,h,upper,h,1,0.6212500878609717,,,,,,,,,,,,,,,,,,,,,,,,,,,,,329,2023-11-13_13h08.43.290,leap3,2022.2.5,60.00145016017659,
,,,,,,,,1,0,1,0,6,0,6,0,,,,,,,,,,,,,,,,,,overshoot,w,g,upper,g,1,0.9625296061858535,,,,,,,,,,,,,,,,,,,,,,,,,,,,,329,2023-11-13_13h08.43.290,leap3,2022.2.5,60.00145016017659,
,,,,,,,,1,0,1,0,7,0,7,0,,,,,,,,,,,,,,,,,,hiring,w,g,upper,g,1,0.7225628718733788,,,,,,,,,,,,,,,,,,,,,,,,,,,,,329,2023-11-13_13h08.43.290,leap3,2022.2.5,60.00145016017659,
,,,,,,,,1,0,1,0,8,0,8,0,,,,,,,,,,,,,,,,,,hasking,nw,h,upper,h,1,0.7086888025514781,,,,,,,,,,,,,,,,,,,,,,,,,,,,,329,2023-11-13_13h08.43.290,leap3,2022.2.5,60.00145016017659,
,,,,,,,,1,0,1,0,9,0,9,0,,,,,,,,,,,,,,,,,,revival,w,g,upper,g,1,0.6148200836032629,,,,,,,,,,,,,,,,,,,,,,,,,,,,,329,2023-11-13_13h08.43.290,leap3,2022.2.5,60.00145016017659,
,,,,,,,,1,0,1,0,10,0,10,0,,,,,,,,,,,,,,,,,,grocus,nw,h,upper,h,1,0.5162604618817568,,,,,,,,,,,,,,,,,,,,,,,,,,,,,329,2023-11-13_13h08.43.290,leap3,2022.2.5,60.00145016017659,
,,,,,,,,1,0,1,0,11,0,11,0,,,,,,,,,,,,,,,,,,raestro,nw,h,upper,g,0,0.5502687655389309,,,,,,,,,,,,,,,,,,,,,,,,,,,,,329,2023-11-13_13h08.43.290,leap3,2022.2.5,60.00145016017659,
,,,,,,,,1,0,1,0,12,0,12,0,,,,,,,,,,,,,,,,,,tricycle,w,g,upper,g,1,0.6706802034750581,,,,,,,,,,,,,,,,,,,,,,,,,,,,,329,2023-11-13_13h08.43.290,leap3,2022.2.5,60.00145016017659,
,,,,,,,,1,0,1,0,13,0,13,0,,,,,,,,,,,,,,,,,,turative,nw,h,upper,h,1,0.5936426538974047,,,,,,,,,,,,,,,,,,,,,,,,,,,,,329,2023-11-13_13h08.43.290,leap3,2022.2.5,60.00145016017659,
,,,,,,,,1,0,1,0,,,,,,,,,,,,,,,,,,,,,,,,,,,,,,,,,,,,,,,,,,,,,,,,,,,,,,,,,329,2023-11-13_13h08.43.290,leap3,2022.2.5,60.00145016017659,
,,,,,,,,,,,,,,,,0,0,0,0,,,,,,,,,,,,,,,,,,,,,y,,,,,,,,,,,,,,,,,,,,,,,,,,,,329,2023-11-13_13h08.43.290,leap3,2022.2.5,60.00145016017659,
,,,,,,,,,,,,,,,,,,,,0,0,0,0,0,0,0,0,,,,,,unspoken,w,g,lower,,,,,animal,"
q ",1,w,HiDemTar,h,0,0.6669000685214996,,,,,,,,,,,,,,,,,,,,329,2023-11-13_13h08.43.290,leap3,2022.2.5,60.00145016017659,
,,,,,,,,,,,,,,,,,,,,0,0,0,0,1,0,1,0,,,,,,pender,nw,h,lower,,,,,,,1,nw,HiDemTar,h,1,0.9594821245409548,,,,,,,,,,,,,,,,,,,,329,2023-11-13_13h08.43.290,leap3,2022.2.5,60.00145016017659,
,,,,,,,,,,,,,,,,,,,,0,0,0,0,2,0,2,0,,,,,,roodies,nw,h,lower,,,,,,,1,nw,HiDemTar,g,0,1.4072334608063102,,,,,,,,,,,,,,,,,,,,329,2023-11-13_13h08.43.290,leap3,2022.2.5,60.00145016017659,
,,,,,,,,,,,,,,,,,,,,0,0,0,0,3,0,3,0,,,,,,regards,w,g,lower,,,,,,,1,w,HiDemTar,g,1,0.6859884592704475,,,,,,,,,,,,,,,,,,,,329,2023-11-13_13h08.43.290,leap3,2022.2.5,60.00145016017659,
,,,,,,,,,,,,,,,,,,,,0,0,0,0,4,0,4,0,,,,,,even,w,g,lower,,,,,,,1,w,HiDemTar,g,1,0.6333877048455179,,,,,,,,,,,,,,,,,,,,329,2023-11-13_13h08.43.290,leap3,2022.2.5,60.00145016017659,
,,,,,,,,,,,,,,,,,,,,0,0,0,0,5,0,5,0,,,,,,opert,nw,h,lower,,,,,,,1,nw,HiDemTar,h,1,0.7590045263059437,,,,,,,,,,,,,,,,,,,,329,2023-11-13_13h08.43.290,leap3,2022.2.5,60.00145016017659,
,,,,,,,,,,,,,,,,,,,,0,0,0,0,6,0,6,0,,,,,,larger,w,g,lower,,,,,,,1,w,HiDemTar,g,1,0.648045411799103,,,,,,,,,,,,,,,,,,,,329,2023-11-13_13h08.43.290,leap3,2022.2.5,60.00145016017659,
,,,,,,,,,,,,,,,,,,,,0,0,0,0,7,0,7,0,,,,,,oleandur,nw,h,lower,,,,,,,1,nw,HiDemTar,h,1,0.7095542149618268,,,,,,,,,,,,,,,,,,,,329,2023-11-13_13h08.43.290,leap3,2022.2.5,60.00145016017659,
,,,,,,,,,,,,,,,,,,,,0,0,0,0,8,0,8,0,,,,,,booster,w,g,lower,,,,,,,1,w,HiDemTar,g,1,0.5840900158509612,,,,,,,,,,,,,,,,,,,,329,2023-11-13_13h08.43.290,leap3,2022.2.5,60.00145016017659,
,,,,,,,,,,,,,,,,,,,,0,0,0,0,9,0,9,0,,,,,,fards,nw,h,lower,,,,,,,1,nw,HiDemTar,h,1,0.8634604699909687,,,,,,,,,,,,,,,,,,,,329,2023-11-13_13h08.43.290,leap3,2022.2.5,60.00145016017659,
,,,,,,,,,,,,,,,,,,,,0,0,0,0,10,0,10,0,,,,,,lizard,target,q,lower,,,,,,,1,target,HiDemTar,q,1,0.5063979439437389,1,,,,,,,,,,,,,,,,,,,329,2023-11-13_13h08.43.290,leap3,2022.2.5,60.00145016017659,
,,,,,,,,,,,,,,,,,,,,0,0,0,0,11,0,11,0,,,,,,thesis,w,g,lower,,,,,,,1,aftertar1,HiDemTar,h,0,0.8378980434499681,,,,,,,,,,,,,,,,,,,,329,2023-11-13_13h08.43.290,leap3,2022.2.5,60.00145016017659,
,,,,,,,,,,,,,,,,,,,,0,0,0,0,12,0,12,0,,,,,,incorrect,w,g,lower,,,,,,,1,aftertar2,HiDemTar,g,1,0.6832038462162018,,,,,,,,,,,,,,,,,,,,329,2023-11-13_13h08.43.290,leap3,2022.2.5,60.00145016017659,
,,,,,,,,,,,,,,,,,,,,0,0,0,0,13,0,13,0,,,,,,eggays,nw,h,lower,,,,,,,1,aftertar3,HiDemTar,h,1,0.7113830344751477,,,,,,,,,,,,,,,,,,,,329,2023-11-13_13h08.43.290,leap3,2022.2.5,60.00145016017659,
,,,,,,,,,,,,,,,,,,,,0,0,0,0,14,0,14,0,,,,,,subber,nw,h,lower,,,,,,,1,nw,HiDemTar,h,1,0.8342159050516784,,,,,,,,,,,,,,,,,,,,329,2023-11-13_13h08.43.290,leap3,2022.2.5,60.00145016017659,
,,,,,,,,,,,,,,,,,,,,0,0,0,0,15,0,15,0,,,,,,forecast,w,g,lower,,,,,,,1,nw,HiDemTar,g,1,0.5600802986882627,,,,,,,,,,,,,,,,,,,,329,2023-11-13_13h08.43.290,leap3,2022.2.5,60.00145016017659,
,,,,,,,,,,,,,,,,,,,,0,0,0,0,16,0,16,0,,,,,,ounside,nw,h,lower,,,,,,,1,w,HiDemTar,h,1,0.7127364408224821,,,,,,,,,,,,,,,,,,,,329,2023-11-13_13h08.43.290,leap3,2022.2.5,60.00145016017659,
,,,,,,,,,,,,,,,,,,,,0,0,0,0,17,0,17,0,,,,,,appain,nw,h,lower,,,,,,,1,nw,HiDemTar,h,1,0.8595326789654791,,,,,,,,,,,,,,,,,,,,329,2023-11-13_13h08.43.290,leap3,2022.2.5,60.00145016017659,
,,,,,,,,,,,,,,,,,,,,0,0,0,0,18,0,18,0,,,,,,pircus,nw,h,lower,,,,,,,1,nw,HiDemTar,h,1,0.6882655452936888,,,,,,,,,,,,,,,,,,,,329,2023-11-13_13h08.43.290,leap3,2022.2.5,60.00145016017659,
,,,,,,,,,,,,,,,,,,,,0,0,0,0,19,0,19,0,,,,,,tuckel,nw,h,lower,,,,,,,1,nw,HiDemTar,h,1,0.8349379641003907,,,,,,,,,,,,,,,,,,,,329,2023-11-13_13h08.43.290,leap3,2022.2.5,60.00145016017659,
,,,,,,,,,,,,,,,,,,,,0,0,0,0,20,0,20,0,,,,,,childhood,w,g,lower,,,,,,,1,nw,HiDemTar,g,1,0.47963506495580077,,,,,,,,,,,,,,,,,,,,329,2023-11-13_13h08.43.290,leap3,2022.2.5,60.00145016017659,
,,,,,,,,,,,,,,,,,,,,0,0,0,0,21,0,21,0,,,,,,dusmy,nw,h,lower,,,,,,,1,w,HiDemTar,h,1,0.6839825180359185,,,,,,,,,,,,,,,,,,,,329,2023-11-13_13h08.43.290,leap3,2022.2.5,60.00145016017659,
,,,,,,,,,,,,,,,,,,,,0,0,0,0,22,0,22,0,,,,,,geborn,nw,h,lower,,,,,,,1,nw,HiDemTar,h,1,0.6873362376354635,,,,,,,,,,,,,,,,,,,,329,2023-11-13_13h08.43.290,leap3,2022.2.5,60.00145016017659,
,,,,,,,,,,,,,,,,,,,,0,0,0,0,23,0,23,0,,,,,,listless,w,g,lower,,,,,,,1,nw,HiDemTar,g,1,0.7387408437207341,,,,,,,,,,,,,,,,,,,,329,2023-11-13_13h08.43.290,leap3,2022.2.5,60.00145016017659,
,,,,,,,,,,,,,,,,,,,,0,0,0,0,24,0,24,0,,,,,,antwers,nw,h,lower,,,,,,,1,w,HiDemTar,h,1,0.684026881121099,,,,,,,,,,,,,,,,,,,,329,2023-11-13_13h08.43.290,leap3,2022.2.5,60.00145016017659,
,,,,,,,,,,,,,,,,,,,,0,0,0,0,25,0,25,0,,,,,,daylight,w,g,lower,,,,,,,1,nw,HiDemTar,g,1,0.7035416881553829,,,,,,,,,,,,,,,,,,,,329,2023-11-13_13h08.43.290,leap3,2022.2.5,60.00145016017659,
,,,,,,,,,,,,,,,,,,,,0,0,0,0,26,0,26,0,,,,,,category,w,g,lower,,,,,,,1,w,HiDemTar,g,1,0.6101268632337451,,,,,,,,,,,,,,,,,,,,329,2023-11-13_13h08.43.290,leap3,2022.2.5,60.00145016017659,
,,,,,,,,,,,,,,,,,,,,0,0,0,0,27,0,27,0,,,,,,bullet,w,g,lower,,,,,,,1,w,HiDemTar,g,1,0.5448720250278711,,,,,,,,,,,,,,,,,,,,329,2023-11-13_13h08.43.290,leap3,2022.2.5,60.00145016017659,
,,,,,,,,,,,,,,,,,,,,0,0,0,0,28,0,28,0,,,,,,matter,w,g,lower,,,,,,,1,w,HiDemTar,g,1,0.5302209397777915,,,,,,,,,,,,,,,,,,,,329,2023-11-13_13h08.43.290,leap3,2022.2.5,60.00145016017659,
,,,,,,,,,,,,,,,,,,,,0,0,0,0,29,0,29,0,,,,,,begut,nw,h,lower,,,,,,,1,w,HiDemTar,h,1,0.6513613895513117,,,,,,,,,,,,,,,,,,,,329,2023-11-13_13h08.43.290,leap3,2022.2.5,60.00145016017659,
,,,,,,,,,,,,,,,,,,,,0,0,0,0,,,,,,,,,,,,,,,,,,,,,,,,,,,1,,,,,,,,,,,,,,,,,,329,2023-11-13_13h08.43.290,leap3,2022.2.5,60.00145016017659,
,,,,,,,,,,,,,,,,,,,,1,0,1,0,0,0,0,0,,,,,,cogantly,nw,h,lower,,,,,,,2,nw,HiDemNoTar,h,1,0.6800845228135586,,,,,,,,,,,,,,,,,,,,329,2023-11-13_13h08.43.290,leap3,2022.2.5,60.00145016017659,
,,,,,,,,,,,,,,,,,,,,1,0,1,0,1,0,1,0,,,,,,official,w,g,lower,,,,,,,2,w,HiDemNoTar,g,1,0.4201156497001648,,,,,,,,,,,,,,,,,,,,329,2023-11-13_13h08.43.290,leap3,2022.2.5,60.00145016017659,
,,,,,,,,,,,,,,,,,,,,1,0,1,0,2,0,2,0,,,,,,rewrite,w,g,lower,,,,,,,2,w,HiDemNoTar,g,1,0.6022126809693873,,,,,,,,,,,,,,,,,,,,329,2023-11-13_13h08.43.290,leap3,2022.2.5,60.00145016017659,
,,,,,,,,,,,,,,,,,,,,1,0,1,0,3,0,3,0,,,,,,cills,nw,h,lower,,,,,,,2,nw,HiDemNoTar,h,1,0.6889627748169005,,,,,,,,,,,,,,,,,,,,329,2023-11-13_13h08.43.290,leap3,2022.2.5,60.00145016017659,
,,,,,,,,,,,,,,,,,,,,1,0,1,0,4,0,4,0,,,,,,surface,w,g,lower,,,,,,,2,w,HiDemNoTar,g,1,0.4994782912544906,,,,,,,,,,,,,,,,,,,,329,2023-11-13_13h08.43.290,leap3,2022.2.5,60.00145016017659,
,,,,,,,,,,,,,,,,,,,,1,0,1,0,5,0,5,0,,,,,,rational,w,g,lower,,,,,,,2,w,HiDemNoTar,g,1,0.60661158291623,,,,,,,,,,,,,,,,,,,,329,2023-11-13_13h08.43.290,leap3,2022.2.5,60.00145016017659,
,,,,,,,,,,,,,,,,,,,,1,0,1,0,6,0,6,0,,,,,,bropic,nw,h,lower,,,,,,,2,nw,HiDemNoTar,h,1,0.5893755173310637,,,,,,,,,,,,,,,,,,,,329,2023-11-13_13h08.43.290,leap3,2022.2.5,60.00145016017659,
,,,,,,,,,,,,,,,,,,,,1,0,1,0,7,0,7,0,,,,,,mubby,nw,h,lower,,,,,,,2,nw,HiDemNoTar,h,1,0.6847125231288373,,,,,,,,,,,,,,,,,,,,329,2023-11-13_13h08.43.290,leap3,2022.2.5,60.00145016017659,
,,,,,,,,,,,,,,,,,,,,1,0,1,0,8,0,8,0,,,,,,tenpince,nw,h,lower,,,,,,,2,nw,HiDemNoTar,h,1,0.7120183543302119,,,,,,,,,,,,,,,,,,,,329,2023-11-13_13h08.43.290,leap3,2022.2.5,60.00145016017659,
,,,,,,,,,,,,,,,,,,,,1,0,1,0,9,0,9,0,,,,,,schides,nw,h,lower,,,,,,,2,nw,HiDemNoTar,h,1,0.6506926319561899,,,,,,,,,,,,,,,,,,,,329,2023-11-13_13h08.43.290,leap3,2022.2.5,60.00145016017659,
,,,,,,,,,,,,,,,,,,,,1,0,1,0,10,0,10,0,,,,,,bickering,w,g,lower,,,,,,,2,w,HiDemNoTar,h,0,1.0715261488221586,,,,,,,,,,,,,,,,,,,,329,2023-11-13_13h08.43.290,leap3,2022.2.5,60.00145016017659,
,,,,,,,,,,,,,,,,,,,,1,0,1,0,11,0,11,0,,,,,,angry,w,g,lower,,,,,,,2,w,HiDemNoTar,g,1,0.47555067809298635,,,,,,,,,,,,,,,,,,,,329,2023-11-13_13h08.43.290,leap3,2022.2.5,60.00145016017659,
,,,,,,,,,,,,,,,,,,,,1,0,1,0,12,0,12,0,,,,,,priant,nw,h,lower,,,,,,,2,nw,HiDemNoTar,h,1,0.6315956334583461,,,,,,,,,,,,,,,,,,,,329,2023-11-13_13h08.43.290,leap3,2022.2.5,60.00145016017659,
,,,,,,,,,,,,,,,,,,,,1,0,1,0,13,0,13,0,,,,,,tinion,nw,h,lower,,,,,,,2,nw,HiDemNoTar,h,1,0.8527136701159179,,,,,,,,,,,,,,,,,,,,329,2023-11-13_13h08.43.290,leap3,2022.2.5,60.00145016017659,
,,,,,,,,,,,,,,,,,,,,1,0,1,0,14,0,14,0,,,,,,pived,nw,h,lower,,,,,,,2,nw,HiDemNoTar,h,1,0.9451875989325345,,,,,,,,,,,,,,,,,,,,329,2023-11-13_13h08.43.290,leap3,2022.2.5,60.00145016017659,
,,,,,,,,,,,,,,,,,,,,1,0,1,0,15,0,15,0,,,,,,pretzel,w,g,lower,,,,,,,2,w,HiDemNoTar,h,0,0.5226894719526172,,,,,,,,,,,,,,,,,,,,329,2023-11-13_13h08.43.290,leap3,2022.2.5,60.00145016017659,
,,,,,,,,,,,,,,,,,,,,1,0,1,0,16,0,16,0,,,,,,allained,nw,h,lower,,,,,,,2,nw,HiDemNoTar,h,1,0.8207685821689665,,,,,,,,,,,,,,,,,,,,329,2023-11-13_13h08.43.290,leap3,2022.2.5,60.00145016017659,
,,,,,,,,,,,,,,,,,,,,1,0,1,0,17,0,17,0,,,,,,dredigest,nw,h,lower,,,,,,,2,nw,HiDemNoTar,h,1,0.8268430191092193,,,,,,,,,,,,,,,,,,,,329,2023-11-13_13h08.43.290,leap3,2022.2.5,60.00145016017659,
,,,,,,,,,,,,,,,,,,,,1,0,1,0,18,0,18,0,,,,,,smolvers,nw,h,lower,,,,,,,2,nw,HiDemNoTar,h,1,1.1769097461365163,,,,,,,,,,,,,,,,,,,,329,2023-11-13_13h08.43.290,leap3,2022.2.5,60.00145016017659,
,,,,,,,,,,,,,,,,,,,,1,0,1,0,19,0,19,0,,,,,,bamboo,w,g,lower,,,,,,,2,w,HiDemNoTar,g,1,0.8965692617930472,,,,,,,,,,,,,,,,,,,,329,2023-11-13_13h08.43.290,leap3,2022.2.5,60.00145016017659,
,,,,,,,,,,,,,,,,,,,,1,0,1,0,20,0,20,0,,,,,,arrigns,nw,h,lower,,,,,,,2,nw,HiDemNoTar,h,1,0.7642791024409235,,,,,,,,,,,,,,,,,,,,329,2023-11-13_13h08.43.290,leap3,2022.2.5,60.00145016017659,
,,,,,,,,,,,,,,,,,,,,1,0,1,0,21,0,21,0,,,,,,supplier,w,g,lower,,,,,,,2,w,HiDemNoTar,g,1,0.556094239000231,,,,,,,,,,,,,,,,,,,,329,2023-11-13_13h08.43.290,leap3,2022.2.5,60.00145016017659,
,,,,,,,,,,,,,,,,,,,,1,0,1,0,22,0,22,0,,,,,,glaims,nw,h,lower,,,,,,,2,nw,HiDemNoTar,g,0,0.6687553743831813,,,,,,,,,,,,,,,,,,,,329,2023-11-13_13h08.43.290,leap3,2022.2.5,60.00145016017659,
,,,,,,,,,,,,,,,,,,,,1,0,1,0,23,0,23,0,,,,,,optional,w,g,lower,,,,,,,2,w,HiDemNoTar,g,1,0.4967678366228938,,,,,,,,,,,,,,,,,,,,329,2023-11-13_13h08.43.290,leap3,2022.2.5,60.00145016017659,
,,,,,,,,,,,,,,,,,,,,1,0,1,0,24,0,24,0,,,,,,uncounted,w,g,lower,,,,,,,2,w,HiDemNoTar,g,1,0.708090232219547,,,,,,,,,,,,,,,,,,,,329,2023-11-13_13h08.43.290,leap3,2022.2.5,60.00145016017659,
,,,,,,,,,,,,,,,,,,,,1,0,1,0,25,0,25,0,,,,,,dishwater,w,g,lower,,,,,,,2,w,HiDemNoTar,g,1,0.6388268219307065,,,,,,,,,,,,,,,,,,,,329,2023-11-13_13h08.43.290,leap3,2022.2.5,60.00145016017659,
,,,,,,,,,,,,,,,,,,,,1,0,1,0,26,0,26,0,,,,,,pregs,nw,h,lower,,,,,,,2,nw,HiDemNoTar,h,1,0.8202054356224835,,,,,,,,,,,,,,,,,,,,329,2023-11-13_13h08.43.290,leap3,2022.2.5,60.00145016017659,
,,,,,,,,,,,,,,,,,,,,1,0,1,0,27,0,27,0,,,,,,gymnasium,w,g,lower,,,,,,,2,w,HiDemNoTar,g,1,0.5861452864482999,,,,,,,,,,,,,,,,,,,,329,2023-11-13_13h08.43.290,leap3,2022.2.5,60.00145016017659,
,,,,,,,,,,,,,,,,,,,,1,0,1,0,28,0,28,0,,,,,,fracture,w,g,lower,,,,,,,2,w,HiDemNoTar,g,1,0.5615780502557755,,,,,,,,,,,,,,,,,,,,329,2023-11-13_13h08.43.290,leap3,2022.2.5,60.00145016017659,
,,,,,,,,,,,,,,,,,,,,1,0,1,0,29,0,29,0,,,,,,graveyard,w,g,lower,,,,,,,2,w,HiDemNoTar,g,1,0.5462416536174715,,,,,,,,,,,,,,,,,,,,329,2023-11-13_13h08.43.290,leap3,2022.2.5,60.00145016017659,
,,,,,,,,,,,,,,,,,,,,1,0,1,0,,,,,,,,,,,,,,,,,,,,,,,,,,,NA,,,,,,,,,,,,,,,,,,329,2023-11-13_13h08.43.290,leap3,2022.2.5,60.00145016017659,
,,,,,,,,,,,,,,,,,,,,2,0,2,0,0,0,0,0,,,,,,yash,nw,h,upper,,,,,,,3,nw,LoDemNoTar,g,0,0.6753727621398866,,,,,,,,,,,,,,,,,,,,329,2023-11-13_13h08.43.290,leap3,2022.2.5,60.00145016017659,
,,,,,,,,,,,,,,,,,,,,2,0,2,0,1,0,1,0,,,,,,sporidic,nw,h,upper,,,,,,,3,nw,LoDemNoTar,h,1,1.559497949667275,,,,,,,,,,,,,,,,,,,,329,2023-11-13_13h08.43.290,leap3,2022.2.5,60.00145016017659,
,,,,,,,,,,,,,,,,,,,,2,0,2,0,2,0,2,0,,,,,,rudder,w,g,upper,,,,,,,3,w,LoDemNoTar,h,0,1.0641956399194896,,,,,,,,,,,,,,,,,,,,329,2023-11-13_13h08.43.290,leap3,2022.2.5,60.00145016017659,
,,,,,,,,,,,,,,,,,,,,2,0,2,0,3,0,3,0,,,,,,imprives,nw,h,upper,,,,,,,3,nw,LoDemNoTar,h,1,0.9969421443529427,,,,,,,,,,,,,,,,,,,,329,2023-11-13_13h08.43.290,leap3,2022.2.5,60.00145016017659,
,,,,,,,,,,,,,,,,,,,,2,0,2,0,4,0,4,0,,,,,,goltish,nw,h,upper,,,,,,,3,nw,LoDemNoTar,h,1,0.8842767053283751,,,,,,,,,,,,,,,,,,,,329,2023-11-13_13h08.43.290,leap3,2022.2.5,60.00145016017659,
,,,,,,,,,,,,,,,,,,,,2,0,2,0,5,0,5,0,,,,,,potent,w,g,upper,,,,,,,3,w,LoDemNoTar,g,1,0.6708463998511434,,,,,,,,,,,,,,,,,,,,329,2023-11-13_13h08.43.290,leap3,2022.2.5,60.00145016017659,
,,,,,,,,,,,,,,,,,,,,2,0,2,0,6,0,6,0,,,,,,binder,w,g,upper,,,,,,,3,w,LoDemNoTar,g,1,0.5307238320820034,,,,,,,,,,,,,,,,,,,,329,2023-11-13_13h08.43.290,leap3,2022.2.5,60.00145016017659,
,,,,,,,,,,,,,,,,,,,,2,0,2,0,7,0,7,0,,,,,,ensues,w,g,upper,,,,,,,3,w,LoDemNoTar,h,0,0.7487788270227611,,,,,,,,,,,,,,,,,,,,329,2023-11-13_13h08.43.290,leap3,2022.2.5,60.00145016017659,
,,,,,,,,,,,,,,,,,,,,2,0,2,0,8,0,8,0,,,,,,chyme,nw,h,upper,,,,,,,3,nw,LoDemNoTar,h,1,1.0941808046773076,,,,,,,,,,,,,,,,,,,,329,2023-11-13_13h08.43.290,leap3,2022.2.5,60.00145016017659,
,,,,,,,,,,,,,,,,,,,,2,0,2,0,9,0,9,0,,,,,,pester,w,g,upper,,,,,,,3,w,LoDemNoTar,g,1,0.7775022913701832,,,,,,,,,,,,,,,,,,,,329,2023-11-13_13h08.43.290,leap3,2022.2.5,60.00145016017659,
,,,,,,,,,,,,,,,,,,,,2,0,2,0,10,0,10,0,,,,,,sliding,w,g,upper,,,,,,,3,w,LoDemNoTar,g,1,0.5535357450135052,,,,,,,,,,,,,,,,,,,,329,2023-11-13_13h08.43.290,leap3,2022.2.5,60.00145016017659,
,,,,,,,,,,,,,,,,,,,,2,0,2,0,11,0,11,0,,,,,,sunshine,w,g,upper,,,,,,,3,w,LoDemNoTar,g,1,0.5142730600200593,,,,,,,,,,,,,,,,,,,,329,2023-11-13_13h08.43.290,leap3,2022.2.5,60.00145016017659,
,,,,,,,,,,,,,,,,,,,,2,0,2,0,12,0,12,0,,,,,,geadpan,nw,h,upper,,,,,,,3,nw,LoDemNoTar,h,1,0.7569644846953452,,,,,,,,,,,,,,,,,,,,329,2023-11-13_13h08.43.290,leap3,2022.2.5,60.00145016017659,
,,,,,,,,,,,,,,,,,,,,2,0,2,0,13,0,13,0,,,,,,airbis,nw,h,upper,,,,,,,3,nw,LoDemNoTar,h,1,0.7096571768634021,,,,,,,,,,,,,,,,,,,,329,2023-11-13_13h08.43.290,leap3,2022.2.5,60.00145016017659,
,,,,,,,,,,,,,,,,,,,,2,0,2,0,14,0,14,0,,,,,,borrent,nw,h,upper,,,,,,,3,nw,LoDemNoTar,h,1,0.7270011701621115,,,,,,,,,,,,,,,,,,,,329,2023-11-13_13h08.43.290,leap3,2022.2.5,60.00145016017659,
,,,,,,,,,,,,,,,,,,,,2,0,2,0,15,0,15,0,,,,,,decant,w,g,upper,,,,,,,3,w,LoDemNoTar,g,1,1.1534277508035302,,,,,,,,,,,,,,,,,,,,329,2023-11-13_13h08.43.290,leap3,2022.2.5,60.00145016017659,
,,,,,,,,,,,,,,,,,,,,2,0,2,0,16,0,16,0,,,,,,dileting,nw,h,upper,,,,,,,3,nw,LoDemNoTar,h,1,0.8341751829721034,,,,,,,,,,,,,,,,,,,,329,2023-11-13_13h08.43.290,leap3,2022.2.5,60.00145016017659,
,,,,,,,,,,,,,,,,,,,,2,0,2,0,17,0,17,0,,,,,,managed,w,g,upper,,,,,,,3,w,LoDemNoTar,g,1,0.6395002142526209,,,,,,,,,,,,,,,,,,,,329,2023-11-13_13h08.43.290,leap3,2022.2.5,60.00145016017659,
,,,,,,,,,,,,,,,,,,,,2,0,2,0,18,0,18,0,,,,,,jiggling,w,g,upper,,,,,,,3,w,LoDemNoTar,g,1,0.6928577902726829,,,,,,,,,,,,,,,,,,,,329,2023-11-13_13h08.43.290,leap3,2022.2.5,60.00145016017659,
,,,,,,,,,,,,,,,,,,,,2,0,2,0,19,0,19,0,,,,,,pillage,w,g,upper,,,,,,,3,w,LoDemNoTar,g,1,0.5202518180012703,,,,,,,,,,,,,,,,,,,,329,2023-11-13_13h08.43.290,leap3,2022.2.5,60.00145016017659,
,,,,,,,,,,,,,,,,,,,,2,0,2,0,20,0,20,0,,,,,,unburnid,nw,h,upper,,,,,,,3,nw,LoDemNoTar,h,1,0.8583269291557372,,,,,,,,,,,,,,,,,,,,329,2023-11-13_13h08.43.290,leap3,2022.2.5,60.00145016017659,
,,,,,,,,,,,,,,,,,,,,2,0,2,0,21,0,21,0,,,,,,handbook,w,g,upper,,,,,,,3,w,LoDemNoTar,g,1,0.6792022264562547,,,,,,,,,,,,,,,,,,,,329,2023-11-13_13h08.43.290,leap3,2022.2.5,60.00145016017659,
,,,,,,,,,,,,,,,,,,,,2,0,2,0,22,0,22,0,,,,,,comply,w,g,upper,,,,,,,3,w,LoDemNoTar,g,1,0.7379542258568108,,,,,,,,,,,,,,,,,,,,329,2023-11-13_13h08.43.290,leap3,2022.2.5,60.00145016017659,
,,,,,,,,,,,,,,,,,,,,2,0,2,0,23,0,23,0,,,,,,havel,nw,h,upper,,,,,,,3,nw,LoDemNoTar,h,1,1.3874713466502726,,,,,,,,,,,,,,,,,,,,329,2023-11-13_13h08.43.290,leap3,2022.2.5,60.00145016017659,
,,,,,,,,,,,,,,,,,,,,2,0,2,0,24,0,24,0,,,,,,uncle,w,g,upper,,,,,,,3,w,LoDemNoTar,g,1,0.5467508365400136,,,,,,,,,,,,,,,,,,,,329,2023-11-13_13h08.43.290,leap3,2022.2.5,60.00145016017659,
,,,,,,,,,,,,,,,,,,,,2,0,2,0,25,0,25,0,,,,,,sonnet,w,g,upper,,,,,,,3,w,LoDemNoTar,g,1,0.5401115976274014,,,,,,,,,,,,,,,,,,,,329,2023-11-13_13h08.43.290,leap3,2022.2.5,60.00145016017659,
,,,,,,,,,,,,,,,,,,,,2,0,2,0,26,0,26,0,,,,,,crudios,nw,h,upper,,,,,,,3,nw,LoDemNoTar,h,1,0.7575451782904565,,,,,,,,,,,,,,,,,,,,329,2023-11-13_13h08.43.290,leap3,2022.2.5,60.00145016017659,
,,,,,,,,,,,,,,,,,,,,2,0,2,0,27,0,27,0,,,,,,lancos,nw,h,upper,,,,,,,3,nw,LoDemNoTar,h,1,0.8702576281502843,,,,,,,,,,,,,,,,,,,,329,2023-11-13_13h08.43.290,leap3,2022.2.5,60.00145016017659,
,,,,,,,,,,,,,,,,,,,,2,0,2,0,28,0,28,0,,,,,,impirt,nw,h,upper,,,,,,,3,nw,LoDemNoTar,h,1,0.8583322260528803,,,,,,,,,,,,,,,,,,,,329,2023-11-13_13h08.43.290,leap3,2022.2.5,60.00145016017659,
,,,,,,,,,,,,,,,,,,,,2,0,2,0,29,0,29,0,,,,,,ebciting,nw,h,upper,,,,,,,3,nw,LoDemNoTar,h,1,0.7671282743103802,,,,,,,,,,,,,,,,,,,,329,2023-11-13_13h08.43.290,leap3,2022.2.5,60.00145016017659,
,,,,,,,,,,,,,,,,,,,,2,0,2,0,,,,,,,,,,,,,,,,,,,,,,,,,,,NA,,,,,,,,,,,,,,,,,,329,2023-11-13_13h08.43.290,leap3,2022.2.5,60.00145016017659,
,,,,,,,,,,,,,,,,,,,,3,0,3,0,0,0,0,0,,,,,,clarms,nw,h,upper,,,,,,,3,nw,LoDemNoTar,g,0,1.2702633226290345,,,,,,,,,,,,,,,,,,,,329,2023-11-13_13h08.43.290,leap3,2022.2.5,60.00145016017659,
,,,,,,,,,,,,,,,,,,,,3,0,3,0,1,0,1,0,,,,,,phonology,w,g,upper,,,,,,,3,w,LoDemNoTar,g,1,1.85050710150972,,,,,,,,,,,,,,,,,,,,329,2023-11-13_13h08.43.290,leap3,2022.2.5,60.00145016017659,
,,,,,,,,,,,,,,,,,,,,3,0,3,0,2,0,2,0,,,,,,intrude,w,g,upper,,,,,,,3,w,LoDemNoTar,g,1,1.3430906804278493,,,,,,,,,,,,,,,,,,,,329,2023-11-13_13h08.43.290,leap3,2022.2.5,60.00145016017659,
,,,,,,,,,,,,,,,,,,,,3,0,3,0,3,0,3,0,,,,,,blocking,w,g,upper,,,,,,,3,w,LoDemNoTar,g,1,0.6484605711884797,,,,,,,,,,,,,,,,,,,,329,2023-11-13_13h08.43.290,leap3,2022.2.5,60.00145016017659,
,,,,,,,,,,,,,,,,,,,,3,0,3,0,4,0,4,0,,,,,,chesume,nw,h,upper,,,,,,,3,nw,LoDemNoTar,h,1,0.9969577039591968,,,,,,,,,,,,,,,,,,,,329,2023-11-13_13h08.43.290,leap3,2022.2.5,60.00145016017659,
,,,,,,,,,,,,,,,,,,,,3,0,3,0,5,0,5,0,,,,,,athcan,nw,h,upper,,,,,,,3,nw,LoDemNoTar,h,1,0.9002341851592064,,,,,,,,,,,,,,,,,,,,329,2023-11-13_13h08.43.290,leap3,2022.2.5,60.00145016017659,
,,,,,,,,,,,,,,,,,,,,3,0,3,0,6,0,6,0,,,,,,nameplate,w,g,upper,,,,,,,3,w,LoDemNoTar,g,1,0.8630923223681748,,,,,,,,,,,,,,,,,,,,329,2023-11-13_13h08.43.290,leap3,2022.2.5,60.00145016017659,
,,,,,,,,,,,,,,,,,,,,3,0,3,0,7,0,7,0,,,,,,crundle,nw,h,upper,,,,,,,3,nw,LoDemNoTar,h,1,1.0679098926484585,,,,,,,,,,,,,,,,,,,,329,2023-11-13_13h08.43.290,leap3,2022.2.5,60.00145016017659,
,,,,,,,,,,,,,,,,,,,,3,0,3,0,8,0,8,0,,,,,,hostade,nw,h,upper,,,,,,,3,nw,LoDemNoTar,h,1,0.8396603185683489,,,,,,,,,,,,,,,,,,,,329,2023-11-13_13h08.43.290,leap3,2022.2.5,60.00145016017659,
,,,,,,,,,,,,,,,,,,,,3,0,3,0,9,0,9,0,,,,,,unbridled,w,g,upper,,,,,,,3,w,LoDemNoTar,h,0,0.9569282657466829,,,,,,,,,,,,,,,,,,,,329,2023-11-13_13h08.43.290,leap3,2022.2.5,60.00145016017659,
,,,,,,,,,,,,,,,,,,,,3,0,3,0,10,0,10,0,,,,,,markot,nw,h,upper,,,,,,,3,nw,LoDemNoTar,h,1,0.7496690689586103,,,,,,,,,,,,,,,,,,,,329,2023-11-13_13h08.43.290,leap3,2022.2.5,60.00145016017659,
,,,,,,,,,,,,,,,,,,,,3,0,3,0,11,0,11,0,,,,,,tinker,w,g,upper,,,,,,,3,w,LoDemNoTar,g,1,0.9825522713363171,,,,,,,,,,,,,,,,,,,,329,2023-11-13_13h08.43.290,leap3,2022.2.5,60.00145016017659,
,,,,,,,,,,,,,,,,,,,,3,0,3,0,12,0,12,0,,,,,,outlaved,nw,h,upper,,,,,,,3,nw,LoDemNoTar,h,1,1.1087146922945976,,,,,,,,,,,,,,,,,,,,329,2023-11-13_13h08.43.290,leap3,2022.2.5,60.00145016017659,
,,,,,,,,,,,,,,,,,,,,3,0,3,0,13,0,13,0,,,,,,saucer,w,g,upper,,,,,,,3,w,LoDemNoTar,g,1,0.8089779247529805,,,,,,,,,,,,,,,,,,,,329,2023-11-13_13h08.43.290,leap3,2022.2.5,60.00145016017659,
,,,,,,,,,,,,,,,,,,,,3,0,3,0,14,0,14,0,,,,,,snorls,nw,h,upper,,,,,,,3,nw,LoDemNoTar,g,0,0.6551921782083809,,,,,,,,,,,,,,,,,,,,329,2023-11-13_13h08.43.290,leap3,2022.2.5,60.00145016017659,
,,,,,,,,,,,,,,,,,,,,3,0,3,0,15,0,15,0,,,,,,omission,w,g,upper,,,,,,,3,w,LoDemNoTar,g,1,0.6284276433289051,,,,,,,,,,,,,,,,,,,,329,2023-11-13_13h08.43.290,leap3,2022.2.5,60.00145016017659,
,,,,,,,,,,,,,,,,,,,,3,0,3,0,16,0,16,0,,,,,,moozy,nw,h,upper,,,,,,,3,nw,LoDemNoTar,h,1,0.6898374566808343,,,,,,,,,,,,,,,,,,,,329,2023-11-13_13h08.43.290,leap3,2022.2.5,60.00145016017659,
,,,,,,,,,,,,,,,,,,,,3,0,3,0,17,0,17,0,,,,,,carony,nw,h,upper,,,,,,,3,nw,LoDemNoTar,h,1,0.6778693464584649,,,,,,,,,,,,,,,,,,,,329,2023-11-13_13h08.43.290,leap3,2022.2.5,60.00145016017659,
,,,,,,,,,,,,,,,,,,,,3,0,3,0,18,0,18,0,,,,,,monopoly,w,g,upper,,,,,,,3,w,LoDemNoTar,g,1,0.60991564206779,,,,,,,,,,,,,,,,,,,,329,2023-11-13_13h08.43.290,leap3,2022.2.5,60.00145016017659,
,,,,,,,,,,,,,,,,,,,,3,0,3,0,19,0,19,0,,,,,,nores,nw,h,upper,,,,,,,3,nw,LoDemNoTar,h,1,0.6724457894451916,,,,,,,,,,,,,,,,,,,,329,2023-11-13_13h08.43.290,leap3,2022.2.5,60.00145016017659,
,,,,,,,,,,,,,,,,,,,,3,0,3,0,20,0,20,0,,,,,,bellicove,nw,h,upper,,,,,,,3,nw,LoDemNoTar,h,1,0.7328084353357553,,,,,,,,,,,,,,,,,,,,329,2023-11-13_13h08.43.290,leap3,2022.2.5,60.00145016017659,
,,,,,,,,,,,,,,,,,,,,3,0,3,0,21,0,21,0,,,,,,castaway,w,g,upper,,,,,,,3,w,LoDemNoTar,g,1,0.6065410650335252,,,,,,,,,,,,,,,,,,,,329,2023-11-13_13h08.43.290,leap3,2022.2.5,60.00145016017659,
,,,,,,,,,,,,,,,,,,,,3,0,3,0,22,0,22,0,,,,,,portify,nw,h,upper,,,,,,,3,nw,LoDemNoTar,h,1,0.7402511755935848,,,,,,,,,,,,,,,,,,,,329,2023-11-13_13h08.43.290,leap3,2022.2.5,60.00145016017659,
,,,,,,,,,,,,,,,,,,,,3,0,3,0,23,0,23,0,,,,,,explosion,w,g,upper,,,,,,,3,w,LoDemNoTar,g,1,0.5178211163729429,,,,,,,,,,,,,,,,,,,,329,2023-11-13_13h08.43.290,leap3,2022.2.5,60.00145016017659,
,,,,,,,,,,,,,,,,,,,,3,0,3,0,24,0,24,0,,,,,,mabit,nw,h,upper,,,,,,,3,nw,LoDemNoTar,h,1,0.5754610584117472,,,,,,,,,,,,,,,,,,,,329,2023-11-13_13h08.43.290,leap3,2022.2.5,60.00145016017659,
,,,,,,,,,,,,,,,,,,,,3,0,3,0,25,0,25,0,,,,,,truthful,w,g,upper,,,,,,,3,w,LoDemNoTar,g,1,0.6556358090601861,,,,,,,,,,,,,,,,,,,,329,2023-11-13_13h08.43.290,leap3,2022.2.5,60.00145016017659,
,,,,,,,,,,,,,,,,,,,,3,0,3,0,26,0,26,0,,,,,,vivid,w,g,upper,,,,,,,3,w,LoDemNoTar,g,1,0.5719904717989266,,,,,,,,,,,,,,,,,,,,329,2023-11-13_13h08.43.290,leap3,2022.2.5,60.00145016017659,
,,,,,,,,,,,,,,,,,,,,3,0,3,0,27,0,27,0,,,,,,elvisages,nw,h,upper,,,,,,,3,nw,LoDemNoTar,h,1,0.644410946406424,,,,,,,,,,,,,,,,,,,,329,2023-11-13_13h08.43.290,leap3,2022.2.5,60.00145016017659,
,,,,,,,,,,,,,,,,,,,,3,0,3,0,28,0,28,0,,,,,,deserve,w,g,upper,,,,,,,3,w,LoDemNoTar,g,1,0.5219935672357678,,,,,,,,,,,,,,,,,,,,329,2023-11-13_13h08.43.290,leap3,2022.2.5,60.00145016017659,
,,,,,,,,,,,,,,,,,,,,3,0,3,0,29,0,29,0,,,,,,perform,w,g,upper,,,,,,,3,w,LoDemNoTar,g,1,0.5635144677944481,,,,,,,,,,,,,,,,,,,,329,2023-11-13_13h08.43.290,leap3,2022.2.5,60.00145016017659,
,,,,,,,,,,,,,,,,,,,,3,0,3,0,,,,,,,,,,,,,,,,,,,,,,,,,,,NA,,,,,,,,,,,,,,,,,,329,2023-11-13_13h08.43.290,leap3,2022.2.5,60.00145016017659,
,,,,,,,,,,,,,,,,,,,,4,0,4,0,0,0,0,0,,,,,,capobly,nw,h,lower,,,,,,,1,nw,HiDemTar,h,1,0.7165781543590128,,,,,,,,,,,,,,,,,,,,329,2023-11-13_13h08.43.290,leap3,2022.2.5,60.00145016017659,
,,,,,,,,,,,,,,,,,,,,4,0,4,0,1,0,1,0,,,,,,cayward,nw,h,lower,,,,,,,1,nw,HiDemTar,g,0,0.670947375241667,,,,,,,,,,,,,,,,,,,,329,2023-11-13_13h08.43.290,leap3,2022.2.5,60.00145016017659,
,,,,,,,,,,,,,,,,,,,,4,0,4,0,2,0,2,0,,,,,,asthmatic,w,g,lower,,,,,,,1,w,HiDemTar,g,1,0.5069528142921627,,,,,,,,,,,,,,,,,,,,329,2023-11-13_13h08.43.290,leap3,2022.2.5,60.00145016017659,
,,,,,,,,,,,,,,,,,,,,4,0,4,0,3,0,3,0,,,,,,elpired,nw,h,lower,,,,,,,1,nw,HiDemTar,h,1,0.7074045897461474,,,,,,,,,,,,,,,,,,,,329,2023-11-13_13h08.43.290,leap3,2022.2.5,60.00145016017659,
,,,,,,,,,,,,,,,,,,,,4,0,4,0,4,0,4,0,,,,,,prillway,nw,h,lower,,,,,,,1,nw,HiDemTar,h,1,0.5828167283907533,,,,,,,,,,,,,,,,,,,,329,2023-11-13_13h08.43.290,leap3,2022.2.5,60.00145016017659,
,,,,,,,,,,,,,,,,,,,,4,0,4,0,5,0,5,0,,,,,,martial,w,g,lower,,,,,,,1,w,HiDemTar,g,1,0.5353018413297832,,,,,,,,,,,,,,,,,,,,329,2023-11-13_13h08.43.290,leap3,2022.2.5,60.00145016017659,
,,,,,,,,,,,,,,,,,,,,4,0,4,0,6,0,6,0,,,,,,metrol,nw,h,lower,,,,,,,1,nw,HiDemTar,h,1,0.9364864686504006,,,,,,,,,,,,,,,,,,,,329,2023-11-13_13h08.43.290,leap3,2022.2.5,60.00145016017659,
,,,,,,,,,,,,,,,,,,,,4,0,4,0,7,0,7,0,,,,,,reddar,nw,h,lower,,,,,,,1,nw,HiDemTar,h,1,0.7222109464928508,,,,,,,,,,,,,,,,,,,,329,2023-11-13_13h08.43.290,leap3,2022.2.5,60.00145016017659,
,,,,,,,,,,,,,,,,,,,,4,0,4,0,8,0,8,0,,,,,,casino,w,g,lower,,,,,,,1,w,HiDemTar,g,1,0.6763139888644218,,,,,,,,,,,,,,,,,,,,329,2023-11-13_13h08.43.290,leap3,2022.2.5,60.00145016017659,
,,,,,,,,,,,,,,,,,,,,4,0,4,0,9,0,9,0,,,,,,chraps,nw,h,lower,,,,,,,1,nw,HiDemTar,h,1,0.6400415105745196,,,,,,,,,,,,,,,,,,,,329,2023-11-13_13h08.43.290,leap3,2022.2.5,60.00145016017659,
,,,,,,,,,,,,,,,,,,,,4,0,4,0,10,0,10,0,,,,,,chicken,target,q,lower,,,,,,,1,target,HiDemTar,g,0,0.509515612386167,,,,,,,,,,,,,,,,,,,,329,2023-11-13_13h08.43.290,leap3,2022.2.5,60.00145016017659,
,,,,,,,,,,,,,,,,,,,,4,0,4,0,11,0,11,0,,,,,,jungle,w,g,lower,,,,,,,1,aftertar1,HiDemTar,q,0,0.6321541452780366,,,1,,,,,,,,,,,,,,,,,329,2023-11-13_13h08.43.290,leap3,2022.2.5,60.00145016017659,
,,,,,,,,,,,,,,,,,,,,4,0,4,0,12,0,12,0,,,,,,dominion,w,g,lower,,,,,,,1,aftertar2,HiDemTar,g,1,0.9422867810353637,,,,,,,,,,,,,,,,,,,,329,2023-11-13_13h08.43.290,leap3,2022.2.5,60.00145016017659,
,,,,,,,,,,,,,,,,,,,,4,0,4,0,13,0,13,0,,,,,,uncorked,w,g,lower,,,,,,,1,aftertar3,HiDemTar,g,1,0.6478557102382183,,,,,,,,,,,,,,,,,,,,329,2023-11-13_13h08.43.290,leap3,2022.2.5,60.00145016017659,
,,,,,,,,,,,,,,,,,,,,4,0,4,0,14,0,14,0,,,,,,accessory,w,g,lower,,,,,,,1,w,HiDemTar,g,1,0.6368834520690143,,,,,,,,,,,,,,,,,,,,329,2023-11-13_13h08.43.290,leap3,2022.2.5,60.00145016017659,
,,,,,,,,,,,,,,,,,,,,4,0,4,0,15,0,15,0,,,,,,twarfs,nw,h,lower,,,,,,,1,w,HiDemTar,h,1,0.6813879376277328,,,,,,,,,,,,,,,,,,,,329,2023-11-13_13h08.43.290,leap3,2022.2.5,60.00145016017659,
,,,,,,,,,,,,,,,,,,,,4,0,4,0,16,0,16,0,,,,,,undimmec,nw,h,lower,,,,,,,1,nw,HiDemTar,h,1,0.6853544642217457,,,,,,,,,,,,,,,,,,,,329,2023-11-13_13h08.43.290,leap3,2022.2.5,60.00145016017659,
,,,,,,,,,,,,,,,,,,,,4,0,4,0,17,0,17,0,,,,,,arranged,w,g,lower,,,,,,,1,nw,HiDemTar,g,1,0.5128097394481301,,,,,,,,,,,,,,,,,,,,329,2023-11-13_13h08.43.290,leap3,2022.2.5,60.00145016017659,
,,,,,,,,,,,,,,,,,,,,4,0,4,0,18,0,18,0,,,,,,grefab,nw,h,lower,,,,,,,1,w,HiDemTar,h,1,0.5875198808498681,,,,,,,,,,,,,,,,,,,,329,2023-11-13_13h08.43.290,leap3,2022.2.5,60.00145016017659,
,,,,,,,,,,,,,,,,,,,,4,0,4,0,19,0,19,0,,,,,,ilterfere,nw,h,lower,,,,,,,1,nw,HiDemTar,h,1,0.6188713638111949,,,,,,,,,,,,,,,,,,,,329,2023-11-13_13h08.43.290,leap3,2022.2.5,60.00145016017659,
,,,,,,,,,,,,,,,,,,,,4,0,4,0,20,0,20,0,,,,,,temelity,nw,h,lower,,,,,,,1,nw,HiDemTar,h,1,0.656091027893126,,,,,,,,,,,,,,,,,,,,329,2023-11-13_13h08.43.290,leap3,2022.2.5,60.00145016017659,
,,,,,,,,,,,,,,,,,,,,4,0,4,0,21,0,21,0,,,,,,expired,w,g,lower,,,,,,,1,nw,HiDemTar,g,1,0.5815997221507132,,,,,,,,,,,,,,,,,,,,329,2023-11-13_13h08.43.290,leap3,2022.2.5,60.00145016017659,
,,,,,,,,,,,,,,,,,,,,4,0,4,0,22,0,22,0,,,,,,urgency,w,g,lower,,,,,,,1,w,HiDemTar,g,1,0.5173314670100808,,,,,,,,,,,,,,,,,,,,329,2023-11-13_13h08.43.290,leap3,2022.2.5,60.00145016017659,
,,,,,,,,,,,,,,,,,,,,4,0,4,0,23,0,23,0,,,,,,bluads,nw,h,lower,,,,,,,1,w,HiDemTar,h,1,0.5355031304061413,,,,,,,,,,,,,,,,,,,,329,2023-11-13_13h08.43.290,leap3,2022.2.5,60.00145016017659,
,,,,,,,,,,,,,,,,,,,,4,0,4,0,24,0,24,0,,,,,,levels,w,g,lower,,,,,,,1,nw,HiDemTar,g,1,0.6809939667582512,,,,,,,,,,,,,,,,,,,,329,2023-11-13_13h08.43.290,leap3,2022.2.5,60.00145016017659,
,,,,,,,,,,,,,,,,,,,,4,0,4,0,25,0,25,0,,,,,,intended,w,g,lower,,,,,,,1,w,HiDemTar,g,1,0.6281396136619151,,,,,,,,,,,,,,,,,,,,329,2023-11-13_13h08.43.290,leap3,2022.2.5,60.00145016017659,
,,,,,,,,,,,,,,,,,,,,4,0,4,0,26,0,26,0,,,,,,sampling,w,g,lower,,,,,,,1,w,HiDemTar,g,1,0.57791493460536,,,,,,,,,,,,,,,,,,,,329,2023-11-13_13h08.43.290,leap3,2022.2.5,60.00145016017659,
,,,,,,,,,,,,,,,,,,,,4,0,4,0,27,0,27,0,,,,,,currowing,nw,h,lower,,,,,,,1,w,HiDemTar,h,1,0.8419287968426943,,,,,,,,,,,,,,,,,,,,329,2023-11-13_13h08.43.290,leap3,2022.2.5,60.00145016017659,
,,,,,,,,,,,,,,,,,,,,4,0,4,0,28,0,28,0,,,,,,stooping,w,g,lower,,,,,,,1,nw,HiDemTar,g,1,0.6391989421099424,,,,,,,,,,,,,,,,,,,,329,2023-11-13_13h08.43.290,leap3,2022.2.5,60.00145016017659,
,,,,,,,,,,,,,,,,,,,,4,0,4,0,29,0,29,0,,,,,,neuran,nw,h,lower,,,,,,,1,w,HiDemTar,h,1,0.5568540403619409,,,,,,,,,,,,,,,,,,,,329,2023-11-13_13h08.43.290,leap3,2022.2.5,60.00145016017659,
,,,,,,,,,,,,,,,,,,,,4,0,4,0,,,,,,,,,,,,,,,,,,,,,,,,,,,1,,,,,,,,,,,,,,,,,,329,2023-11-13_13h08.43.290,leap3,2022.2.5,60.00145016017659,
,,,,,,,,,,,,,,,,,,,,5,0,5,0,0,0,0,0,,,,,,reborn,w,g,lower,,,,,,,1,w,HiDemTar,g,1,0.6606180523522198,,,,,,,,,,,,,,,,,,,,329,2023-11-13_13h08.43.290,leap3,2022.2.5,60.00145016017659,
,,,,,,,,,,,,,,,,,,,,5,0,5,0,1,0,1,0,,,,,,seldom,w,g,lower,,,,,,,1,w,HiDemTar,g,1,0.7931532026268542,,,,,,,,,,,,,,,,,,,,329,2023-11-13_13h08.43.290,leap3,2022.2.5,60.00145016017659,
,,,,,,,,,,,,,,,,,,,,5,0,5,0,2,0,2,0,,,,,,greakable,nw,h,lower,,,,,,,1,nw,HiDemTar,h,1,0.6005752189084888,,,,,,,,,,,,,,,,,,,,329,2023-11-13_13h08.43.290,leap3,2022.2.5,60.00145016017659,
,,,,,,,,,,,,,,,,,,,,5,0,5,0,3,0,3,0,,,,,,ucility,nw,h,lower,,,,,,,1,nw,HiDemTar,h,1,0.7513273889198899,,,,,,,,,,,,,,,,,,,,329,2023-11-13_13h08.43.290,leap3,2022.2.5,60.00145016017659,
,,,,,,,,,,,,,,,,,,,,5,0,5,0,4,0,4,0,,,,,,coupling,w,g,lower,,,,,,,1,w,HiDemTar,g,1,0.8082383186556399,,,,,,,,,,,,,,,,,,,,329,2023-11-13_13h08.43.290,leap3,2022.2.5,60.00145016017659,
,,,,,,,,,,,,,,,,,,,,5,0,5,0,5,0,5,0,,,,,,gures,nw,h,lower,,,,,,,1,nw,HiDemTar,h,1,0.9669066569767892,,,,,,,,,,,,,,,,,,,,329,2023-11-13_13h08.43.290,leap3,2022.2.5,60.00145016017659,
,,,,,,,,,,,,,,,,,,,,5,0,5,0,6,0,6,0,,,,,,publish,w,g,lower,,,,,,,1,w,HiDemTar,g,1,0.5594635191373527,,,,,,,,,,,,,,,,,,,,329,2023-11-13_13h08.43.290,leap3,2022.2.5,60.00145016017659,
,,,,,,,,,,,,,,,,,,,,5,0,5,0,7,0,7,0,,,,,,buzzer,w,g,lower,,,,,,,1,w,HiDemTar,g,1,0.6641300218179822,,,,,,,,,,,,,,,,,,,,329,2023-11-13_13h08.43.290,leap3,2022.2.5,60.00145016017659,
,,,,,,,,,,,,,,,,,,,,5,0,5,0,8,0,8,0,,,,,,religious,w,g,lower,,,,,,,1,w,HiDemTar,g,1,0.5169302122667432,,,,,,,,,,,,,,,,,,,,329,2023-11-13_13h08.43.290,leap3,2022.2.5,60.00145016017659,
,,,,,,,,,,,,,,,,,,,,5,0,5,0,9,0,9,0,,,,,,ounwit,nw,h,lower,,,,,,,1,nw,HiDemTar,h,1,0.583010071888566,,,,,,,,,,,,,,,,,,,,329,2023-11-13_13h08.43.290,leap3,2022.2.5,60.00145016017659,
,,,,,,,,,,,,,,,,,,,,5,0,5,0,10,0,10,0,,,,,,holdup,w,g,lower,,,,,,,1,w,HiDemTar,g,1,0.5507723200134933,,,,,,,,,,,,,,,,,,,,329,2023-11-13_13h08.43.290,leap3,2022.2.5,60.00145016017659,
,,,,,,,,,,,,,,,,,,,,5,0,5,0,11,0,11,0,,,,,,slogan,w,g,lower,,,,,,,1,w,HiDemTar,g,1,0.6074435566551983,,,,,,,,,,,,,,,,,,,,329,2023-11-13_13h08.43.290,leap3,2022.2.5,60.00145016017659,
,,,,,,,,,,,,,,,,,,,,5,0,5,0,12,0,12,0,,,,,,odacles,nw,h,lower,,,,,,,1,nw,HiDemTar,h,1,0.5661097099073231,,,,,,,,,,,,,,,,,,,,329,2023-11-13_13h08.43.290,leap3,2022.2.5,60.00145016017659,
,,,,,,,,,,,,,,,,,,,,5,0,5,0,13,0,13,0,,,,,,gestalion,nw,h,lower,,,,,,,1,nw,HiDemTar,h,1,1.1508040367625654,,,,,,,,,,,,,,,,,,,,329,2023-11-13_13h08.43.290,leap3,2022.2.5,60.00145016017659,
,,,,,,,,,,,,,,,,,,,,5,0,5,0,14,0,14,0,,,,,,offonents,nw,h,lower,,,,,,,1,nw,HiDemTar,h,1,1.175585473421961,,,,,,,,,,,,,,,,,,,,329,2023-11-13_13h08.43.290,leap3,2022.2.5,60.00145016017659,
,,,,,,,,,,,,,,,,,,,,5,0,5,0,15,0,15,0,,,,,,octopus,target,q,lower,,,,,,,1,target,HiDemTar,q,1,0.6315251160413027,1,,,,,,,,,,,,,,,,,,,329,2023-11-13_13h08.43.290,leap3,2022.2.5,60.00145016017659,
,,,,,,,,,,,,,,,,,,,,5,0,5,0,16,0,16,0,,,,,,envelop,w,g,lower,,,,,,,1,aftertar1,HiDemTar,g,1,0.7012702296487987,,,,,,,,,,,,,,,,,,,,329,2023-11-13_13h08.43.290,leap3,2022.2.5,60.00145016017659,
,,,,,,,,,,,,,,,,,,,,5,0,5,0,17,0,17,0,,,,,,ameld,nw,h,lower,,,,,,,1,aftertar2,HiDemTar,h,1,0.5518542504869401,,,,,,,,,,,,,,,,,,,,329,2023-11-13_13h08.43.290,leap3,2022.2.5,60.00145016017659,
,,,,,,,,,,,,,,,,,,,,5,0,5,0,18,0,18,0,,,,,,anemic,w,g,lower,,,,,,,1,aftertar3,HiDemTar,g,1,0.5596360052004457,,,,,,,,,,,,,,,,,,,,329,2023-11-13_13h08.43.290,leap3,2022.2.5,60.00145016017659,
,,,,,,,,,,,,,,,,,,,,5,0,5,0,19,0,19,0,,,,,,tredits,nw,h,lower,,,,,,,1,w,HiDemTar,h,1,0.6081331712193787,,,,,,,,,,,,,,,,,,,,329,2023-11-13_13h08.43.290,leap3,2022.2.5,60.00145016017659,
,,,,,,,,,,,,,,,,,,,,5,0,5,0,20,0,20,0,,,,,,carbled,nw,h,lower,,,,,,,1,nw,HiDemTar,h,1,0.8069402007386088,,,,,,,,,,,,,,,,,,,,329,2023-11-13_13h08.43.290,leap3,2022.2.5,60.00145016017659,
,,,,,,,,,,,,,,,,,,,,5,0,5,0,21,0,21,0,,,,,,calcify,w,g,lower,,,,,,,1,nw,HiDemTar,h,0,0.7814145227894187,,,,,,,,,,,,,,,,,,,,329,2023-11-13_13h08.43.290,leap3,2022.2.5,60.00145016017659,
,,,,,,,,,,,,,,,,,,,,5,0,5,0,22,0,22,0,,,,,,duries,nw,h,lower,,,,,,,1,w,HiDemTar,h,1,1.5640057721175253,,,,,,,,,,,,,,,,,,,,329,2023-11-13_13h08.43.290,leap3,2022.2.5,60.00145016017659,
,,,,,,,,,,,,,,,,,,,,5,0,5,0,23,0,23,0,,,,,,erithets,nw,h,lower,,,,,,,1,nw,HiDemTar,h,1,0.566517916508019,,,,,,,,,,,,,,,,,,,,329,2023-11-13_13h08.43.290,leap3,2022.2.5,60.00145016017659,
,,,,,,,,,,,,,,,,,,,,5,0,5,0,24,0,24,0,,,,,,flicking,w,g,lower,,,,,,,1,nw,HiDemTar,g,1,0.5831295875832438,,,,,,,,,,,,,,,,,,,,329,2023-11-13_13h08.43.290,leap3,2022.2.5,60.00145016017659,
,,,,,,,,,,,,,,,,,,,,5,0,5,0,25,0,25,0,,,,,,perishing,w,g,lower,,,,,,,1,w,HiDemTar,g,1,0.559146024286747,,,,,,,,,,,,,,,,,,,,329,2023-11-13_13h08.43.290,leap3,2022.2.5,60.00145016017659,
,,,,,,,,,,,,,,,,,,,,5,0,5,0,26,0,26,0,,,,,,machinery,w,g,lower,,,,,,,1,w,HiDemTar,g,1,0.6638711271807551,,,,,,,,,,,,,,,,,,,,329,2023-11-13_13h08.43.290,leap3,2022.2.5,60.00145016017659,
,,,,,,,,,,,,,,,,,,,,5,0,5,0,27,0,27,0,,,,,,numbled,nw,h,lower,,,,,,,1,w,HiDemTar,g,0,1.059669939801097,,,,,,,,,,,,,,,,,,,,329,2023-11-13_13h08.43.290,leap3,2022.2.5,60.00145016017659,
,,,,,,,,,,,,,,,,,,,,5,0,5,0,28,0,28,0,,,,,,neliefs,nw,h,lower,,,,,,,1,nw,HiDemTar,h,1,0.6245084595866501,,,,,,,,,,,,,,,,,,,,329,2023-11-13_13h08.43.290,leap3,2022.2.5,60.00145016017659,
,,,,,,,,,,,,,,,,,,,,5,0,5,0,29,0,29,0,,,,,,defensa,nw,h,lower,,,,,,,1,nw,HiDemTar,h,1,0.8142038341611624,,,,,,,,,,,,,,,,,,,,329,2023-11-13_13h08.43.290,leap3,2022.2.5,60.00145016017659,
,,,,,,,,,,,,,,,,,,,,5,0,5,0,,,,,,,,,,,,,,,,,,,,,,,,,,,1,,,,,,,,,,,,,,,,,,329,2023-11-13_13h08.43.290,leap3,2022.2.5,60.00145016017659,
,,,,,,,,,,,,,,,,,,,,6,0,6,0,0,0,0,0,,,,,,oginous,nw,h,upper,,,,,,,3,nw,LoDemNoTar,h,1,0.7572611216455698,,,,,,,,,,,,,,,,,,,,329,2023-11-13_13h08.43.290,leap3,2022.2.5,60.00145016017659,
,,,,,,,,,,,,,,,,,,,,6,0,6,0,1,0,1,0,,,,,,trooper,w,g,upper,,,,,,,3,w,LoDemNoTar,g,1,0.5493222419172525,,,,,,,,,,,,,,,,,,,,329,2023-11-13_13h08.43.290,leap3,2022.2.5,60.00145016017659,
,,,,,,,,,,,,,,,,,,,,6,0,6,0,2,0,2,0,,,,,,lignpost,nw,h,upper,,,,,,,3,nw,LoDemNoTar,h,1,0.8943858686834574,,,,,,,,,,,,,,,,,,,,329,2023-11-13_13h08.43.290,leap3,2022.2.5,60.00145016017659,
,,,,,,,,,,,,,,,,,,,,6,0,6,0,3,0,3,0,,,,,,tasher,nw,h,upper,,,,,,,3,nw,LoDemNoTar,h,1,0.7535236943513155,,,,,,,,,,,,,,,,,,,,329,2023-11-13_13h08.43.290,leap3,2022.2.5,60.00145016017659,
,,,,,,,,,,,,,,,,,,,,6,0,6,0,4,0,4,0,,,,,,passet,nw,h,upper,,,,,,,3,nw,LoDemNoTar,h,1,0.9303676690906286,,,,,,,,,,,,,,,,,,,,329,2023-11-13_13h08.43.290,leap3,2022.2.5,60.00145016017659,
,,,,,,,,,,,,,,,,,,,,6,0,6,0,5,0,5,0,,,,,,befin,nw,h,upper,,,,,,,3,nw,LoDemNoTar,h,1,0.8042909945361316,,,,,,,,,,,,,,,,,,,,329,2023-11-13_13h08.43.290,leap3,2022.2.5,60.00145016017659,
,,,,,,,,,,,,,,,,,,,,6,0,6,0,6,0,6,0,,,,,,dumult,nw,h,upper,,,,,,,3,nw,LoDemNoTar,h,1,0.48303513415157795,,,,,,,,,,,,,,,,,,,,329,2023-11-13_13h08.43.290,leap3,2022.2.5,60.00145016017659,
,,,,,,,,,,,,,,,,,,,,6,0,6,0,7,0,7,0,,,,,,warden,w,g,upper,,,,,,,3,w,LoDemNoTar,g,1,0.5991436806507409,,,,,,,,,,,,,,,,,,,,329,2023-11-13_13h08.43.290,leap3,2022.2.5,60.00145016017659,
,,,,,,,,,,,,,,,,,,,,6,0,6,0,8,0,8,0,,,,,,gazes,w,g,upper,,,,,,,3,w,LoDemNoTar,g,1,0.5344701982103288,,,,,,,,,,,,,,,,,,,,329,2023-11-13_13h08.43.290,leap3,2022.2.5,60.00145016017659,
,,,,,,,,,,,,,,,,,,,,6,0,6,0,9,0,9,0,,,,,,chappef,nw,h,upper,,,,,,,3,nw,LoDemNoTar,h,1,0.48771875351667404,,,,,,,,,,,,,,,,,,,,329,2023-11-13_13h08.43.290,leap3,2022.2.5,60.00145016017659,
,,,,,,,,,,,,,,,,,,,,6,0,6,0,10,0,10,0,,,,,,frigs,nw,h,upper,,,,,,,3,nw,LoDemNoTar,h,1,0.6749933580867946,,,,,,,,,,,,,,,,,,,,329,2023-11-13_13h08.43.290,leap3,2022.2.5,60.00145016017659,
,,,,,,,,,,,,,,,,,,,,6,0,6,0,11,0,11,0,,,,,,obviously,w,g,upper,,,,,,,3,w,LoDemNoTar,g,1,0.5261577409692109,,,,,,,,,,,,,,,,,,,,329,2023-11-13_13h08.43.290,leap3,2022.2.5,60.00145016017659,
,,,,,,,,,,,,,,,,,,,,6,0,6,0,12,0,12,0,,,,,,wrestle,w,g,upper,,,,,,,3,w,LoDemNoTar,g,1,0.48012934951111674,,,,,,,,,,,,,,,,,,,,329,2023-11-13_13h08.43.290,leap3,2022.2.5,60.00145016017659,
,,,,,,,,,,,,,,,,,,,,6,0,6,0,13,0,13,0,,,,,,unwose,nw,h,upper,,,,,,,3,nw,LoDemNoTar,h,1,0.6122566242702305,,,,,,,,,,,,,,,,,,,,329,2023-11-13_13h08.43.290,leap3,2022.2.5,60.00145016017659,
,,,,,,,,,,,,,,,,,,,,6,0,6,0,14,0,14,0,,,,,,natch,nw,h,upper,,,,,,,3,nw,LoDemNoTar,h,1,0.6990990857593715,,,,,,,,,,,,,,,,,,,,329,2023-11-13_13h08.43.290,leap3,2022.2.5,60.00145016017659,
,,,,,,,,,,,,,,,,,,,,6,0,6,0,15,0,15,0,,,,,,hindsight,w,g,upper,,,,,,,3,w,LoDemNoTar,g,1,0.7582006929442286,,,,,,,,,,,,,,,,,,,,329,2023-11-13_13h08.43.290,leap3,2022.2.5,60.00145016017659,
,,,,,,,,,,,,,,,,,,,,6,0,6,0,16,0,16,0,,,,,,rantho,nw,h,upper,,,,,,,3,nw,LoDemNoTar,h,1,0.5990049629472196,,,,,,,,,,,,,,,,,,,,329,2023-11-13_13h08.43.290,leap3,2022.2.5,60.00145016017659,
,,,,,,,,,,,,,,,,,,,,6,0,6,0,17,0,17,0,,,,,,stretches,w,g,upper,,,,,,,3,w,LoDemNoTar,g,1,0.5504074832424521,,,,,,,,,,,,,,,,,,,,329,2023-11-13_13h08.43.290,leap3,2022.2.5,60.00145016017659,
,,,,,,,,,,,,,,,,,,,,6,0,6,0,18,0,18,0,,,,,,vintnel,nw,h,upper,,,,,,,3,nw,LoDemNoTar,h,1,0.623133865185082,,,,,,,,,,,,,,,,,,,,329,2023-11-13_13h08.43.290,leap3,2022.2.5,60.00145016017659,
,,,,,,,,,,,,,,,,,,,,6,0,6,0,19,0,19,0,,,,,,mopping,w,g,upper,,,,,,,3,w,LoDemNoTar,g,1,0.5009714080952108,,,,,,,,,,,,,,,,,,,,329,2023-11-13_13h08.43.290,leap3,2022.2.5,60.00145016017659,
,,,,,,,,,,,,,,,,,,,,6,0,6,0,20,0,20,0,,,,,,paranoid,w,g,upper,,,,,,,3,w,LoDemNoTar,g,1,0.616101979278028,,,,,,,,,,,,,,,,,,,,329,2023-11-13_13h08.43.290,leap3,2022.2.5,60.00145016017659,
,,,,,,,,,,,,,,,,,,,,6,0,6,0,21,0,21,0,,,,,,curricula,w,g,upper,,,,,,,3,w,LoDemNoTar,h,0,0.669832338578999,,,,,,,,,,,,,,,,,,,,329,2023-11-13_13h08.43.290,leap3,2022.2.5,60.00145016017659,
,,,,,,,,,,,,,,,,,,,,6,0,6,0,22,0,22,0,,,,,,tracing,w,g,upper,,,,,,,3,w,LoDemNoTar,g,1,0.6499728900380433,,,,,,,,,,,,,,,,,,,,329,2023-11-13_13h08.43.290,leap3,2022.2.5,60.00145016017659,
,,,,,,,,,,,,,,,,,,,,6,0,6,0,23,0,23,0,,,,,,absent,w,g,upper,,,,,,,3,w,LoDemNoTar,g,1,0.7352361571975052,,,,,,,,,,,,,,,,,,,,329,2023-11-13_13h08.43.290,leap3,2022.2.5,60.00145016017659,
,,,,,,,,,,,,,,,,,,,,6,0,6,0,24,0,24,0,,,,,,yearnungs,nw,h,upper,,,,,,,3,nw,LoDemNoTar,h,1,0.8566454341635108,,,,,,,,,,,,,,,,,,,,329,2023-11-13_13h08.43.290,leap3,2022.2.5,60.00145016017659,
,,,,,,,,,,,,,,,,,,,,6,0,6,0,25,0,25,0,,,,,,prawls,nw,h,upper,,,,,,,3,nw,LoDemNoTar,h,1,0.6532670175656676,,,,,,,,,,,,,,,,,,,,329,2023-11-13_13h08.43.290,leap3,2022.2.5,60.00145016017659,
,,,,,,,,,,,,,,,,,,,,6,0,6,0,26,0,26,0,,,,,,crimb,nw,h,upper,,,,,,,3,nw,LoDemNoTar,g,0,0.4740343866869807,,,,,,,,,,,,,,,,,,,,329,2023-11-13_13h08.43.290,leap3,2022.2.5,60.00145016017659,
,,,,,,,,,,,,,,,,,,,,6,0,6,0,27,0,27,0,,,,,,harmful,w,g,upper,,,,,,,3,w,LoDemNoTar,g,1,0.4860634133219719,,,,,,,,,,,,,,,,,,,,329,2023-11-13_13h08.43.290,leap3,2022.2.5,60.00145016017659,
,,,,,,,,,,,,,,,,,,,,6,0,6,0,28,0,28,0,,,,,,movie,w,g,upper,,,,,,,3,w,LoDemNoTar,g,1,0.4574124529026449,,,,,,,,,,,,,,,,,,,,329,2023-11-13_13h08.43.290,leap3,2022.2.5,60.00145016017659,
,,,,,,,,,,,,,,,,,,,,6,0,6,0,29,0,29,0,,,,,,glassware,w,g,upper,,,,,,,3,w,LoDemNoTar,g,1,0.5901604797691107,,,,,,,,,,,,,,,,,,,,329,2023-11-13_13h08.43.290,leap3,2022.2.5,60.00145016017659,
,,,,,,,,,,,,,,,,,,,,6,0,6,0,,,,,,,,,,,,,,,,,,,,,,,,,,,NA,,,,,,,,,,,,,,,,,,329,2023-11-13_13h08.43.290,leap3,2022.2.5,60.00145016017659,
,,,,,,,,,,,,,,,,,,,,7,0,7,0,0,0,0,0,,,,,,icepick,w,g,upper,,,,,,,4,w,LoDemTar,g,1,0.9652006635442376,,,,,,,,,,,,,,,,,,,,329,2023-11-13_13h08.43.290,leap3,2022.2.5,60.00145016017659,
,,,,,,,,,,,,,,,,,,,,7,0,7,0,1,0,1,0,,,,,,computer,w,g,upper,,,,,,,4,w,LoDemTar,g,1,0.47792907105758786,,,,,,,,,,,,,,,,,,,,329,2023-11-13_13h08.43.290,leap3,2022.2.5,60.00145016017659,
,,,,,,,,,,,,,,,,,,,,7,0,7,0,2,0,2,0,,,,,,armada,w,g,upper,,,,,,,4,w,LoDemTar,h,0,0.6019666977226734,,,,,,,,,,,,,,,,,,,,329,2023-11-13_13h08.43.290,leap3,2022.2.5,60.00145016017659,
,,,,,,,,,,,,,,,,,,,,7,0,7,0,3,0,3,0,,,,,,caution,w,g,upper,,,,,,,4,w,LoDemTar,g,1,0.46470488887280226,,,,,,,,,,,,,,,,,,,,329,2023-11-13_13h08.43.290,leap3,2022.2.5,60.00145016017659,
,,,,,,,,,,,,,,,,,,,,7,0,7,0,4,0,4,0,,,,,,razelle,nw,h,upper,,,,,,,4,nw,LoDemTar,h,1,0.5893407552503049,,,,,,,,,,,,,,,,,,,,329,2023-11-13_13h08.43.290,leap3,2022.2.5,60.00145016017659,
,,,,,,,,,,,,,,,,,,,,7,0,7,0,5,0,5,0,,,,,,mebase,nw,h,upper,,,,,,,4,nw,LoDemTar,h,1,0.531783249694854,,,,,,,,,,,,,,,,,,,,329,2023-11-13_13h08.43.290,leap3,2022.2.5,60.00145016017659,
,,,,,,,,,,,,,,,,,,,,7,0,7,0,6,0,6,0,,,,,,poughest,nw,h,upper,,,,,,,4,nw,LoDemTar,h,1,0.5155827654525638,,,,,,,,,,,,,,,,,,,,329,2023-11-13_13h08.43.290,leap3,2022.2.5,60.00145016017659,
,,,,,,,,,,,,,,,,,,,,7,0,7,0,7,0,7,0,,,,,,resume,w,g,upper,,,,,,,4,w,LoDemTar,h,0,0.44666465977206826,,,,,,,,,,,,,,,,,,,,329,2023-11-13_13h08.43.290,leap3,2022.2.5,60.00145016017659,
,,,,,,,,,,,,,,,,,,,,7,0,7,0,8,0,8,0,,,,,,create,w,g,upper,,,,,,,4,w,LoDemTar,g,1,0.4367173886857927,,,,,,,,,,,,,,,,,,,,329,2023-11-13_13h08.43.290,leap3,2022.2.5,60.00145016017659,
,,,,,,,,,,,,,,,,,,,,7,0,7,0,9,0,9,0,,,,,,sunhess,nw,h,upper,,,,,,,4,nw,LoDemTar,h,1,0.8746969201602042,,,,,,,,,,,,,,,,,,,,329,2023-11-13_13h08.43.290,leap3,2022.2.5,60.00145016017659,
,,,,,,,,,,,,,,,,,,,,7,0,7,0,10,0,10,0,,,,,,bumbo,nw,h,upper,,,,,,,4,nw,LoDemTar,g,0,0.5430965069681406,,,,,,,,,,,,,,,,,,,,329,2023-11-13_13h08.43.290,leap3,2022.2.5,60.00145016017659,
,,,,,,,,,,,,,,,,,,,,7,0,7,0,11,0,11,0,,,,,,bookend,w,g,upper,,,,,,,4,w,LoDemTar,g,1,0.4566165651194751,,,,,,,,,,,,,,,,,,,,329,2023-11-13_13h08.43.290,leap3,2022.2.5,60.00145016017659,
,,,,,,,,,,,,,,,,,,,,7,0,7,0,12,0,12,0,,,,,,ugifies,nw,h,upper,,,,,,,4,nw,LoDemTar,h,1,0.4767123959027231,,,,,,,,,,,,,,,,,,,,329,2023-11-13_13h08.43.290,leap3,2022.2.5,60.00145016017659,
,,,,,,,,,,,,,,,,,,,,7,0,7,0,13,0,13,0,,,,,,carnival,w,g,upper,,,,,,,4,w,LoDemTar,g,1,0.5373928667977452,,,,,,,,,,,,,,,,,,,,329,2023-11-13_13h08.43.290,leap3,2022.2.5,60.00145016017659,
,,,,,,,,,,,,,,,,,,,,7,0,7,0,14,0,14,0,,,,,,egcused,nw,h,upper,,,,,,,4,nw,LoDemTar,h,1,0.7066404847428203,,,,,,,,,,,,,,,,,,,,329,2023-11-13_13h08.43.290,leap3,2022.2.5,60.00145016017659,
,,,,,,,,,,,,,,,,,,,,7,0,7,0,15,0,15,0,,,,,,sengry,nw,h,upper,,,,,,,4,nw,LoDemTar,h,1,0.6999409915879369,,,,,,,,,,,,,,,,,,,,329,2023-11-13_13h08.43.290,leap3,2022.2.5,60.00145016017659,
,,,,,,,,,,,,,,,,,,,,7,0,7,0,16,0,16,0,,,,,,gonesty,nw,h,upper,,,,,,,4,nw,LoDemTar,h,1,0.6460990631021559,,,,,,,,,,,,,,,,,,,,329,2023-11-13_13h08.43.290,leap3,2022.2.5,60.00145016017659,
,,,,,,,,,,,,,,,,,,,,7,0,7,0,17,0,17,0,,,,,,populace,w,g,upper,,,,,,,4,w,LoDemTar,h,0,0.6588173732161522,,,,,,,,,,,,,,,,,,,,329,2023-11-13_13h08.43.290,leap3,2022.2.5,60.00145016017659,
,,,,,,,,,,,,,,,,,,,,7,0,7,0,18,0,18,0,,,,,,country,w,g,upper,,,,,,,4,w,LoDemTar,g,1,0.6069572176784277,,,,,,,,,,,,,,,,,,,,329,2023-11-13_13h08.43.290,leap3,2022.2.5,60.00145016017659,
,,,,,,,,,,,,,,,,,,,,7,0,7,0,19,0,19,0,,,,,,blerapies,nw,h,upper,,,,,,,4,nw,LoDemTar,h,1,0.4929982959292829,,,,,,,,,,,,,,,,,,,,329,2023-11-13_13h08.43.290,leap3,2022.2.5,60.00145016017659,
,,,,,,,,,,,,,,,,,,,,7,0,7,0,20,0,20,0,,,,,,praiged,nw,h,upper,,,,,,,4,nw,LoDemTar,h,1,0.5684344694018364,,,,,,,,,,,,,,,,,,,,329,2023-11-13_13h08.43.290,leap3,2022.2.5,60.00145016017659,
,,,,,,,,,,,,,,,,,,,,7,0,7,0,21,0,21,0,,,,,,consonant,w,g,upper,,,,,,,4,w,LoDemTar,h,0,0.5925918435677886,,,,,,,,,,,,,,,,,,,,329,2023-11-13_13h08.43.290,leap3,2022.2.5,60.00145016017659,
,,,,,,,,,,,,,,,,,,,,7,0,7,0,22,0,22,0,,,,,,encrusted,w,g,upper,,,,,,,4,w,LoDemTar,h,0,0.5277756708674133,,,,,,,,,,,,,,,,,,,,329,2023-11-13_13h08.43.290,leap3,2022.2.5,60.00145016017659,
,,,,,,,,,,,,,,,,,,,,7,0,7,0,23,0,23,0,,,,,,aviation,w,g,upper,,,,,,,4,w,LoDemTar,g,1,0.6498245713301003,,,,,,,,,,,,,,,,,,,,329,2023-11-13_13h08.43.290,leap3,2022.2.5,60.00145016017659,
,,,,,,,,,,,,,,,,,,,,7,0,7,0,24,0,24,0,,,,,,nauling,nw,h,upper,,,,,,,4,nw,LoDemTar,h,1,0.5993327205069363,,,,,,,,,,,,,,,,,,,,329,2023-11-13_13h08.43.290,leap3,2022.2.5,60.00145016017659,
,,,,,,,,,,,,,,,,,,,,7,0,7,0,25,0,25,0,,,,,,overcoat,w,g,upper,,,,,,,4,w,LoDemTar,g,1,0.7499759690836072,,,,,,,,,,,,,,,,,,,,329,2023-11-13_13h08.43.290,leap3,2022.2.5,60.00145016017659,
,,,,,,,,,,,,,,,,,,,,7,0,7,0,26,0,26,0,,,,,,ladybug,target,q,upper,,,,,,,4,target,LoDemTar,q,1,0.7987965890206397,1,,,,,,,,,,,,,,,,,,,329,2023-11-13_13h08.43.290,leap3,2022.2.5,60.00145016017659,
,,,,,,,,,,,,,,,,,,,,7,0,7,0,27,0,27,0,,,,,,fomes,nw,h,upper,,,,,,,4,aftertar1,LoDemTar,h,1,0.7024183738976717,,,,,,,,,,,,,,,,,,,,329,2023-11-13_13h08.43.290,leap3,2022.2.5,60.00145016017659,
,,,,,,,,,,,,,,,,,,,,7,0,7,0,28,0,28,0,,,,,,scrobby,nw,h,upper,,,,,,,4,aftertar2,LoDemTar,h,1,0.9291023267433047,,,,,,,,,,,,,,,,,,,,329,2023-11-13_13h08.43.290,leap3,2022.2.5,60.00145016017659,
,,,,,,,,,,,,,,,,,,,,7,0,7,0,29,0,29,0,,,,,,apology,w,g,upper,,,,,,,4,aftertar3,LoDemTar,g,1,0.5072074057534337,,,,,,,,,,,,,,,,,,,,329,2023-11-13_13h08.43.290,leap3,2022.2.5,60.00145016017659,
,,,,,,,,,,,,,,,,,,,,7,0,7,0,,,,,,,,,,,,,,,,,,,,,,,,,,,1,,,,,,,,,,,,,,,,,,329,2023-11-13_13h08.43.290,leap3,2022.2.5,60.00145016017659,
,,,,,,,,,,,,,,,,,,,,8,0,8,0,0,0,0,0,,,,,,urique,nw,h,lower,,,,,,,1,nw,HiDemTar,h,1,0.7400227393954992,,,,,,,,,,,,,,,,,,,,329,2023-11-13_13h08.43.290,leap3,2022.2.5,60.00145016017659,
,,,,,,,,,,,,,,,,,,,,8,0,8,0,1,0,1,0,,,,,,epic,w,g,lower,,,,,,,1,w,HiDemTar,g,1,0.5979978539980948,,,,,,,,,,,,,,,,,,,,329,2023-11-13_13h08.43.290,leap3,2022.2.5,60.00145016017659,
,,,,,,,,,,,,,,,,,,,,8,0,8,0,2,0,2,0,,,,,,slightly,w,g,lower,,,,,,,1,w,HiDemTar,g,1,0.49396600760519505,,,,,,,,,,,,,,,,,,,,329,2023-11-13_13h08.43.290,leap3,2022.2.5,60.00145016017659,
,,,,,,,,,,,,,,,,,,,,8,0,8,0,3,0,3,0,,,,,,record,w,g,lower,,,,,,,1,w,HiDemTar,g,1,0.697746672667563,,,,,,,,,,,,,,,,,,,,329,2023-11-13_13h08.43.290,leap3,2022.2.5,60.00145016017659,
,,,,,,,,,,,,,,,,,,,,8,0,8,0,4,0,4,0,,,,,,infancy,w,g,lower,,,,,,,1,w,HiDemTar,g,1,0.6131011787801981,,,,,,,,,,,,,,,,,,,,329,2023-11-13_13h08.43.290,leap3,2022.2.5,60.00145016017659,
,,,,,,,,,,,,,,,,,,,,8,0,8,0,5,0,5,0,,,,,,nimono,nw,h,lower,,,,,,,1,nw,HiDemTar,h,1,0.6118067023344338,,,,,,,,,,,,,,,,,,,,329,2023-11-13_13h08.43.290,leap3,2022.2.5,60.00145016017659,
,,,,,,,,,,,,,,,,,,,,8,0,8,0,6,0,6,0,,,,,,legalize,w,g,lower,,,,,,,1,w,HiDemTar,g,1,0.6265581017360091,,,,,,,,,,,,,,,,,,,,329,2023-11-13_13h08.43.290,leap3,2022.2.5,60.00145016017659,
,,,,,,,,,,,,,,,,,,,,8,0,8,0,7,0,7,0,,,,,,educate,w,g,lower,,,,,,,1,w,HiDemTar,g,1,0.6324752815999091,,,,,,,,,,,,,,,,,,,,329,2023-11-13_13h08.43.290,leap3,2022.2.5,60.00145016017659,
,,,,,,,,,,,,,,,,,,,,8,0,8,0,8,0,8,0,,,,,,warmer,w,g,lower,,,,,,,1,w,HiDemTar,g,1,0.7905632574111223,,,,,,,,,,,,,,,,,,,,329,2023-11-13_13h08.43.290,leap3,2022.2.5,60.00145016017659,
,,,,,,,,,,,,,,,,,,,,8,0,8,0,9,0,9,0,,,,,,maunches,nw,h,lower,,,,,,,1,nw,HiDemTar,h,1,0.9009181722067297,,,,,,,,,,,,,,,,,,,,329,2023-11-13_13h08.43.290,leap3,2022.2.5,60.00145016017659,
,,,,,,,,,,,,,,,,,,,,8,0,8,0,10,0,10,0,,,,,,fallint,nw,h,lower,,,,,,,1,nw,HiDemTar,h,1,0.5596141549758613,,,,,,,,,,,,,,,,,,,,329,2023-11-13_13h08.43.290,leap3,2022.2.5,60.00145016017659,
,,,,,,,,,,,,,,,,,,,,8,0,8,0,11,0,11,0,,,,,,contund,nw,h,lower,,,,,,,1,nw,HiDemTar,h,1,0.672249797731638,,,,,,,,,,,,,,,,,,,,329,2023-11-13_13h08.43.290,leap3,2022.2.5,60.00145016017659,
,,,,,,,,,,,,,,,,,,,,8,0,8,0,12,0,12,0,,,,,,blanned,nw,h,lower,,,,,,,1,nw,HiDemTar,g,0,0.6364053897559643,,,,,,,,,,,,,,,,,,,,329,2023-11-13_13h08.43.290,leap3,2022.2.5,60.00145016017659,
,,,,,,,,,,,,,,,,,,,,8,0,8,0,13,0,13,0,,,,,,command,w,g,lower,,,,,,,1,w,HiDemTar,g,1,0.5457692197524011,,,,,,,,,,,,,,,,,,,,329,2023-11-13_13h08.43.290,leap3,2022.2.5,60.00145016017659,
,,,,,,,,,,,,,,,,,,,,8,0,8,0,14,0,14,0,,,,,,cemoir,nw,h,lower,,,,,,,1,nw,HiDemTar,h,1,0.6190378908067942,,,,,,,,,,,,,,,,,,,,329,2023-11-13_13h08.43.290,leap3,2022.2.5,60.00145016017659,
,,,,,,,,,,,,,,,,,,,,8,0,8,0,15,0,15,0,,,,,,gerby,nw,h,lower,,,,,,,1,nw,HiDemTar,h,1,0.6091743805445731,,,,,,,,,,,,,,,,,,,,329,2023-11-13_13h08.43.290,leap3,2022.2.5,60.00145016017659,
,,,,,,,,,,,,,,,,,,,,8,0,8,0,16,0,16,0,,,,,,hasks,nw,h,lower,,,,,,,1,nw,HiDemTar,g,0,0.6794273527339101,,,,,,,,,,,,,,,,,,,,329,2023-11-13_13h08.43.290,leap3,2022.2.5,60.00145016017659,
,,,,,,,,,,,,,,,,,,,,8,0,8,0,17,0,17,0,,,,,,confined,w,g,lower,,,,,,,1,w,HiDemTar,h,0,0.7878425400704145,,,,,,,,,,,,,,,,,,,,329,2023-11-13_13h08.43.290,leap3,2022.2.5,60.00145016017659,
,,,,,,,,,,,,,,,,,,,,8,0,8,0,18,0,18,0,,,,,,fullity,nw,h,lower,,,,,,,1,nw,HiDemTar,g,0,1.202230492606759,,,,,,,,,,,,,,,,,,,,329,2023-11-13_13h08.43.290,leap3,2022.2.5,60.00145016017659,
,,,,,,,,,,,,,,,,,,,,8,0,8,0,19,0,19,0,,,,,,elbalm,nw,h,lower,,,,,,,1,nw,HiDemTar,h,1,0.7206781012937427,,,,,,,,,,,,,,,,,,,,329,2023-11-13_13h08.43.290,leap3,2022.2.5,60.00145016017659,
,,,,,,,,,,,,,,,,,,,,8,0,8,0,20,0,20,0,,,,,,trallion,nw,h,lower,,,,,,,1,nw,HiDemTar,h,1,0.5948136416263878,,,,,,,,,,,,,,,,,,,,329,2023-11-13_13h08.43.290,leap3,2022.2.5,60.00145016017659,
,,,,,,,,,,,,,,,,,,,,8,0,8,0,21,0,21,0,,,,,,jaguar,target,q,lower,,,,,,,1,target,HiDemTar,g,0,0.5779063268564641,,,,,,,,,,,,,,,,,,,,329,2023-11-13_13h08.43.290,leap3,2022.2.5,60.00145016017659,
,,,,,,,,,,,,,,,,,,,,8,0,8,0,22,0,22,0,,,,,,digested,w,g,lower,,,,,,,1,aftertar1,HiDemTar,g,1,1.6263919053599238,,,,,,,,,,,,,,,,,,,,329,2023-11-13_13h08.43.290,leap3,2022.2.5,60.00145016017659,
,,,,,,,,,,,,,,,,,,,,8,0,8,0,23,0,23,0,,,,,,ipiocy,nw,h,lower,,,,,,,1,aftertar2,HiDemTar,h,1,0.6963230799883604,,,,,,,,,,,,,,,,,,,,329,2023-11-13_13h08.43.290,leap3,2022.2.5,60.00145016017659,
,,,,,,,,,,,,,,,,,,,,8,0,8,0,24,0,24,0,,,,,,bureaug,nw,h,lower,,,,,,,1,aftertar3,HiDemTar,h,1,0.6754849944263697,,,,,,,,,,,,,,,,,,,,329,2023-11-13_13h08.43.290,leap3,2022.2.5,60.00145016017659,
,,,,,,,,,,,,,,,,,,,,8,0,8,0,25,0,25,0,,,,,,charcoal,w,g,lower,,,,,,,1,nw,HiDemTar,g,1,0.6543767573311925,,,,,,,,,,,,,,,,,,,,329,2023-11-13_13h08.43.290,leap3,2022.2.5,60.00145016017659,
,,,,,,,,,,,,,,,,,,,,8,0,8,0,26,0,26,0,,,,,,trembles,w,g,lower,,,,,,,1,w,HiDemTar,g,1,0.5859661786817014,,,,,,,,,,,,,,,,,,,,329,2023-11-13_13h08.43.290,leap3,2022.2.5,60.00145016017659,
,,,,,,,,,,,,,,,,,,,,8,0,8,0,27,0,27,0,,,,,,sequence,w,g,lower,,,,,,,1,w,HiDemTar,g,1,0.5853825057856739,,,,,,,,,,,,,,,,,,,,329,2023-11-13_13h08.43.290,leap3,2022.2.5,60.00145016017659,
,,,,,,,,,,,,,,,,,,,,8,0,8,0,28,0,28,0,,,,,,reses,nw,h,lower,,,,,,,1,w,HiDemTar,h,1,0.6727109751664102,,,,,,,,,,,,,,,,,,,,329,2023-11-13_13h08.43.290,leap3,2022.2.5,60.00145016017659,
,,,,,,,,,,,,,,,,,,,,8,0,8,0,29,0,29,0,,,,,,classify,w,g,lower,,,,,,,1,nw,HiDemTar,g,1,0.6200281158089638,,,,,,,,,,,,,,,,,,,,329,2023-11-13_13h08.43.290,leap3,2022.2.5,60.00145016017659,
,,,,,,,,,,,,,,,,,,,,8,0,8,0,,,,,,,,,,,,,,,,,,,,,,,,,,,0,,,,,,,,,,,,,,,,,,329,2023-11-13_13h08.43.290,leap3,2022.2.5,60.00145016017659,
,,,,,,,,,,,,,,,,,,,,9,0,9,0,0,0,0,0,,,,,,patio,w,g,upper,,,,,,,3,w,LoDemNoTar,g,1,0.7062971675768495,,,,,,,,,,,,,,,,,,,,329,2023-11-13_13h08.43.290,leap3,2022.2.5,60.00145016017659,
,,,,,,,,,,,,,,,,,,,,9,0,9,0,1,0,1,0,,,,,,atabaster,nw,h,upper,,,,,,,3,nw,LoDemNoTar,h,1,0.6202969425357878,,,,,,,,,,,,,,,,,,,,329,2023-11-13_13h08.43.290,leap3,2022.2.5,60.00145016017659,
,,,,,,,,,,,,,,,,,,,,9,0,9,0,2,0,2,0,,,,,,serfume,nw,h,upper,,,,,,,3,nw,LoDemNoTar,h,1,0.9123966326005757,,,,,,,,,,,,,,,,,,,,329,2023-11-13_13h08.43.290,leap3,2022.2.5,60.00145016017659,
,,,,,,,,,,,,,,,,,,,,9,0,9,0,3,0,3,0,,,,,,gallon,w,g,upper,,,,,,,3,w,LoDemNoTar,g,1,0.5623805592767894,,,,,,,,,,,,,,,,,,,,329,2023-11-13_13h08.43.290,leap3,2022.2.5,60.00145016017659,
,,,,,,,,,,,,,,,,,,,,9,0,9,0,4,0,4,0,,,,,,nelvet,nw,h,upper,,,,,,,3,nw,LoDemNoTar,h,1,0.5464253961108625,,,,,,,,,,,,,,,,,,,,329,2023-11-13_13h08.43.290,leap3,2022.2.5,60.00145016017659,
,,,,,,,,,,,,,,,,,,,,9,0,9,0,5,0,5,0,,,,,,talent,w,g,upper,,,,,,,3,w,LoDemNoTar,g,1,0.6111273509450257,,,,,,,,,,,,,,,,,,,,329,2023-11-13_13h08.43.290,leap3,2022.2.5,60.00145016017659,
,,,,,,,,,,,,,,,,,,,,9,0,9,0,6,0,6,0,,,,,,podges,nw,h,upper,,,,,,,3,nw,LoDemNoTar,h,1,0.5291760889813304,,,,,,,,,,,,,,,,,,,,329,2023-11-13_13h08.43.290,leap3,2022.2.5,60.00145016017659,
,,,,,,,,,,,,,,,,,,,,9,0,9,0,7,0,7,0,,,,,,vopings,nw,h,upper,,,,,,,3,nw,LoDemNoTar,h,1,0.5385489566251636,,,,,,,,,,,,,,,,,,,,329,2023-11-13_13h08.43.290,leap3,2022.2.5,60.00145016017659,
,,,,,,,,,,,,,,,,,,,,9,0,9,0,8,0,8,0,,,,,,vented,w,g,upper,,,,,,,3,w,LoDemNoTar,g,1,0.5872785323299468,,,,,,,,,,,,,,,,,,,,329,2023-11-13_13h08.43.290,leap3,2022.2.5,60.00145016017659,
,,,,,,,,,,,,,,,,,,,,9,0,9,0,9,0,9,0,,,,,,assent,w,g,upper,,,,,,,3,w,LoDemNoTar,g,1,0.5544720054604113,,,,,,,,,,,,,,,,,,,,329,2023-11-13_13h08.43.290,leap3,2022.2.5,60.00145016017659,
,,,,,,,,,,,,,,,,,,,,9,0,9,0,10,0,10,0,,,,,,vorm,nw,h,upper,,,,,,,3,nw,LoDemNoTar,h,1,0.6666636862792075,,,,,,,,,,,,,,,,,,,,329,2023-11-13_13h08.43.290,leap3,2022.2.5,60.00145016017659,
,,,,,,,,,,,,,,,,,,,,9,0,9,0,11,0,11,0,,,,,,actively,w,g,upper,,,,,,,3,w,LoDemNoTar,g,1,0.5176420086063445,,,,,,,,,,,,,,,,,,,,329,2023-11-13_13h08.43.290,leap3,2022.2.5,60.00145016017659,
,,,,,,,,,,,,,,,,,,,,9,0,9,0,12,0,12,0,,,,,,recount,w,g,upper,,,,,,,3,w,LoDemNoTar,g,1,0.5516350832767785,,,,,,,,,,,,,,,,,,,,329,2023-11-13_13h08.43.290,leap3,2022.2.5,60.00145016017659,
,,,,,,,,,,,,,,,,,,,,9,0,9,0,13,0,13,0,,,,,,ignore,w,g,upper,,,,,,,3,w,LoDemNoTar,g,1,0.4722307277843356,,,,,,,,,,,,,,,,,,,,329,2023-11-13_13h08.43.290,leap3,2022.2.5,60.00145016017659,
,,,,,,,,,,,,,,,,,,,,9,0,9,0,14,0,14,0,,,,,,esdings,nw,h,upper,,,,,,,3,nw,LoDemNoTar,h,1,0.5555754550732672,,,,,,,,,,,,,,,,,,,,329,2023-11-13_13h08.43.290,leap3,2022.2.5,60.00145016017659,
,,,,,,,,,,,,,,,,,,,,9,0,9,0,15,0,15,0,,,,,,collute,nw,h,upper,,,,,,,3,nw,LoDemNoTar,h,1,0.5395517614670098,,,,,,,,,,,,,,,,,,,,329,2023-11-13_13h08.43.290,leap3,2022.2.5,60.00145016017659,
,,,,,,,,,,,,,,,,,,,,9,0,9,0,16,0,16,0,,,,,,joadbed,nw,h,upper,,,,,,,3,nw,LoDemNoTar,h,1,0.6922529293224216,,,,,,,,,,,,,,,,,,,,329,2023-11-13_13h08.43.290,leap3,2022.2.5,60.00145016017659,
,,,,,,,,,,,,,,,,,,,,9,0,9,0,17,0,17,0,,,,,,corg,nw,h,upper,,,,,,,3,nw,LoDemNoTar,h,1,0.5670317341573536,,,,,,,,,,,,,,,,,,,,329,2023-11-13_13h08.43.290,leap3,2022.2.5,60.00145016017659,
,,,,,,,,,,,,,,,,,,,,9,0,9,0,18,0,18,0,,,,,,forfeit,w,g,upper,,,,,,,3,w,LoDemNoTar,g,1,0.6869826568290591,,,,,,,,,,,,,,,,,,,,329,2023-11-13_13h08.43.290,leap3,2022.2.5,60.00145016017659,
,,,,,,,,,,,,,,,,,,,,9,0,9,0,19,0,19,0,,,,,,boutique,w,g,upper,,,,,,,3,w,LoDemNoTar,g,1,0.8819022849202156,,,,,,,,,,,,,,,,,,,,329,2023-11-13_13h08.43.290,leap3,2022.2.5,60.00145016017659,
,,,,,,,,,,,,,,,,,,,,9,0,9,0,20,0,20,0,,,,,,overflow,w,g,upper,,,,,,,3,w,LoDemNoTar,g,1,0.4929353930056095,,,,,,,,,,,,,,,,,,,,329,2023-11-13_13h08.43.290,leap3,2022.2.5,60.00145016017659,
,,,,,,,,,,,,,,,,,,,,9,0,9,0,21,0,21,0,,,,,,pimorous,nw,h,upper,,,,,,,3,nw,LoDemNoTar,h,1,0.6635744897648692,,,,,,,,,,,,,,,,,,,,329,2023-11-13_13h08.43.290,leap3,2022.2.5,60.00145016017659,
,,,,,,,,,,,,,,,,,,,,9,0,9,0,22,0,22,0,,,,,,destroy,w,g,upper,,,,,,,3,w,LoDemNoTar,g,1,0.45157969603314996,,,,,,,,,,,,,,,,,,,,329,2023-11-13_13h08.43.290,leap3,2022.2.5,60.00145016017659,
,,,,,,,,,,,,,,,,,,,,9,0,9,0,23,0,23,0,,,,,,sprea,nw,h,upper,,,,,,,3,nw,LoDemNoTar,h,1,0.5442373678088188,,,,,,,,,,,,,,,,,,,,329,2023-11-13_13h08.43.290,leap3,2022.2.5,60.00145016017659,
,,,,,,,,,,,,,,,,,,,,9,0,9,0,24,0,24,0,,,,,,analysis,w,g,upper,,,,,,,3,w,LoDemNoTar,g,1,0.4489900814369321,,,,,,,,,,,,,,,,,,,,329,2023-11-13_13h08.43.290,leap3,2022.2.5,60.00145016017659,
,,,,,,,,,,,,,,,,,,,,9,0,9,0,25,0,25,0,,,,,,bentler,nw,h,upper,,,,,,,3,nw,LoDemNoTar,h,1,0.63769556209445,,,,,,,,,,,,,,,,,,,,329,2023-11-13_13h08.43.290,leap3,2022.2.5,60.00145016017659,
,,,,,,,,,,,,,,,,,,,,9,0,9,0,26,0,26,0,,,,,,pripend,nw,h,upper,,,,,,,3,nw,LoDemNoTar,h,1,0.5543759958818555,,,,,,,,,,,,,,,,,,,,329,2023-11-13_13h08.43.290,leap3,2022.2.5,60.00145016017659,
,,,,,,,,,,,,,,,,,,,,9,0,9,0,27,0,27,0,,,,,,oppose,w,g,upper,,,,,,,3,w,LoDemNoTar,g,1,1.0104626324027777,,,,,,,,,,,,,,,,,,,,329,2023-11-13_13h08.43.290,leap3,2022.2.5,60.00145016017659,
,,,,,,,,,,,,,,,,,,,,9,0,9,0,28,0,28,0,,,,,,dounger,nw,h,upper,,,,,,,3,nw,LoDemNoTar,h,1,0.7771497038193047,,,,,,,,,,,,,,,,,,,,329,2023-11-13_13h08.43.290,leap3,2022.2.5,60.00145016017659,
,,,,,,,,,,,,,,,,,,,,9,0,9,0,29,0,29,0,,,,,,anterior,w,g,upper,,,,,,,3,w,LoDemNoTar,g,1,0.59977304097265,,,,,,,,,,,,,,,,,,,,329,2023-11-13_13h08.43.290,leap3,2022.2.5,60.00145016017659,
,,,,,,,,,,,,,,,,,,,,9,0,9,0,,,,,,,,,,,,,,,,,,,,,,,,,,,NA,,,,,,,,,,,,,,,,,,329,2023-11-13_13h08.43.290,leap3,2022.2.5,60.00145016017659,
,,,,,,,,,,,,,,,,,,,,10,0,10,0,0,0,0,0,,,,,,wimpid,nw,h,lower,,,,,,,1,nw,HiDemTar,h,1,0.655063723679632,,,,,,,,,,,,,,,,,,,,329,2023-11-13_13h08.43.290,leap3,2022.2.5,60.00145016017659,
,,,,,,,,,,,,,,,,,,,,10,0,10,0,1,0,1,0,,,,,,trake,nw,h,lower,,,,,,,1,nw,HiDemTar,h,1,0.7631680378690362,,,,,,,,,,,,,,,,,,,,329,2023-11-13_13h08.43.290,leap3,2022.2.5,60.00145016017659,
,,,,,,,,,,,,,,,,,,,,10,0,10,0,2,0,2,0,,,,,,surfaced,w,g,lower,,,,,,,1,w,HiDemTar,g,1,0.6911799381487072,,,,,,,,,,,,,,,,,,,,329,2023-11-13_13h08.43.290,leap3,2022.2.5,60.00145016017659,
,,,,,,,,,,,,,,,,,,,,10,0,10,0,3,0,3,0,,,,,,fidelity,w,g,lower,,,,,,,1,w,HiDemTar,g,1,0.6139169302769005,,,,,,,,,,,,,,,,,,,,329,2023-11-13_13h08.43.290,leap3,2022.2.5,60.00145016017659,
,,,,,,,,,,,,,,,,,,,,10,0,10,0,4,0,4,0,,,,,,theery,nw,h,lower,,,,,,,1,nw,HiDemTar,h,1,0.5949874520301819,,,,,,,,,,,,,,,,,,,,329,2023-11-13_13h08.43.290,leap3,2022.2.5,60.00145016017659,
,,,,,,,,,,,,,,,,,,,,10,0,10,0,5,0,5,0,,,,,,trecious,nw,h,lower,,,,,,,1,nw,HiDemTar,h,1,0.8975250557996333,,,,,,,,,,,,,,,,,,,,329,2023-11-13_13h08.43.290,leap3,2022.2.5,60.00145016017659,
,,,,,,,,,,,,,,,,,,,,10,0,10,0,6,0,6,0,,,,,,glamorous,w,g,lower,,,,,,,1,w,HiDemTar,g,1,0.7003203956410289,,,,,,,,,,,,,,,,,,,,329,2023-11-13_13h08.43.290,leap3,2022.2.5,60.00145016017659,
,,,,,,,,,,,,,,,,,,,,10,0,10,0,7,0,7,0,,,,,,vinegar,w,g,lower,,,,,,,1,w,HiDemTar,g,1,0.5185041096992791,,,,,,,,,,,,,,,,,,,,329,2023-11-13_13h08.43.290,leap3,2022.2.5,60.00145016017659,
,,,,,,,,,,,,,,,,,,,,10,0,10,0,8,0,8,0,,,,,,uncarled,nw,h,lower,,,,,,,1,nw,HiDemTar,h,1,0.7043461832217872,,,,,,,,,,,,,,,,,,,,329,2023-11-13_13h08.43.290,leap3,2022.2.5,60.00145016017659,
,,,,,,,,,,,,,,,,,,,,10,0,10,0,9,0,9,0,,,,,,setwixt,nw,h,lower,,,,,,,1,nw,HiDemTar,h,1,0.5695852623321116,,,,,,,,,,,,,,,,,,,,329,2023-11-13_13h08.43.290,leap3,2022.2.5,60.00145016017659,
,,,,,,,,,,,,,,,,,,,,10,0,10,0,10,0,10,0,,,,,,sopes,nw,h,lower,,,,,,,1,nw,HiDemTar,g,0,0.6660091648809612,,,,,,,,,,,,,,,,,,,,329,2023-11-13_13h08.43.290,leap3,2022.2.5,60.00145016017659,
,,,,,,,,,,,,,,,,,,,,10,0,10,0,11,0,11,0,,,,,,enacted,w,g,lower,,,,,,,1,w,HiDemTar,g,1,0.6460070260800421,,,,,,,,,,,,,,,,,,,,329,2023-11-13_13h08.43.290,leap3,2022.2.5,60.00145016017659,
,,,,,,,,,,,,,,,,,,,,10,0,10,0,12,0,12,0,,,,,,renown,w,g,lower,,,,,,,1,w,HiDemTar,h,0,0.9791750460863113,,,,,,,,,,,,,,,,,,,,329,2023-11-13_13h08.43.290,leap3,2022.2.5,60.00145016017659,
,,,,,,,,,,,,,,,,,,,,10,0,10,0,13,0,13,0,,,,,,fragment,w,g,lower,,,,,,,1,w,HiDemTar,g,1,0.5385840497910976,,,,,,,,,,,,,,,,,,,,329,2023-11-13_13h08.43.290,leap3,2022.2.5,60.00145016017659,
,,,,,,,,,,,,,,,,,,,,10,0,10,0,14,0,14,0,,,,,,traze,nw,h,lower,,,,,,,1,nw,HiDemTar,h,1,0.8343211840838194,,,,,,,,,,,,,,,,,,,,329,2023-11-13_13h08.43.290,leap3,2022.2.5,60.00145016017659,
,,,,,,,,,,,,,,,,,,,,10,0,10,0,15,0,15,0,,,,,,amaze,w,g,lower,,,,,,,1,w,HiDemTar,g,1,0.4716341430321336,,,,,,,,,,,,,,,,,,,,329,2023-11-13_13h08.43.290,leap3,2022.2.5,60.00145016017659,
,,,,,,,,,,,,,,,,,,,,10,0,10,0,16,0,16,0,,,,,,describe,w,g,lower,,,,,,,1,w,HiDemTar,g,1,0.48307287599891424,,,,,,,,,,,,,,,,,,,,329,2023-11-13_13h08.43.290,leap3,2022.2.5,60.00145016017659,
,,,,,,,,,,,,,,,,,,,,10,0,10,0,17,0,17,0,,,,,,teamwork,w,g,lower,,,,,,,1,w,HiDemTar,g,1,0.5103975771926343,,,,,,,,,,,,,,,,,,,,329,2023-11-13_13h08.43.290,leap3,2022.2.5,60.00145016017659,
,,,,,,,,,,,,,,,,,,,,10,0,10,0,18,0,18,0,,,,,,itfidels,nw,h,lower,,,,,,,1,nw,HiDemTar,h,1,0.5127094257622957,,,,,,,,,,,,,,,,,,,,329,2023-11-13_13h08.43.290,leap3,2022.2.5,60.00145016017659,
,,,,,,,,,,,,,,,,,,,,10,0,10,0,19,0,19,0,,,,,,fivalve,nw,h,lower,,,,,,,1,nw,HiDemTar,h,1,0.5790140805765986,,,,,,,,,,,,,,,,,,,,329,2023-11-13_13h08.43.290,leap3,2022.2.5,60.00145016017659,
,,,,,,,,,,,,,,,,,,,,10,0,10,0,20,0,20,0,,,,,,mosary,nw,h,lower,,,,,,,1,nw,HiDemTar,g,0,1.1145500978454947,,,,,,,,,,,,,,,,,,,,329,2023-11-13_13h08.43.290,leap3,2022.2.5,60.00145016017659,
,,,,,,,,,,,,,,,,,,,,10,0,10,0,21,0,21,0,,,,,,causality,w,g,lower,,,,,,,1,w,HiDemTar,g,1,0.5570887676440179,,,,,,,,,,,,,,,,,,,,329,2023-11-13_13h08.43.290,leap3,2022.2.5,60.00145016017659,
,,,,,,,,,,,,,,,,,,,,10,0,10,0,22,0,22,0,,,,,,encounter,w,g,lower,,,,,,,1,w,HiDemTar,g,1,0.5255800276063383,,,,,,,,,,,,,,,,,,,,329,2023-11-13_13h08.43.290,leap3,2022.2.5,60.00145016017659,
,,,,,,,,,,,,,,,,,,,,10,0,10,0,23,0,23,0,,,,,,guivers,nw,h,lower,,,,,,,1,nw,HiDemTar,h,1,0.5748859932646155,,,,,,,,,,,,,,,,,,,,329,2023-11-13_13h08.43.290,leap3,2022.2.5,60.00145016017659,
,,,,,,,,,,,,,,,,,,,,10,0,10,0,24,0,24,0,,,,,,fuestion,nw,h,lower,,,,,,,1,nw,HiDemTar,h,1,0.6377495261840522,,,,,,,,,,,,,,,,,,,,329,2023-11-13_13h08.43.290,leap3,2022.2.5,60.00145016017659,
,,,,,,,,,,,,,,,,,,,,10,0,10,0,25,0,25,0,,,,,,iflaid,nw,h,lower,,,,,,,1,nw,HiDemTar,h,1,0.594419670291245,,,,,,,,,,,,,,,,,,,,329,2023-11-13_13h08.43.290,leap3,2022.2.5,60.00145016017659,
,,,,,,,,,,,,,,,,,,,,10,0,10,0,26,0,26,0,,,,,,happen,w,g,lower,,,,,,,1,w,HiDemTar,g,1,0.6091326656751335,,,,,,,,,,,,,,,,,,,,329,2023-11-13_13h08.43.290,leap3,2022.2.5,60.00145016017659,
,,,,,,,,,,,,,,,,,,,,10,0,10,0,27,0,27,0,,,,,,ascending,w,g,lower,,,,,,,1,w,HiDemTar,h,0,0.5832613524980843,,,,,,,,,,,,,,,,,,,,329,2023-11-13_13h08.43.290,leap3,2022.2.5,60.00145016017659,
,,,,,,,,,,,,,,,,,,,,10,0,10,0,28,0,28,0,,,,,,doxing,nw,h,lower,,,,,,,1,nw,HiDemTar,h,1,0.5745439999736845,,,,,,,,,,,,,,,,,,,,329,2023-11-13_13h08.43.290,leap3,2022.2.5,60.00145016017659,
,,,,,,,,,,,,,,,,,,,,10,0,10,0,29,0,29,0,,,,,,monkey,target,q,lower,,,,,,,1,target,HiDemTar,q,1,0.5738490880466998,1,,,,,,,,,,,,,,,,,,,329,2023-11-13_13h08.43.290,leap3,2022.2.5,60.00145016017659,
,,,,,,,,,,,,,,,,,,,,10,0,10,0,,,,,,,,,,,,,,,,,,,,,,,,,,,1,,,,,,,,,,,,,,,,,,329,2023-11-13_13h08.43.290,leap3,2022.2.5,60.00145016017659,
,,,,,,,,,,,,,,,,,,,,11,0,11,0,0,0,0,0,,,,,,remade,w,g,lower,,,,,,,2,w,HiDemNoTar,g,1,0.6125777601264417,,,,,,,,,,,,,,,,,,,,329,2023-11-13_13h08.43.290,leap3,2022.2.5,60.00145016017659,
,,,,,,,,,,,,,,,,,,,,11,0,11,0,1,0,1,0,,,,,,mining,w,g,lower,,,,,,,2,w,HiDemNoTar,g,1,0.6109310276806355,,,,,,,,,,,,,,,,,,,,329,2023-11-13_13h08.43.290,leap3,2022.2.5,60.00145016017659,
,,,,,,,,,,,,,,,,,,,,11,0,11,0,2,0,2,0,,,,,,parent,w,g,lower,,,,,,,2,w,HiDemNoTar,g,1,0.7850109147839248,,,,,,,,,,,,,,,,,,,,329,2023-11-13_13h08.43.290,leap3,2022.2.5,60.00145016017659,
,,,,,,,,,,,,,,,,,,,,11,0,11,0,3,0,3,0,,,,,,boulder,w,g,lower,,,,,,,2,w,HiDemNoTar,g,1,0.512488603591919,,,,,,,,,,,,,,,,,,,,329,2023-11-13_13h08.43.290,leap3,2022.2.5,60.00145016017659,
,,,,,,,,,,,,,,,,,,,,11,0,11,0,4,0,4,0,,,,,,restock,w,g,lower,,,,,,,2,w,HiDemNoTar,g,1,0.5703265238553286,,,,,,,,,,,,,,,,,,,,329,2023-11-13_13h08.43.290,leap3,2022.2.5,60.00145016017659,
,,,,,,,,,,,,,,,,,,,,11,0,11,0,5,0,5,0,,,,,,innocent,w,g,lower,,,,,,,2,w,HiDemNoTar,h,0,0.41779916686937213,,,,,,,,,,,,,,,,,,,,329,2023-11-13_13h08.43.290,leap3,2022.2.5,60.00145016017659,
,,,,,,,,,,,,,,,,,,,,11,0,11,0,6,0,6,0,,,,,,racile,nw,h,lower,,,,,,,2,nw,HiDemNoTar,h,1,0.6798259587958455,,,,,,,,,,,,,,,,,,,,329,2023-11-13_13h08.43.290,leap3,2022.2.5,60.00145016017659,
,,,,,,,,,,,,,,,,,,,,11,0,11,0,7,0,7,0,,,,,,planofoad,nw,h,lower,,,,,,,2,nw,HiDemNoTar,h,1,0.6511948620900512,,,,,,,,,,,,,,,,,,,,329,2023-11-13_13h08.43.290,leap3,2022.2.5,60.00145016017659,
,,,,,,,,,,,,,,,,,,,,11,0,11,0,8,0,8,0,,,,,,gelented,nw,h,lower,,,,,,,2,nw,HiDemNoTar,h,1,0.5510454513132572,,,,,,,,,,,,,,,,,,,,329,2023-11-13_13h08.43.290,leap3,2022.2.5,60.00145016017659,
,,,,,,,,,,,,,,,,,,,,11,0,11,0,9,0,9,0,,,,,,glapula,nw,h,lower,,,,,,,2,nw,HiDemNoTar,h,1,0.46358587872236967,,,,,,,,,,,,,,,,,,,,329,2023-11-13_13h08.43.290,leap3,2022.2.5,60.00145016017659,
,,,,,,,,,,,,,,,,,,,,11,0,11,0,10,0,10,0,,,,,,sefraud,nw,h,lower,,,,,,,2,nw,HiDemNoTar,h,1,0.5396269140765071,,,,,,,,,,,,,,,,,,,,329,2023-11-13_13h08.43.290,leap3,2022.2.5,60.00145016017659,
,,,,,,,,,,,,,,,,,,,,11,0,11,0,11,0,11,0,,,,,,suddenly,w,g,lower,,,,,,,2,w,HiDemNoTar,g,1,0.46035664109513164,,,,,,,,,,,,,,,,,,,,329,2023-11-13_13h08.43.290,leap3,2022.2.5,60.00145016017659,
,,,,,,,,,,,,,,,,,,,,11,0,11,0,12,0,12,0,,,,,,ludictous,nw,h,lower,,,,,,,2,nw,HiDemNoTar,g,0,0.7364283334463835,,,,,,,,,,,,,,,,,,,,329,2023-11-13_13h08.43.290,leap3,2022.2.5,60.00145016017659,
,,,,,,,,,,,,,,,,,,,,11,0,11,0,13,0,13,0,,,,,,plapping,nw,h,lower,,,,,,,2,nw,HiDemNoTar,h,1,0.7368276012130082,,,,,,,,,,,,,,,,,,,,329,2023-11-13_13h08.43.290,leap3,2022.2.5,60.00145016017659,
,,,,,,,,,,,,,,,,,,,,11,0,11,0,14,0,14,0,,,,,,gigglod,nw,h,lower,,,,,,,2,nw,HiDemNoTar,h,1,0.697497378103435,,,,,,,,,,,,,,,,,,,,329,2023-11-13_13h08.43.290,leap3,2022.2.5,60.00145016017659,
,,,,,,,,,,,,,,,,,,,,11,0,11,0,15,0,15,0,,,,,,troven,nw,h,lower,,,,,,,2,nw,HiDemNoTar,g,0,0.6601495910435915,,,,,,,,,,,,,,,,,,,,329,2023-11-13_13h08.43.290,leap3,2022.2.5,60.00145016017659,
,,,,,,,,,,,,,,,,,,,,11,0,11,0,16,0,16,0,,,,,,balign,nw,h,lower,,,,,,,2,nw,HiDemNoTar,h,1,0.5995773794129491,,,,,,,,,,,,,,,,,,,,329,2023-11-13_13h08.43.290,leap3,2022.2.5,60.00145016017659,
,,,,,,,,,,,,,,,,,,,,11,0,11,0,17,0,17,0,,,,,,reason,w,g,lower,,,,,,,2,w,HiDemNoTar,g,1,0.5506468457169831,,,,,,,,,,,,,,,,,,,,329,2023-11-13_13h08.43.290,leap3,2022.2.5,60.00145016017659,
,,,,,,,,,,,,,,,,,,,,11,0,11,0,18,0,18,0,,,,,,dislokes,nw,h,lower,,,,,,,2,nw,HiDemNoTar,h,1,0.8153228438459337,,,,,,,,,,,,,,,,,,,,329,2023-11-13_13h08.43.290,leap3,2022.2.5,60.00145016017659,
,,,,,,,,,,,,,,,,,,,,11,0,11,0,19,0,19,0,,,,,,acroad,nw,h,lower,,,,,,,2,nw,HiDemNoTar,h,1,0.917505674995482,,,,,,,,,,,,,,,,,,,,329,2023-11-13_13h08.43.290,leap3,2022.2.5,60.00145016017659,
,,,,,,,,,,,,,,,,,,,,11,0,11,0,20,0,20,0,,,,,,latirizes,nw,h,lower,,,,,,,2,nw,HiDemNoTar,h,1,0.7673931284807622,,,,,,,,,,,,,,,,,,,,329,2023-11-13_13h08.43.290,leap3,2022.2.5,60.00145016017659,
,,,,,,,,,,,,,,,,,,,,11,0,11,0,21,0,21,0,,,,,,provide,w,g,lower,,,,,,,2,w,HiDemNoTar,g,1,0.447389698587358,,,,,,,,,,,,,,,,,,,,329,2023-11-13_13h08.43.290,leap3,2022.2.5,60.00145016017659,
,,,,,,,,,,,,,,,,,,,,11,0,11,0,22,0,22,0,,,,,,flieves,nw,h,lower,,,,,,,2,nw,HiDemNoTar,h,1,0.572047084569931,,,,,,,,,,,,,,,,,,,,329,2023-11-13_13h08.43.290,leap3,2022.2.5,60.00145016017659,
,,,,,,,,,,,,,,,,,,,,11,0,11,0,23,0,23,0,,,,,,kickoff,w,g,lower,,,,,,,2,w,HiDemNoTar,g,1,0.6034323363564909,,,,,,,,,,,,,,,,,,,,329,2023-11-13_13h08.43.290,leap3,2022.2.5,60.00145016017659,
,,,,,,,,,,,,,,,,,,,,11,0,11,0,24,0,24,0,,,,,,lifetime,w,g,lower,,,,,,,2,w,HiDemNoTar,g,1,0.5054878382943571,,,,,,,,,,,,,,,,,,,,329,2023-11-13_13h08.43.290,leap3,2022.2.5,60.00145016017659,
,,,,,,,,,,,,,,,,,,,,11,0,11,0,25,0,25,0,,,,,,ordinary,w,g,lower,,,,,,,2,w,HiDemNoTar,g,1,0.4512290949933231,,,,,,,,,,,,,,,,,,,,329,2023-11-13_13h08.43.290,leap3,2022.2.5,60.00145016017659,
,,,,,,,,,,,,,,,,,,,,11,0,11,0,26,0,26,0,,,,,,located,w,g,lower,,,,,,,2,w,HiDemNoTar,g,1,0.5347535922192037,,,,,,,,,,,,,,,,,,,,329,2023-11-13_13h08.43.290,leap3,2022.2.5,60.00145016017659,
,,,,,,,,,,,,,,,,,,,,11,0,11,0,27,0,27,0,,,,,,meteoroid,w,g,lower,,,,,,,2,w,HiDemNoTar,h,0,0.6228776182979345,,,,,,,,,,,,,,,,,,,,329,2023-11-13_13h08.43.290,leap3,2022.2.5,60.00145016017659,
,,,,,,,,,,,,,,,,,,,,11,0,11,0,28,0,28,0,,,,,,border,w,g,lower,,,,,,,2,w,HiDemNoTar,g,1,1.0456647672690451,,,,,,,,,,,,,,,,,,,,329,2023-11-13_13h08.43.290,leap3,2022.2.5,60.00145016017659,
,,,,,,,,,,,,,,,,,,,,11,0,11,0,29,0,29,0,,,,,,zears,nw,h,lower,,,,,,,2,nw,HiDemNoTar,h,1,0.5783860445953906,,,,,,,,,,,,,,,,,,,,329,2023-11-13_13h08.43.290,leap3,2022.2.5,60.00145016017659,
,,,,,,,,,,,,,,,,,,,,11,0,11,0,,,,,,,,,,,,,,,,,,,,,,,,,,,NA,,,,,,,,,,,,,,,,,,329,2023-11-13_13h08.43.290,leap3,2022.2.5,60.00145016017659,
,,,,,,,,,,,,,,,,,,,,12,0,12,0,0,0,0,0,,,,,,painter,w,g,upper,,,,,,,3,w,LoDemNoTar,g,1,0.5866713537834585,,,,,,,,,,,,,,,,,,,,329,2023-11-13_13h08.43.290,leap3,2022.2.5,60.00145016017659,
,,,,,,,,,,,,,,,,,,,,12,0,12,0,1,0,1,0,,,,,,picnic,w,g,upper,,,,,,,3,w,LoDemNoTar,g,1,0.5453434661030769,,,,,,,,,,,,,,,,,,,,329,2023-11-13_13h08.43.290,leap3,2022.2.5,60.00145016017659,
,,,,,,,,,,,,,,,,,,,,12,0,12,0,2,0,2,0,,,,,,clypaper,nw,h,upper,,,,,,,3,nw,LoDemNoTar,h,1,0.5611403784714639,,,,,,,,,,,,,,,,,,,,329,2023-11-13_13h08.43.290,leap3,2022.2.5,60.00145016017659,
,,,,,,,,,,,,,,,,,,,,12,0,12,0,3,0,3,0,,,,,,snays,nw,h,upper,,,,,,,3,nw,LoDemNoTar,h,1,0.6250520735047758,,,,,,,,,,,,,,,,,,,,329,2023-11-13_13h08.43.290,leap3,2022.2.5,60.00145016017659,
,,,,,,,,,,,,,,,,,,,,12,0,12,0,4,0,4,0,,,,,,gewer,nw,h,upper,,,,,,,3,nw,LoDemNoTar,h,1,0.574889303650707,,,,,,,,,,,,,,,,,,,,329,2023-11-13_13h08.43.290,leap3,2022.2.5,60.00145016017659,
,,,,,,,,,,,,,,,,,,,,12,0,12,0,5,0,5,0,,,,,,roughly,w,g,upper,,,,,,,3,w,LoDemNoTar,g,1,0.5343748503364623,,,,,,,,,,,,,,,,,,,,329,2023-11-13_13h08.43.290,leap3,2022.2.5,60.00145016017659,
,,,,,,,,,,,,,,,,,,,,12,0,12,0,6,0,6,0,,,,,,mogus,nw,h,upper,,,,,,,3,nw,LoDemNoTar,h,1,0.5760040101595223,,,,,,,,,,,,,,,,,,,,329,2023-11-13_13h08.43.290,leap3,2022.2.5,60.00145016017659,
,,,,,,,,,,,,,,,,,,,,12,0,12,0,7,0,7,0,,,,,,dingly,nw,h,upper,,,,,,,3,nw,LoDemNoTar,h,1,0.5911318333819509,,,,,,,,,,,,,,,,,,,,329,2023-11-13_13h08.43.290,leap3,2022.2.5,60.00145016017659,
,,,,,,,,,,,,,,,,,,,,12,0,12,0,8,0,8,0,,,,,,finstrel,nw,h,upper,,,,,,,3,nw,LoDemNoTar,h,1,0.6058696587570012,,,,,,,,,,,,,,,,,,,,329,2023-11-13_13h08.43.290,leap3,2022.2.5,60.00145016017659,
,,,,,,,,,,,,,,,,,,,,12,0,12,0,9,0,9,0,,,,,,treason,w,g,upper,,,,,,,3,w,LoDemNoTar,g,1,0.6278827055357397,,,,,,,,,,,,,,,,,,,,329,2023-11-13_13h08.43.290,leap3,2022.2.5,60.00145016017659,
,,,,,,,,,,,,,,,,,,,,12,0,12,0,10,0,10,0,,,,,,brongs,nw,h,upper,,,,,,,3,nw,LoDemNoTar,h,1,0.721306468360126,,,,,,,,,,,,,,,,,,,,329,2023-11-13_13h08.43.290,leap3,2022.2.5,60.00145016017659,
,,,,,,,,,,,,,,,,,,,,12,0,12,0,11,0,11,0,,,,,,pressing,w,g,upper,,,,,,,3,w,LoDemNoTar,g,1,0.5294783539138734,,,,,,,,,,,,,,,,,,,,329,2023-11-13_13h08.43.290,leap3,2022.2.5,60.00145016017659,
,,,,,,,,,,,,,,,,,,,,12,0,12,0,12,0,12,0,,,,,,gensions,nw,h,upper,,,,,,,3,nw,LoDemNoTar,h,1,0.6670142873190343,,,,,,,,,,,,,,,,,,,,329,2023-11-13_13h08.43.290,leap3,2022.2.5,60.00145016017659,
,,,,,,,,,,,,,,,,,,,,12,0,12,0,13,0,13,0,,,,,,scrib,nw,h,upper,,,,,,,3,nw,LoDemNoTar,g,0,0.8950506532564759,,,,,,,,,,,,,,,,,,,,329,2023-11-13_13h08.43.290,leap3,2022.2.5,60.00145016017659,
,,,,,,,,,,,,,,,,,,,,12,0,12,0,14,0,14,0,,,,,,summon,w,g,upper,,,,,,,3,w,LoDemNoTar,g,1,0.5777517184615135,,,,,,,,,,,,,,,,,,,,329,2023-11-13_13h08.43.290,leap3,2022.2.5,60.00145016017659,
,,,,,,,,,,,,,,,,,,,,12,0,12,0,15,0,15,0,,,,,,rowel,nw,h,upper,,,,,,,3,nw,LoDemNoTar,h,1,0.6251831762492657,,,,,,,,,,,,,,,,,,,,329,2023-11-13_13h08.43.290,leap3,2022.2.5,60.00145016017659,
,,,,,,,,,,,,,,,,,,,,12,0,12,0,16,0,16,0,,,,,,moral,w,g,upper,,,,,,,3,w,LoDemNoTar,g,1,0.5104366433806717,,,,,,,,,,,,,,,,,,,,329,2023-11-13_13h08.43.290,leap3,2022.2.5,60.00145016017659,
,,,,,,,,,,,,,,,,,,,,12,0,12,0,17,0,17,0,,,,,,nollow,nw,h,upper,,,,,,,3,nw,LoDemNoTar,h,1,0.5844449209980667,,,,,,,,,,,,,,,,,,,,329,2023-11-13_13h08.43.290,leap3,2022.2.5,60.00145016017659,
,,,,,,,,,,,,,,,,,,,,12,0,12,0,18,0,18,0,,,,,,terrify,w,g,upper,,,,,,,3,w,LoDemNoTar,g,1,0.49516844702884555,,,,,,,,,,,,,,,,,,,,329,2023-11-13_13h08.43.290,leap3,2022.2.5,60.00145016017659,
,,,,,,,,,,,,,,,,,,,,12,0,12,0,19,0,19,0,,,,,,imotope,nw,h,upper,,,,,,,3,nw,LoDemNoTar,h,1,0.6571464724838734,,,,,,,,,,,,,,,,,,,,329,2023-11-13_13h08.43.290,leap3,2022.2.5,60.00145016017659,
,,,,,,,,,,,,,,,,,,,,12,0,12,0,20,0,20,0,,,,,,series,w,g,upper,,,,,,,3,w,LoDemNoTar,g,1,0.5090974732302129,,,,,,,,,,,,,,,,,,,,329,2023-11-13_13h08.43.290,leap3,2022.2.5,60.00145016017659,
,,,,,,,,,,,,,,,,,,,,12,0,12,0,21,0,21,0,,,,,,seeming,w,g,upper,,,,,,,3,w,LoDemNoTar,g,1,0.4710349100641906,,,,,,,,,,,,,,,,,,,,329,2023-11-13_13h08.43.290,leap3,2022.2.5,60.00145016017659,
,,,,,,,,,,,,,,,,,,,,12,0,12,0,22,0,22,0,,,,,,turning,w,g,upper,,,,,,,3,w,LoDemNoTar,g,1,0.45066197495907545,,,,,,,,,,,,,,,,,,,,329,2023-11-13_13h08.43.290,leap3,2022.2.5,60.00145016017659,
,,,,,,,,,,,,,,,,,,,,12,0,12,0,23,0,23,0,,,,,,etuip,nw,h,upper,,,,,,,3,nw,LoDemNoTar,h,1,0.511076929513365,,,,,,,,,,,,,,,,,,,,329,2023-11-13_13h08.43.290,leap3,2022.2.5,60.00145016017659,
,,,,,,,,,,,,,,,,,,,,12,0,12,0,24,0,24,0,,,,,,amkles,nw,h,upper,,,,,,,3,nw,LoDemNoTar,h,1,0.7691077296622097,,,,,,,,,,,,,,,,,,,,329,2023-11-13_13h08.43.290,leap3,2022.2.5,60.00145016017659,
,,,,,,,,,,,,,,,,,,,,12,0,12,0,25,0,25,0,,,,,,daining,nw,h,upper,,,,,,,3,nw,LoDemNoTar,h,1,1.1531926929019392,,,,,,,,,,,,,,,,,,,,329,2023-11-13_13h08.43.290,leap3,2022.2.5,60.00145016017659,
,,,,,,,,,,,,,,,,,,,,12,0,12,0,26,0,26,0,,,,,,actual,w,g,upper,,,,,,,3,w,LoDemNoTar,g,1,0.5372177315875888,,,,,,,,,,,,,,,,,,,,329,2023-11-13_13h08.43.290,leap3,2022.2.5,60.00145016017659,
,,,,,,,,,,,,,,,,,,,,12,0,12,0,27,0,27,0,,,,,,knowledge,w,g,upper,,,,,,,3,w,LoDemNoTar,g,1,0.5379444258287549,,,,,,,,,,,,,,,,,,,,329,2023-11-13_13h08.43.290,leap3,2022.2.5,60.00145016017659,
,,,,,,,,,,,,,,,,,,,,12,0,12,0,28,0,28,0,,,,,,hardest,w,g,upper,,,,,,,3,w,LoDemNoTar,g,1,0.45064773922786117,,,,,,,,,,,,,,,,,,,,329,2023-11-13_13h08.43.290,leap3,2022.2.5,60.00145016017659,
,,,,,,,,,,,,,,,,,,,,12,0,12,0,29,0,29,0,,,,,,euphoric,w,g,upper,,,,,,,3,w,LoDemNoTar,g,1,0.8146858690306544,,,,,,,,,,,,,,,,,,,,329,2023-11-13_13h08.43.290,leap3,2022.2.5,60.00145016017659,
,,,,,,,,,,,,,,,,,,,,12,0,12,0,,,,,,,,,,,,,,,,,,,,,,,,,,,NA,,,,,,,,,,,,,,,,,,329,2023-11-13_13h08.43.290,leap3,2022.2.5,60.00145016017659,
,,,,,,,,,,,,,,,,,,,,13,0,13,0,0,0,0,0,,,,,,purpose,w,g,upper,,,,,,,3,w,LoDemNoTar,g,1,0.7085414780303836,,,,,,,,,,,,,,,,,,,,329,2023-11-13_13h08.43.290,leap3,2022.2.5,60.00145016017659,
,,,,,,,,,,,,,,,,,,,,13,0,13,0,1,0,1,0,,,,,,fravity,nw,h,upper,,,,,,,3,nw,LoDemNoTar,h,1,0.5665702256374061,,,,,,,,,,,,,,,,,,,,329,2023-11-13_13h08.43.290,leap3,2022.2.5,60.00145016017659,
,,,,,,,,,,,,,,,,,,,,13,0,13,0,2,0,2,0,,,,,,miteous,nw,h,upper,,,,,,,3,nw,LoDemNoTar,h,1,0.7269587935879827,,,,,,,,,,,,,,,,,,,,329,2023-11-13_13h08.43.290,leap3,2022.2.5,60.00145016017659,
,,,,,,,,,,,,,,,,,,,,13,0,13,0,3,0,3,0,,,,,,hutting,nw,h,upper,,,,,,,3,nw,LoDemNoTar,g,0,0.5286500216461718,,,,,,,,,,,,,,,,,,,,329,2023-11-13_13h08.43.290,leap3,2022.2.5,60.00145016017659,
,,,,,,,,,,,,,,,,,,,,13,0,13,0,4,0,4,0,,,,,,etcess,nw,h,upper,,,,,,,3,nw,LoDemNoTar,h,1,0.6172335701994598,,,,,,,,,,,,,,,,,,,,329,2023-11-13_13h08.43.290,leap3,2022.2.5,60.00145016017659,
,,,,,,,,,,,,,,,,,,,,13,0,13,0,5,0,5,0,,,,,,earmaff,nw,h,upper,,,,,,,3,nw,LoDemNoTar,h,1,0.638494098559022,,,,,,,,,,,,,,,,,,,,329,2023-11-13_13h08.43.290,leap3,2022.2.5,60.00145016017659,
,,,,,,,,,,,,,,,,,,,,13,0,13,0,6,0,6,0,,,,,,planar,w,g,upper,,,,,,,3,w,LoDemNoTar,g,1,1.4991449057124555,,,,,,,,,,,,,,,,,,,,329,2023-11-13_13h08.43.290,leap3,2022.2.5,60.00145016017659,
,,,,,,,,,,,,,,,,,,,,13,0,13,0,7,0,7,0,,,,,,pepperoni,w,g,upper,,,,,,,3,w,LoDemNoTar,g,1,0.5737732732668519,,,,,,,,,,,,,,,,,,,,329,2023-11-13_13h08.43.290,leap3,2022.2.5,60.00145016017659,
,,,,,,,,,,,,,,,,,,,,13,0,13,0,8,0,8,0,,,,,,hegacy,nw,h,upper,,,,,,,3,nw,LoDemNoTar,h,1,0.5651919892989099,,,,,,,,,,,,,,,,,,,,329,2023-11-13_13h08.43.290,leap3,2022.2.5,60.00145016017659,
,,,,,,,,,,,,,,,,,,,,13,0,13,0,9,0,9,0,,,,,,roaned,nw,h,upper,,,,,,,3,nw,LoDemNoTar,g,0,0.508804147131741,,,,,,,,,,,,,,,,,,,,329,2023-11-13_13h08.43.290,leap3,2022.2.5,60.00145016017659,
,,,,,,,,,,,,,,,,,,,,13,0,13,0,10,0,10,0,,,,,,alber,nw,h,upper,,,,,,,3,nw,LoDemNoTar,h,1,0.5108607416041195,,,,,,,,,,,,,,,,,,,,329,2023-11-13_13h08.43.290,leap3,2022.2.5,60.00145016017659,
,,,,,,,,,,,,,,,,,,,,13,0,13,0,11,0,11,0,,,,,,baseline,w,g,upper,,,,,,,3,w,LoDemNoTar,g,1,0.6562065705657005,,,,,,,,,,,,,,,,,,,,329,2023-11-13_13h08.43.290,leap3,2022.2.5,60.00145016017659,
,,,,,,,,,,,,,,,,,,,,13,0,13,0,12,0,12,0,,,,,,airline,w,g,upper,,,,,,,3,w,LoDemNoTar,h,0,0.612894260790199,,,,,,,,,,,,,,,,,,,,329,2023-11-13_13h08.43.290,leap3,2022.2.5,60.00145016017659,
,,,,,,,,,,,,,,,,,,,,13,0,13,0,13,0,13,0,,,,,,retreat,w,g,upper,,,,,,,3,w,LoDemNoTar,g,1,0.4981940779834986,,,,,,,,,,,,,,,,,,,,329,2023-11-13_13h08.43.290,leap3,2022.2.5,60.00145016017659,
,,,,,,,,,,,,,,,,,,,,13,0,13,0,14,0,14,0,,,,,,kiner,nw,h,upper,,,,,,,3,nw,LoDemNoTar,h,1,0.5968122994527221,,,,,,,,,,,,,,,,,,,,329,2023-11-13_13h08.43.290,leap3,2022.2.5,60.00145016017659,
,,,,,,,,,,,,,,,,,,,,13,0,13,0,15,0,15,0,,,,,,oldest,w,g,upper,,,,,,,3,w,LoDemNoTar,g,1,0.46746996929869056,,,,,,,,,,,,,,,,,,,,329,2023-11-13_13h08.43.290,leap3,2022.2.5,60.00145016017659,
,,,,,,,,,,,,,,,,,,,,13,0,13,0,16,0,16,0,,,,,,runabouk,nw,h,upper,,,,,,,3,nw,LoDemNoTar,h,1,0.5349658066406846,,,,,,,,,,,,,,,,,,,,329,2023-11-13_13h08.43.290,leap3,2022.2.5,60.00145016017659,
,,,,,,,,,,,,,,,,,,,,13,0,13,0,17,0,17,0,,,,,,squadroim,nw,h,upper,,,,,,,3,nw,LoDemNoTar,h,1,0.8145786030218005,,,,,,,,,,,,,,,,,,,,329,2023-11-13_13h08.43.290,leap3,2022.2.5,60.00145016017659,
,,,,,,,,,,,,,,,,,,,,13,0,13,0,18,0,18,0,,,,,,peahem,nw,h,upper,,,,,,,3,nw,LoDemNoTar,h,1,0.614271835424006,,,,,,,,,,,,,,,,,,,,329,2023-11-13_13h08.43.290,leap3,2022.2.5,60.00145016017659,
,,,,,,,,,,,,,,,,,,,,13,0,13,0,19,0,19,0,,,,,,dorte,nw,h,upper,,,,,,,3,nw,LoDemNoTar,h,1,0.5482803708873689,,,,,,,,,,,,,,,,,,,,329,2023-11-13_13h08.43.290,leap3,2022.2.5,60.00145016017659,
,,,,,,,,,,,,,,,,,,,,13,0,13,0,20,0,20,0,,,,,,hackal,nw,h,upper,,,,,,,3,nw,LoDemNoTar,h,1,0.620993509888649,,,,,,,,,,,,,,,,,,,,329,2023-11-13_13h08.43.290,leap3,2022.2.5,60.00145016017659,
,,,,,,,,,,,,,,,,,,,,13,0,13,0,21,0,21,0,,,,,,calming,w,g,upper,,,,,,,3,w,LoDemNoTar,g,1,0.45838248217478395,,,,,,,,,,,,,,,,,,,,329,2023-11-13_13h08.43.290,leap3,2022.2.5,60.00145016017659,
,,,,,,,,,,,,,,,,,,,,13,0,13,0,22,0,22,0,,,,,,extruded,w,g,upper,,,,,,,3,w,LoDemNoTar,g,1,0.5744281262159348,,,,,,,,,,,,,,,,,,,,329,2023-11-13_13h08.43.290,leap3,2022.2.5,60.00145016017659,
,,,,,,,,,,,,,,,,,,,,13,0,13,0,23,0,23,0,,,,,,student,w,g,upper,,,,,,,3,w,LoDemNoTar,g,1,0.4537723595276475,,,,,,,,,,,,,,,,,,,,329,2023-11-13_13h08.43.290,leap3,2022.2.5,60.00145016017659,
,,,,,,,,,,,,,,,,,,,,13,0,13,0,24,0,24,0,,,,,,manage,w,g,upper,,,,,,,3,w,LoDemNoTar,g,1,0.496993956156075,,,,,,,,,,,,,,,,,,,,329,2023-11-13_13h08.43.290,leap3,2022.2.5,60.00145016017659,
,,,,,,,,,,,,,,,,,,,,13,0,13,0,25,0,25,0,,,,,,virulent,w,g,upper,,,,,,,3,w,LoDemNoTar,h,0,0.6675718054175377,,,,,,,,,,,,,,,,,,,,329,2023-11-13_13h08.43.290,leap3,2022.2.5,60.00145016017659,
,,,,,,,,,,,,,,,,,,,,13,0,13,0,26,0,26,0,,,,,,visible,w,g,upper,,,,,,,3,w,LoDemNoTar,g,1,0.6235387613996863,,,,,,,,,,,,,,,,,,,,329,2023-11-13_13h08.43.290,leap3,2022.2.5,60.00145016017659,
,,,,,,,,,,,,,,,,,,,,13,0,13,0,27,0,27,0,,,,,,anonymous,w,g,upper,,,,,,,3,w,LoDemNoTar,g,1,0.620939876884222,,,,,,,,,,,,,,,,,,,,329,2023-11-13_13h08.43.290,leap3,2022.2.5,60.00145016017659,
,,,,,,,,,,,,,,,,,,,,13,0,13,0,28,0,28,0,,,,,,butcher,w,g,upper,,,,,,,3,w,LoDemNoTar,g,1,0.49829637771472335,,,,,,,,,,,,,,,,,,,,329,2023-11-13_13h08.43.290,leap3,2022.2.5,60.00145016017659,
,,,,,,,,,,,,,,,,,,,,13,0,13,0,29,0,29,0,,,,,,unstatle,nw,h,upper,,,,,,,3,nw,LoDemNoTar,h,1,0.7090033171698451,,,,,,,,,,,,,,,,,,,,329,2023-11-13_13h08.43.290,leap3,2022.2.5,60.00145016017659,
,,,,,,,,,,,,,,,,,,,,13,0,13,0,,,,,,,,,,,,,,,,,,,,,,,,,,,NA,,,,,,,,,,,,,,,,,,329,2023-11-13_13h08.43.290,leap3,2022.2.5,60.00145016017659,
,,,,,,,,,,,,,,,,,,,,14,0,14,0,0,0,0,0,,,,,,nostril,w,g,lower,,,,,,,1,w,HiDemTar,h,0,0.6308957557193935,,,,,,,,,,,,,,,,,,,,329,2023-11-13_13h08.43.290,leap3,2022.2.5,60.00145016017659,
,,,,,,,,,,,,,,,,,,,,14,0,14,0,1,0,1,0,,,,,,distrust,w,g,lower,,,,,,,1,w,HiDemTar,g,1,0.49221366457641125,,,,,,,,,,,,,,,,,,,,329,2023-11-13_13h08.43.290,leap3,2022.2.5,60.00145016017659,
,,,,,,,,,,,,,,,,,,,,14,0,14,0,2,0,2,0,,,,,,ciping,nw,h,lower,,,,,,,1,nw,HiDemTar,h,1,0.7830761531367898,,,,,,,,,,,,,,,,,,,,329,2023-11-13_13h08.43.290,leap3,2022.2.5,60.00145016017659,
,,,,,,,,,,,,,,,,,,,,14,0,14,0,3,0,3,0,,,,,,dests,nw,h,lower,,,,,,,1,nw,HiDemTar,g,0,0.4228582177311182,,,,,,,,,,,,,,,,,,,,329,2023-11-13_13h08.43.290,leap3,2022.2.5,60.00145016017659,
,,,,,,,,,,,,,,,,,,,,14,0,14,0,4,0,4,0,,,,,,selongs,nw,h,lower,,,,,,,1,nw,HiDemTar,h,1,0.6122708600014448,,,,,,,,,,,,,,,,,,,,329,2023-11-13_13h08.43.290,leap3,2022.2.5,60.00145016017659,
,,,,,,,,,,,,,,,,,,,,14,0,14,0,5,0,5,0,,,,,,ausht,nw,h,lower,,,,,,,1,nw,HiDemTar,h,1,0.5462817130610347,,,,,,,,,,,,,,,,,,,,329,2023-11-13_13h08.43.290,leap3,2022.2.5,60.00145016017659,
,,,,,,,,,,,,,,,,,,,,14,0,14,0,6,0,6,0,,,,,,ergonomic,w,g,lower,,,,,,,1,w,HiDemTar,h,0,1.0269584292545915,,,,,,,,,,,,,,,,,,,,329,2023-11-13_13h08.43.290,leap3,2022.2.5,60.00145016017659,
,,,,,,,,,,,,,,,,,,,,14,0,14,0,7,0,7,0,,,,,,prama,nw,h,lower,,,,,,,1,nw,HiDemTar,h,1,1.1195776974782348,,,,,,,,,,,,,,,,,,,,329,2023-11-13_13h08.43.290,leap3,2022.2.5,60.00145016017659,
,,,,,,,,,,,,,,,,,,,,14,0,14,0,8,0,8,0,,,,,,contain,w,g,lower,,,,,,,1,w,HiDemTar,g,1,1.9208418475463986,,,,,,,,,,,,,,,,,,,,329,2023-11-13_13h08.43.290,leap3,2022.2.5,60.00145016017659,
,,,,,,,,,,,,,,,,,,,,14,0,14,0,9,0,9,0,,,,,,pariah,w,g,lower,,,,,,,1,w,HiDemTar,h,0,0.6021881820634007,,,,,,,,,,,,,,,,,,,,329,2023-11-13_13h08.43.290,leap3,2022.2.5,60.00145016017659,
,,,,,,,,,,,,,,,,,,,,14,0,14,0,10,0,10,0,,,,,,shockwave,w,g,lower,,,,,,,1,w,HiDemTar,g,1,0.7922702440991998,,,,,,,,,,,,,,,,,,,,329,2023-11-13_13h08.43.290,leap3,2022.2.5,60.00145016017659,
,,,,,,,,,,,,,,,,,,,,14,0,14,0,11,0,11,0,,,,,,deeper,w,g,lower,,,,,,,1,w,HiDemTar,g,1,0.5430064569227397,,,,,,,,,,,,,,,,,,,,329,2023-11-13_13h08.43.290,leap3,2022.2.5,60.00145016017659,
,,,,,,,,,,,,,,,,,,,,14,0,14,0,12,0,12,0,,,,,,dialogues,w,g,lower,,,,,,,1,w,HiDemTar,g,1,0.8316680048592389,,,,,,,,,,,,,,,,,,,,329,2023-11-13_13h08.43.290,leap3,2022.2.5,60.00145016017659,
,,,,,,,,,,,,,,,,,,,,14,0,14,0,13,0,13,0,,,,,,oppose,w,g,lower,,,,,,,1,w,HiDemTar,g,1,0.4850129345431924,,,,,,,,,,,,,,,,,,,,329,2023-11-13_13h08.43.290,leap3,2022.2.5,60.00145016017659,
,,,,,,,,,,,,,,,,,,,,14,0,14,0,14,0,14,0,,,,,,olerates,nw,h,lower,,,,,,,1,nw,HiDemTar,h,1,0.6877209385856986,,,,,,,,,,,,,,,,,,,,329,2023-11-13_13h08.43.290,leap3,2022.2.5,60.00145016017659,
,,,,,,,,,,,,,,,,,,,,14,0,14,0,15,0,15,0,,,,,,landing,w,g,lower,,,,,,,1,w,HiDemTar,g,1,0.5944216568022966,,,,,,,,,,,,,,,,,,,,329,2023-11-13_13h08.43.290,leap3,2022.2.5,60.00145016017659,
,,,,,,,,,,,,,,,,,,,,14,0,14,0,16,0,16,0,,,,,,amidst,w,g,lower,,,,,,,1,w,HiDemTar,g,1,0.8002178641036153,,,,,,,,,,,,,,,,,,,,329,2023-11-13_13h08.43.290,leap3,2022.2.5,60.00145016017659,
,,,,,,,,,,,,,,,,,,,,14,0,14,0,17,0,17,0,,,,,,plartly,nw,h,lower,,,,,,,1,nw,HiDemTar,h,1,0.7990207215771079,,,,,,,,,,,,,,,,,,,,329,2023-11-13_13h08.43.290,leap3,2022.2.5,60.00145016017659,
,,,,,,,,,,,,,,,,,,,,14,0,14,0,18,0,18,0,,,,,,slooping,nw,h,lower,,,,,,,1,nw,HiDemTar,g,0,0.5975449527613819,,,,,,,,,,,,,,,,,,,,329,2023-11-13_13h08.43.290,leap3,2022.2.5,60.00145016017659,
,,,,,,,,,,,,,,,,,,,,14,0,14,0,19,0,19,0,,,,,,gorilla,target,q,lower,,,,,,,1,target,HiDemTar,g,0,0.5163309792988002,1,,,1,,,,,,,,,,,,,,,,329,2023-11-13_13h08.43.290,leap3,2022.2.5,60.00145016017659,
,,,,,,,,,,,,,,,,,,,,14,0,14,0,20,0,20,0,,,,,,favoting,nw,h,lower,,,,,,,1,aftertar1,HiDemTar,h,1,1.0463288906030357,,,,,,,,,,,,,,,,,,,,329,2023-11-13_13h08.43.290,leap3,2022.2.5,60.00145016017659,
,,,,,,,,,,,,,,,,,,,,14,0,14,0,21,0,21,0,,,,,,labitable,nw,h,lower,,,,,,,1,aftertar2,HiDemTar,h,1,0.9470356209203601,,,,,,,,,,,,,,,,,,,,329,2023-11-13_13h08.43.290,leap3,2022.2.5,60.00145016017659,
,,,,,,,,,,,,,,,,,,,,14,0,14,0,22,0,22,0,,,,,,leuter,nw,h,lower,,,,,,,1,aftertar3,HiDemTar,h,1,0.6517232465557754,,,,,,,,,,,,,,,,,,,,329,2023-11-13_13h08.43.290,leap3,2022.2.5,60.00145016017659,
,,,,,,,,,,,,,,,,,,,,14,0,14,0,23,0,23,0,,,,,,volition,w,g,lower,,,,,,,1,nw,HiDemTar,g,1,0.7998646139167249,,,,,,,,,,,,,,,,,,,,329,2023-11-13_13h08.43.290,leap3,2022.2.5,60.00145016017659,
,,,,,,,,,,,,,,,,,,,,14,0,14,0,24,0,24,0,,,,,,otoist,nw,h,lower,,,,,,,1,w,HiDemTar,h,1,0.5584905100986362,,,,,,,,,,,,,,,,,,,,329,2023-11-13_13h08.43.290,leap3,2022.2.5,60.00145016017659,
,,,,,,,,,,,,,,,,,,,,14,0,14,0,25,0,25,0,,,,,,poyride,nw,h,lower,,,,,,,1,nw,HiDemTar,h,1,0.6616115877404809,,,,,,,,,,,,,,,,,,,,329,2023-11-13_13h08.43.290,leap3,2022.2.5,60.00145016017659,
,,,,,,,,,,,,,,,,,,,,14,0,14,0,26,0,26,0,,,,,,pegend,nw,h,lower,,,,,,,1,nw,HiDemTar,h,1,0.8015212789177895,,,,,,,,,,,,,,,,,,,,329,2023-11-13_13h08.43.290,leap3,2022.2.5,60.00145016017659,
,,,,,,,,,,,,,,,,,,,,14,0,14,0,27,0,27,0,,,,,,demise,w,g,lower,,,,,,,1,nw,HiDemTar,q,0,0.7679744837805629,,,,,,,,,,,,,,,,,,,,329,2023-11-13_13h08.43.290,leap3,2022.2.5,60.00145016017659,
,,,,,,,,,,,,,,,,,,,,14,0,14,0,28,0,28,0,,,,,,laser,w,g,lower,,,,,,,1,w,HiDemTar,g,1,1.5761003508232534,,,,,,,,,,,,,,,,,,,,329,2023-11-13_13h08.43.290,leap3,2022.2.5,60.00145016017659,
,,,,,,,,,,,,,,,,,,,,14,0,14,0,29,0,29,0,,,,,,lofty,w,g,lower,,,,,,,1,w,HiDemTar,h,0,0.8475473532453179,,,,,,,,,,,,,,,,,,,,329,2023-11-13_13h08.43.290,leap3,2022.2.5,60.00145016017659,
,,,,,,,,,,,,,,,,,,,,14,0,14,0,,,,,,,,,,,,,,,,,,,,,,,,,,,1,,,,,,,,,,,,,,,,,,329,2023-11-13_13h08.43.290,leap3,2022.2.5,60.00145016017659,
,,,,,,,,,,,,,,,,,,,,15,0,15,0,0,0,0,0,,,,,,atsless,nw,h,lower,,,,,,,1,nw,HiDemTar,h,1,0.7234921799972653,,,,,,,,,,,,,,,,,,,,329,2023-11-13_13h08.43.290,leap3,2022.2.5,60.00145016017659,
,,,,,,,,,,,,,,,,,,,,15,0,15,0,1,0,1,0,,,,,,hinsome,nw,h,lower,,,,,,,1,nw,HiDemTar,h,1,0.48494804510846734,,,,,,,,,,,,,,,,,,,,329,2023-11-13_13h08.43.290,leap3,2022.2.5,60.00145016017659,
,,,,,,,,,,,,,,,,,,,,15,0,15,0,2,0,2,0,,,,,,melodic,w,g,lower,,,,,,,1,w,HiDemTar,g,1,1.175232223700732,,,,,,,,,,,,,,,,,,,,329,2023-11-13_13h08.43.290,leap3,2022.2.5,60.00145016017659,
,,,,,,,,,,,,,,,,,,,,15,0,15,0,3,0,3,0,,,,,,failure,w,g,lower,,,,,,,1,w,HiDemTar,g,1,0.6468962747603655,,,,,,,,,,,,,,,,,,,,329,2023-11-13_13h08.43.290,leap3,2022.2.5,60.00145016017659,
,,,,,,,,,,,,,,,,,,,,15,0,15,0,4,0,4,0,,,,,,paterways,nw,h,lower,,,,,,,1,nw,HiDemTar,h,1,1.203629586379975,,,,,,,,,,,,,,,,,,,,329,2023-11-13_13h08.43.290,leap3,2022.2.5,60.00145016017659,
,,,,,,,,,,,,,,,,,,,,15,0,15,0,5,0,5,0,,,,,,upstairs,w,g,lower,,,,,,,1,w,HiDemTar,g,1,0.6656896839849651,,,,,,,,,,,,,,,,,,,,329,2023-11-13_13h08.43.290,leap3,2022.2.5,60.00145016017659,
,,,,,,,,,,,,,,,,,,,,15,0,15,0,6,0,6,0,,,,,,posing,w,g,lower,,,,,,,1,w,HiDemTar,g,1,0.8936985712498426,,,,,,,,,,,,,,,,,,,,329,2023-11-13_13h08.43.290,leap3,2022.2.5,60.00145016017659,
,,,,,,,,,,,,,,,,,,,,15,0,15,0,7,0,7,0,,,,,,naxis,nw,h,lower,,,,,,,1,nw,HiDemTar,h,1,0.5764211555942893,,,,,,,,,,,,,,,,,,,,329,2023-11-13_13h08.43.290,leap3,2022.2.5,60.00145016017659,
,,,,,,,,,,,,,,,,,,,,15,0,15,0,8,0,8,0,,,,,,arpired,nw,h,lower,,,,,,,1,nw,HiDemTar,h,1,0.7189042386598885,,,,,,,,,,,,,,,,,,,,329,2023-11-13_13h08.43.290,leap3,2022.2.5,60.00145016017659,
,,,,,,,,,,,,,,,,,,,,15,0,15,0,9,0,9,0,,,,,,louches,nw,h,lower,,,,,,,1,nw,HiDemTar,h,1,0.776143919210881,,,,,,,,,,,,,,,,,,,,329,2023-11-13_13h08.43.290,leap3,2022.2.5,60.00145016017659,
,,,,,,,,,,,,,,,,,,,,15,0,15,0,10,0,10,0,,,,,,detrabe,nw,h,lower,,,,,,,1,nw,HiDemTar,h,1,0.6555510559119284,,,,,,,,,,,,,,,,,,,,329,2023-11-13_13h08.43.290,leap3,2022.2.5,60.00145016017659,
,,,,,,,,,,,,,,,,,,,,15,0,15,0,11,0,11,0,,,,,,huzzles,nw,h,lower,,,,,,,1,nw,HiDemTar,h,1,1.0195885235443711,,,,,,,,,,,,,,,,,,,,329,2023-11-13_13h08.43.290,leap3,2022.2.5,60.00145016017659,
,,,,,,,,,,,,,,,,,,,,15,0,15,0,12,0,12,0,,,,,,mustled,nw,h,lower,,,,,,,1,nw,HiDemTar,h,1,0.6569584258832037,,,,,,,,,,,,,,,,,,,,329,2023-11-13_13h08.43.290,leap3,2022.2.5,60.00145016017659,
,,,,,,,,,,,,,,,,,,,,15,0,15,0,13,0,13,0,,,,,,butterfly,target,q,lower,,,,,,,1,target,HiDemTar,q,1,0.877049489878118,1,,,,,,,,,,,,,,,,,,,329,2023-11-13_13h08.43.290,leap3,2022.2.5,60.00145016017659,
,,,,,,,,,,,,,,,,,,,,15,0,15,0,14,0,14,0,,,,,,couple,w,g,lower,,,,,,,1,aftertar1,HiDemTar,g,1,0.6083245286718011,,,,,,,,,,,,,,,,,,,,329,2023-11-13_13h08.43.290,leap3,2022.2.5,60.00145016017659,
,,,,,,,,,,,,,,,,,,,,15,0,15,0,15,0,15,0,,,,,,postal,w,g,lower,,,,,,,1,aftertar2,HiDemTar,g,1,0.9343722681514919,,,,,,,,,,,,,,,,,,,,329,2023-11-13_13h08.43.290,leap3,2022.2.5,60.00145016017659,
,,,,,,,,,,,,,,,,,,,,15,0,15,0,16,0,16,0,,,,,,stagger,w,g,lower,,,,,,,1,aftertar3,HiDemTar,g,1,0.9991301731206477,,,,,,,,,,,,,,,,,,,,329,2023-11-13_13h08.43.290,leap3,2022.2.5,60.00145016017659,
,,,,,,,,,,,,,,,,,,,,15,0,15,0,17,0,17,0,,,,,,tibs,nw,h,lower,,,,,,,1,w,HiDemTar,h,1,0.7007868704386055,,,,,,,,,,,,,,,,,,,,329,2023-11-13_13h08.43.290,leap3,2022.2.5,60.00145016017659,
,,,,,,,,,,,,,,,,,,,,15,0,15,0,18,0,18,0,,,,,,irregular,w,g,lower,,,,,,,1,nw,HiDemTar,g,1,0.6307954415678978,,,,,,,,,,,,,,,,,,,,329,2023-11-13_13h08.43.290,leap3,2022.2.5,60.00145016017659,
,,,,,,,,,,,,,,,,,,,,15,0,15,0,19,0,19,0,,,,,,infested,w,g,lower,,,,,,,1,w,HiDemTar,g,1,0.8190347789786756,,,,,,,,,,,,,,,,,,,,329,2023-11-13_13h08.43.290,leap3,2022.2.5,60.00145016017659,
,,,,,,,,,,,,,,,,,,,,15,0,15,0,20,0,20,0,,,,,,sponto,nw,h,lower,,,,,,,1,w,HiDemTar,h,1,0.682374189607799,,,,,,,,,,,,,,,,,,,,329,2023-11-13_13h08.43.290,leap3,2022.2.5,60.00145016017659,
,,,,,,,,,,,,,,,,,,,,15,0,15,0,21,0,21,0,,,,,,digest,w,g,lower,,,,,,,1,nw,HiDemTar,g,1,0.5817404258996248,,,,,,,,,,,,,,,,,,,,329,2023-11-13_13h08.43.290,leap3,2022.2.5,60.00145016017659,
,,,,,,,,,,,,,,,,,,,,15,0,15,0,22,0,22,0,,,,,,lasprey,nw,h,lower,,,,,,,1,w,HiDemTar,h,1,0.6049794172868133,,,,,,,,,,,,,,,,,,,,329,2023-11-13_13h08.43.290,leap3,2022.2.5,60.00145016017659,
,,,,,,,,,,,,,,,,,,,,15,0,15,0,23,0,23,0,,,,,,baults,nw,h,lower,,,,,,,1,nw,HiDemTar,h,1,0.6990782283246517,,,,,,,,,,,,,,,,,,,,329,2023-11-13_13h08.43.290,leap3,2022.2.5,60.00145016017659,
,,,,,,,,,,,,,,,,,,,,15,0,15,0,24,0,24,0,,,,,,penalize,w,g,lower,,,,,,,1,nw,HiDemTar,h,0,0.7977947765029967,,,,,,,,,,,,,,,,,,,,329,2023-11-13_13h08.43.290,leap3,2022.2.5,60.00145016017659,
,,,,,,,,,,,,,,,,,,,,15,0,15,0,25,0,25,0,,,,,,schinter,nw,h,lower,,,,,,,1,w,HiDemTar,h,1,0.6436663744971156,,,,,,,,,,,,,,,,,,,,329,2023-11-13_13h08.43.290,leap3,2022.2.5,60.00145016017659,
,,,,,,,,,,,,,,,,,,,,15,0,15,0,26,0,26,0,,,,,,drauns,nw,h,lower,,,,,,,1,nw,HiDemTar,h,1,0.5122273908928037,,,,,,,,,,,,,,,,,,,,329,2023-11-13_13h08.43.290,leap3,2022.2.5,60.00145016017659,
,,,,,,,,,,,,,,,,,,,,15,0,15,0,27,0,27,0,,,,,,airmen,w,g,lower,,,,,,,1,nw,HiDemTar,g,1,1.1390981320291758,,,,,,,,,,,,,,,,,,,,329,2023-11-13_13h08.43.290,leap3,2022.2.5,60.00145016017659,
,,,,,,,,,,,,,,,,,,,,15,0,15,0,28,0,28,0,,,,,,enunciate,w,g,lower,,,,,,,1,w,HiDemTar,g,1,0.8116711634211242,,,,,,,,,,,,,,,,,,,,329,2023-11-13_13h08.43.290,leap3,2022.2.5,60.00145016017659,
,,,,,,,,,,,,,,,,,,,,15,0,15,0,29,0,29,0,,,,,,leather,w,g,lower,,,,,,,1,w,HiDemTar,g,1,0.5776821938343346,,,,,,,,,,,,,,,,,,,,329,2023-11-13_13h08.43.290,leap3,2022.2.5,60.00145016017659,
,,,,,,,,,,,,,,,,,,,,15,0,15,0,,,,,,,,,,,,,,,,,,,,,,,,,,,1,,,,,,,,,,,,,,,,,,329,2023-11-13_13h08.43.290,leap3,2022.2.5,60.00145016017659,
,,,,,,,,,,,,,,,,,,,,16,0,16,0,0,0,0,0,,,,,,rebool,nw,h,upper,,,,,,,3,nw,LoDemNoTar,h,1,0.7609892790205777,,,,,,,,,,,,,,,,,,,,329,2023-11-13_13h08.43.290,leap3,2022.2.5,60.00145016017659,
,,,,,,,,,,,,,,,,,,,,16,0,16,0,1,0,1,0,,,,,,facienda,nw,h,upper,,,,,,,3,nw,LoDemNoTar,h,1,0.8650476103648543,,,,,,,,,,,,,,,,,,,,329,2023-11-13_13h08.43.290,leap3,2022.2.5,60.00145016017659,
,,,,,,,,,,,,,,,,,,,,16,0,16,0,2,0,2,0,,,,,,chone,nw,h,upper,,,,,,,3,nw,LoDemNoTar,h,1,0.6609785854816437,,,,,,,,,,,,,,,,,,,,329,2023-11-13_13h08.43.290,leap3,2022.2.5,60.00145016017659,
,,,,,,,,,,,,,,,,,,,,16,0,16,0,3,0,3,0,,,,,,decantel,nw,h,upper,,,,,,,3,nw,LoDemNoTar,h,1,0.6970199784263968,,,,,,,,,,,,,,,,,,,,329,2023-11-13_13h08.43.290,leap3,2022.2.5,60.00145016017659,
,,,,,,,,,,,,,,,,,,,,16,0,16,0,4,0,4,0,,,,,,alarm,w,g,upper,,,,,,,3,w,LoDemNoTar,g,1,0.555704902857542,,,,,,,,,,,,,,,,,,,,329,2023-11-13_13h08.43.290,leap3,2022.2.5,60.00145016017659,
