demoRace_loop.thisRepN,demoRace_loop.thisTrialN,demoRace_loop.thisN,demoRace_loop.thisIndex,LDTunderstand.thisRepN,LDTunderstand.thisTrialN,LDTunderstand.thisN,LDTunderstand.thisIndex,pracBlocks.thisRepN,pracBlocks.thisTrialN,pracBlocks.thisN,pracBlocks.thisIndex,pracTrial.thisRepN,pracTrial.thisTrialN,pracTrial.thisN,pracTrial.thisIndex,PMunderstand.thisRepN,PMunderstand.thisTrialN,PMunderstand.thisN,PMunderstand.thisIndex,LDT_block.thisRepN,LDT_block.thisTrialN,LDT_block.thisN,LDT_block.thisIndex,LDT_trial.thisRepN,LDT_trial.thisTrialN,LDT_trial.thisN,LDT_trial.thisIndex,ageTextbox.text,genderTextbox.text,race,raceResp,LDTunderstand,stim,word_type,corr_key,stim_location,LDTpracKey.keys,LDTpracKey.corr,LDTpracKey.rt,PMunderstand,cueTextbox.text,intentionTextbox.text,block_type,role,block_desc,LDTResp.keys,LDTResp.corr,LDTResp.rt,PM_accuracy,pressedQ,pressedQ_blank,pressedQ_late,postQ1,Q2Textbox.text,Q3Textbox.text,Q4,Q5,Q6Key.keys,Q6Key.rt,postQ7_correct,postQ7,Q8Textbox.text,education,medTextbox.text,health,healthLimit,psych,participant,date,expName,psychopyVersion,frameRate,
0,0,0,0,,,,,,,,,,,,,,,,,,,,,,,,,"
18 ",female,American Indian or Alaska Native,n,,,,,,,,,,,,,,,,,,,,,,,,,,,,,,,,,,,,,330,2023-11-13_14h01.56.083,leap3,2022.2.5,59.91825174179848,
1,0,1,0,,,,,,,,,,,,,,,,,,,,,,,,,,,Asian,y,,,,,,,,,,,,,,,,,,,,,,,,,,,,,,,,,,,,,330,2023-11-13_14h01.56.083,leap3,2022.2.5,59.91825174179848,
2,0,2,0,,,,,,,,,,,,,,,,,,,,,,,,,,,Black or African American,n,,,,,,,,,,,,,,,,,,,,,,,,,,,,,,,,,,,,,330,2023-11-13_14h01.56.083,leap3,2022.2.5,59.91825174179848,
3,0,3,0,,,,,,,,,,,,,,,,,,,,,,,,,,,Native Hawaiian or other Pacific Islander,n,,,,,,,,,,,,,,,,,,,,,,,,,,,,,,,,,,,,,330,2023-11-13_14h01.56.083,leap3,2022.2.5,59.91825174179848,
4,0,4,0,,,,,,,,,,,,,,,,,,,,,,,,,,,White,y,,,,,,,,,,,,,,,,,,,,,,,,,,,,,,,,,,,,,330,2023-11-13_14h01.56.083,leap3,2022.2.5,59.91825174179848,
,,,,0,0,0,0,,,,,,,,,,,,,,,,,,,,,,,,,y,,,,,,,,,,,,,,,,,,,,,,,,,,,,,,,,,,,,330,2023-11-13_14h01.56.083,leap3,2022.2.5,59.91825174179848,
,,,,,,,,0,0,0,0,0,0,0,0,,,,,,,,,,,,,,,,,,hasking,nw,h,upper,g,0,0.9202228072099388,,,,,,,,,,,,,,,,,,,,,,,,,,,,,330,2023-11-13_14h01.56.083,leap3,2022.2.5,59.91825174179848,
,,,,,,,,0,0,0,0,1,0,1,0,,,,,,,,,,,,,,,,,,reputable,w,g,upper,g,1,0.7132198573090136,,,,,,,,,,,,,,,,,,,,,,,,,,,,,330,2023-11-13_14h01.56.083,leap3,2022.2.5,59.91825174179848,
,,,,,,,,0,0,0,0,2,0,2,0,,,,,,,,,,,,,,,,,,trotch,nw,h,upper,h,1,1.025839145295322,,,,,,,,,,,,,,,,,,,,,,,,,,,,,330,2023-11-13_14h01.56.083,leap3,2022.2.5,59.91825174179848,
,,,,,,,,0,0,0,0,3,0,3,0,,,,,,,,,,,,,,,,,,crinklo,nw,h,upper,h,1,0.8553000306710601,,,,,,,,,,,,,,,,,,,,,,,,,,,,,330,2023-11-13_14h01.56.083,leap3,2022.2.5,59.91825174179848,
,,,,,,,,0,0,0,0,4,0,4,0,,,,,,,,,,,,,,,,,,julled,nw,h,upper,h,1,0.8009340208955109,,,,,,,,,,,,,,,,,,,,,,,,,,,,,330,2023-11-13_14h01.56.083,leap3,2022.2.5,59.91825174179848,
,,,,,,,,0,0,0,0,5,0,5,0,,,,,,,,,,,,,,,,,,overshoot,w,g,upper,g,1,0.7296938039362431,,,,,,,,,,,,,,,,,,,,,,,,,,,,,330,2023-11-13_14h01.56.083,leap3,2022.2.5,59.91825174179848,
,,,,,,,,0,0,0,0,6,0,6,0,,,,,,,,,,,,,,,,,,unscrew,w,g,upper,g,1,0.7770739458501339,,,,,,,,,,,,,,,,,,,,,,,,,,,,,330,2023-11-13_14h01.56.083,leap3,2022.2.5,59.91825174179848,
,,,,,,,,0,0,0,0,7,0,7,0,,,,,,,,,,,,,,,,,,umpire,w,g,upper,h,0,0.8177052661776543,,,,,,,,,,,,,,,,,,,,,,,,,,,,,330,2023-11-13_14h01.56.083,leap3,2022.2.5,59.91825174179848,
,,,,,,,,0,0,0,0,8,0,8,0,,,,,,,,,,,,,,,,,,summary,w,g,upper,g,1,0.5761868162080646,,,,,,,,,,,,,,,,,,,,,,,,,,,,,330,2023-11-13_14h01.56.083,leap3,2022.2.5,59.91825174179848,
,,,,,,,,0,0,0,0,9,0,9,0,,,,,,,,,,,,,,,,,,slumber,w,g,upper,g,1,1.014714265242219,,,,,,,,,,,,,,,,,,,,,,,,,,,,,330,2023-11-13_14h01.56.083,leap3,2022.2.5,59.91825174179848,
,,,,,,,,0,0,0,0,10,0,10,0,,,,,,,,,,,,,,,,,,infinity,w,g,upper,g,1,0.7566818092018366,,,,,,,,,,,,,,,,,,,,,,,,,,,,,330,2023-11-13_14h01.56.083,leap3,2022.2.5,59.91825174179848,
,,,,,,,,0,0,0,0,11,0,11,0,,,,,,,,,,,,,,,,,,alolition,nw,h,upper,h,1,0.5728615685366094,,,,,,,,,,,,,,,,,,,,,,,,,,,,,330,2023-11-13_14h01.56.083,leap3,2022.2.5,59.91825174179848,
,,,,,,,,0,0,0,0,12,0,12,0,,,,,,,,,,,,,,,,,,curlecs,nw,h,upper,h,1,0.9002458299510181,,,,,,,,,,,,,,,,,,,,,,,,,,,,,330,2023-11-13_14h01.56.083,leap3,2022.2.5,59.91825174179848,
,,,,,,,,0,0,0,0,13,0,13,0,,,,,,,,,,,,,,,,,,turative,nw,h,upper,h,1,0.8389790379442275,,,,,,,,,,,,,,,,,,,,,,,,,,,,,330,2023-11-13_14h01.56.083,leap3,2022.2.5,59.91825174179848,
,,,,,,,,0,0,0,0,,,,,,,,,,,,,,,,,,,,,,,,,,,,,,,,,,,,,,,,,,,,,,,,,,,,,,,,,330,2023-11-13_14h01.56.083,leap3,2022.2.5,59.91825174179848,
,,,,,,,,1,0,1,0,0,0,0,0,,,,,,,,,,,,,,,,,,raestro,nw,h,lower,h,1,0.7154499315656722,,,,,,,,,,,,,,,,,,,,,,,,,,,,,330,2023-11-13_14h01.56.083,leap3,2022.2.5,59.91825174179848,
,,,,,,,,1,0,1,0,1,0,1,0,,,,,,,,,,,,,,,,,,busted,w,g,lower,g,1,0.7574879601597786,,,,,,,,,,,,,,,,,,,,,,,,,,,,,330,2023-11-13_14h01.56.083,leap3,2022.2.5,59.91825174179848,
,,,,,,,,1,0,1,0,2,0,2,0,,,,,,,,,,,,,,,,,,treeps,nw,h,lower,h,1,0.6616136310622096,,,,,,,,,,,,,,,,,,,,,,,,,,,,,330,2023-11-13_14h01.56.083,leap3,2022.2.5,59.91825174179848,
,,,,,,,,1,0,1,0,3,0,3,0,,,,,,,,,,,,,,,,,,grocus,nw,h,lower,h,1,0.6327683329582214,,,,,,,,,,,,,,,,,,,,,,,,,,,,,330,2023-11-13_14h01.56.083,leap3,2022.2.5,59.91825174179848,
,,,,,,,,1,0,1,0,4,0,4,0,,,,,,,,,,,,,,,,,,lumbigo,nw,h,lower,h,1,0.7900114236399531,,,,,,,,,,,,,,,,,,,,,,,,,,,,,330,2023-11-13_14h01.56.083,leap3,2022.2.5,59.91825174179848,
,,,,,,,,1,0,1,0,5,0,5,0,,,,,,,,,,,,,,,,,,hiring,w,g,lower,g,1,0.5567988087423146,,,,,,,,,,,,,,,,,,,,,,,,,,,,,330,2023-11-13_14h01.56.083,leap3,2022.2.5,59.91825174179848,
,,,,,,,,1,0,1,0,6,0,6,0,,,,,,,,,,,,,,,,,,grimace,w,g,lower,g,1,0.9813879616558552,,,,,,,,,,,,,,,,,,,,,,,,,,,,,330,2023-11-13_14h01.56.083,leap3,2022.2.5,59.91825174179848,
,,,,,,,,1,0,1,0,7,0,7,0,,,,,,,,,,,,,,,,,,sponsor,w,g,lower,g,1,0.5407953099347651,,,,,,,,,,,,,,,,,,,,,,,,,,,,,330,2023-11-13_14h01.56.083,leap3,2022.2.5,59.91825174179848,
,,,,,,,,1,0,1,0,8,0,8,0,,,,,,,,,,,,,,,,,,revival,w,g,lower,g,1,0.6135183810256422,,,,,,,,,,,,,,,,,,,,,,,,,,,,,330,2023-11-13_14h01.56.083,leap3,2022.2.5,59.91825174179848,
,,,,,,,,1,0,1,0,9,0,9,0,,,,,,,,,,,,,,,,,,tricycle,w,g,lower,g,1,0.47464725049212575,,,,,,,,,,,,,,,,,,,,,,,,,,,,,330,2023-11-13_14h01.56.083,leap3,2022.2.5,59.91825174179848,
,,,,,,,,1,0,1,0,10,0,10,0,,,,,,,,,,,,,,,,,,picture,w,g,lower,g,1,0.582022552844137,,,,,,,,,,,,,,,,,,,,,,,,,,,,,330,2023-11-13_14h01.56.083,leap3,2022.2.5,59.91825174179848,
,,,,,,,,1,0,1,0,11,0,11,0,,,,,,,,,,,,,,,,,,lurshing,nw,h,lower,h,1,0.7495714607648551,,,,,,,,,,,,,,,,,,,,,,,,,,,,,330,2023-11-13_14h01.56.083,leap3,2022.2.5,59.91825174179848,
,,,,,,,,1,0,1,0,12,0,12,0,,,,,,,,,,,,,,,,,,latador,nw,h,lower,h,1,0.7180316001176834,,,,,,,,,,,,,,,,,,,,,,,,,,,,,330,2023-11-13_14h01.56.083,leap3,2022.2.5,59.91825174179848,
,,,,,,,,1,0,1,0,13,0,13,0,,,,,,,,,,,,,,,,,,grutch,nw,h,lower,h,1,0.7593204216100276,,,,,,,,,,,,,,,,,,,,,,,,,,,,,330,2023-11-13_14h01.56.083,leap3,2022.2.5,59.91825174179848,
,,,,,,,,1,0,1,0,,,,,,,,,,,,,,,,,,,,,,,,,,,,,,,,,,,,,,,,,,,,,,,,,,,,,,,,,330,2023-11-13_14h01.56.083,leap3,2022.2.5,59.91825174179848,
,,,,,,,,,,,,,,,,0,0,0,0,,,,,,,,,,,,,,,,,,,,,y,,,,,,,,,,,,,,,,,,,,,,,,,,,,330,2023-11-13_14h01.56.083,leap3,2022.2.5,59.91825174179848,
,,,,,,,,,,,,,,,,,,,,0,0,0,0,0,0,0,0,,,,,,robbery,w,g,lower,,,,,animal,"
q ",3,w,LoDemNoTar,g,1,0.8578217760659754,,,,,,,,,,,,,,,,,,,,330,2023-11-13_14h01.56.083,leap3,2022.2.5,59.91825174179848,
,,,,,,,,,,,,,,,,,,,,0,0,0,0,1,0,1,0,,,,,,stalemate,w,g,lower,,,,,,,3,w,LoDemNoTar,h,0,0.918572764378041,,,,,,,,,,,,,,,,,,,,330,2023-11-13_14h01.56.083,leap3,2022.2.5,59.91825174179848,
,,,,,,,,,,,,,,,,,,,,0,0,0,0,2,0,2,0,,,,,,aggepting,nw,h,lower,,,,,,,3,nw,LoDemNoTar,h,1,0.8085065404884517,,,,,,,,,,,,,,,,,,,,330,2023-11-13_14h01.56.083,leap3,2022.2.5,59.91825174179848,
,,,,,,,,,,,,,,,,,,,,0,0,0,0,3,0,3,0,,,,,,unbridled,w,g,lower,,,,,,,3,w,LoDemNoTar,g,1,0.94327971059829,,,,,,,,,,,,,,,,,,,,330,2023-11-13_14h01.56.083,leap3,2022.2.5,59.91825174179848,
,,,,,,,,,,,,,,,,,,,,0,0,0,0,4,0,4,0,,,,,,offonents,nw,h,lower,,,,,,,3,nw,LoDemNoTar,h,1,0.7526662847958505,,,,,,,,,,,,,,,,,,,,330,2023-11-13_14h01.56.083,leap3,2022.2.5,59.91825174179848,
,,,,,,,,,,,,,,,,,,,,0,0,0,0,5,0,5,0,,,,,,bickering,w,g,lower,,,,,,,3,w,LoDemNoTar,g,1,0.6093048779293895,,,,,,,,,,,,,,,,,,,,330,2023-11-13_14h01.56.083,leap3,2022.2.5,59.91825174179848,
,,,,,,,,,,,,,,,,,,,,0,0,0,0,6,0,6,0,,,,,,sorping,nw,h,lower,,,,,,,3,nw,LoDemNoTar,h,1,0.7359804548323154,,,,,,,,,,,,,,,,,,,,330,2023-11-13_14h01.56.083,leap3,2022.2.5,59.91825174179848,
,,,,,,,,,,,,,,,,,,,,0,0,0,0,7,0,7,0,,,,,,elvisages,nw,h,lower,,,,,,,3,nw,LoDemNoTar,h,1,0.9687160006724298,,,,,,,,,,,,,,,,,,,,330,2023-11-13_14h01.56.083,leap3,2022.2.5,59.91825174179848,
,,,,,,,,,,,,,,,,,,,,0,0,0,0,8,0,8,0,,,,,,personify,w,g,lower,,,,,,,3,w,LoDemNoTar,g,1,0.9839474484324455,,,,,,,,,,,,,,,,,,,,330,2023-11-13_14h01.56.083,leap3,2022.2.5,59.91825174179848,
,,,,,,,,,,,,,,,,,,,,0,0,0,0,9,0,9,0,,,,,,eyesight,w,g,lower,,,,,,,3,w,LoDemNoTar,g,1,0.6244151550345123,,,,,,,,,,,,,,,,,,,,330,2023-11-13_14h01.56.083,leap3,2022.2.5,59.91825174179848,
,,,,,,,,,,,,,,,,,,,,0,0,0,0,10,0,10,0,,,,,,schides,nw,h,lower,,,,,,,3,nw,LoDemNoTar,h,1,0.75857088342309,,,,,,,,,,,,,,,,,,,,330,2023-11-13_14h01.56.083,leap3,2022.2.5,59.91825174179848,
,,,,,,,,,,,,,,,,,,,,0,0,0,0,11,0,11,0,,,,,,official,w,g,lower,,,,,,,3,w,LoDemNoTar,g,1,0.5432789828628302,,,,,,,,,,,,,,,,,,,,330,2023-11-13_14h01.56.083,leap3,2022.2.5,59.91825174179848,
,,,,,,,,,,,,,,,,,,,,0,0,0,0,12,0,12,0,,,,,,bamps,nw,h,lower,,,,,,,3,nw,LoDemNoTar,h,1,0.704593216534704,,,,,,,,,,,,,,,,,,,,330,2023-11-13_14h01.56.083,leap3,2022.2.5,59.91825174179848,
,,,,,,,,,,,,,,,,,,,,0,0,0,0,13,0,13,0,,,,,,metrol,nw,h,lower,,,,,,,3,nw,LoDemNoTar,h,1,0.7474016407504678,,,,,,,,,,,,,,,,,,,,330,2023-11-13_14h01.56.083,leap3,2022.2.5,59.91825174179848,
,,,,,,,,,,,,,,,,,,,,0,0,0,0,14,0,14,0,,,,,,attrove,nw,h,lower,,,,,,,3,nw,LoDemNoTar,h,1,0.8286718954332173,,,,,,,,,,,,,,,,,,,,330,2023-11-13_14h01.56.083,leap3,2022.2.5,59.91825174179848,
,,,,,,,,,,,,,,,,,,,,0,0,0,0,15,0,15,0,,,,,,dariner,nw,h,lower,,,,,,,3,nw,LoDemNoTar,h,1,0.834189475979656,,,,,,,,,,,,,,,,,,,,330,2023-11-13_14h01.56.083,leap3,2022.2.5,59.91825174179848,
,,,,,,,,,,,,,,,,,,,,0,0,0,0,16,0,16,0,,,,,,number,w,g,lower,,,,,,,3,w,LoDemNoTar,g,1,0.5591679317876697,,,,,,,,,,,,,,,,,,,,330,2023-11-13_14h01.56.083,leap3,2022.2.5,59.91825174179848,
,,,,,,,,,,,,,,,,,,,,0,0,0,0,17,0,17,0,,,,,,superstar,w,g,lower,,,,,,,3,w,LoDemNoTar,g,1,0.6238609473221004,,,,,,,,,,,,,,,,,,,,330,2023-11-13_14h01.56.083,leap3,2022.2.5,59.91825174179848,
,,,,,,,,,,,,,,,,,,,,0,0,0,0,18,0,18,0,,,,,,rocket,w,g,lower,,,,,,,3,w,LoDemNoTar,g,1,0.49392766086384654,,,,,,,,,,,,,,,,,,,,330,2023-11-13_14h01.56.083,leap3,2022.2.5,59.91825174179848,
,,,,,,,,,,,,,,,,,,,,0,0,0,0,19,0,19,0,,,,,,graveyard,w,g,lower,,,,,,,3,w,LoDemNoTar,g,1,0.6494005303829908,,,,,,,,,,,,,,,,,,,,330,2023-11-13_14h01.56.083,leap3,2022.2.5,59.91825174179848,
,,,,,,,,,,,,,,,,,,,,0,0,0,0,20,0,20,0,,,,,,frowsed,nw,h,lower,,,,,,,3,nw,LoDemNoTar,h,1,0.630592885427177,,,,,,,,,,,,,,,,,,,,330,2023-11-13_14h01.56.083,leap3,2022.2.5,59.91825174179848,
,,,,,,,,,,,,,,,,,,,,0,0,0,0,21,0,21,0,,,,,,paying,w,g,lower,,,,,,,3,w,LoDemNoTar,g,1,0.5566528076305985,,,,,,,,,,,,,,,,,,,,330,2023-11-13_14h01.56.083,leap3,2022.2.5,59.91825174179848,
,,,,,,,,,,,,,,,,,,,,0,0,0,0,22,0,22,0,,,,,,mubby,nw,h,lower,,,,,,,3,nw,LoDemNoTar,h,1,0.6855339598841965,,,,,,,,,,,,,,,,,,,,330,2023-11-13_14h01.56.083,leap3,2022.2.5,59.91825174179848,
,,,,,,,,,,,,,,,,,,,,0,0,0,0,23,0,23,0,,,,,,sampling,w,g,lower,,,,,,,3,w,LoDemNoTar,h,0,0.9127737758681178,,,,,,,,,,,,,,,,,,,,330,2023-11-13_14h01.56.083,leap3,2022.2.5,59.91825174179848,
,,,,,,,,,,,,,,,,,,,,0,0,0,0,24,0,24,0,,,,,,gounts,nw,h,lower,,,,,,,3,nw,LoDemNoTar,h,1,0.803360418882221,,,,,,,,,,,,,,,,,,,,330,2023-11-13_14h01.56.083,leap3,2022.2.5,59.91825174179848,
,,,,,,,,,,,,,,,,,,,,0,0,0,0,25,0,25,0,,,,,,helpful,w,g,lower,,,,,,,3,w,LoDemNoTar,g,1,0.5140943406149745,,,,,,,,,,,,,,,,,,,,330,2023-11-13_14h01.56.083,leap3,2022.2.5,59.91825174179848,
,,,,,,,,,,,,,,,,,,,,0,0,0,0,26,0,26,0,,,,,,vibrate,w,g,lower,,,,,,,3,w,LoDemNoTar,g,1,0.5557754775509238,,,,,,,,,,,,,,,,,,,,330,2023-11-13_14h01.56.083,leap3,2022.2.5,59.91825174179848,
,,,,,,,,,,,,,,,,,,,,0,0,0,0,27,0,27,0,,,,,,graciap,nw,h,lower,,,,,,,3,nw,LoDemNoTar,h,1,0.79652816709131,,,,,,,,,,,,,,,,,,,,330,2023-11-13_14h01.56.083,leap3,2022.2.5,59.91825174179848,
,,,,,,,,,,,,,,,,,,,,0,0,0,0,28,0,28,0,,,,,,dredigest,nw,h,lower,,,,,,,3,nw,LoDemNoTar,h,1,0.747801570687443,,,,,,,,,,,,,,,,,,,,330,2023-11-13_14h01.56.083,leap3,2022.2.5,59.91825174179848,
,,,,,,,,,,,,,,,,,,,,0,0,0,0,29,0,29,0,,,,,,maunches,nw,h,lower,,,,,,,3,nw,LoDemNoTar,h,1,0.813168971799314,,,,,,,,,,,,,,,,,,,,330,2023-11-13_14h01.56.083,leap3,2022.2.5,59.91825174179848,
,,,,,,,,,,,,,,,,,,,,0,0,0,0,,,,,,,,,,,,,,,,,,,,,,,,,,NA,,,,,,,,,,,,,,,,,,,330,2023-11-13_14h01.56.083,leap3,2022.2.5,59.91825174179848,
,,,,,,,,,,,,,,,,,,,,1,0,1,0,0,0,0,0,,,,,,ebuating,nw,h,upper,,,,,,,2,nw,HiDemNoTar,h,1,0.6917106965556741,,,,,,,,,,,,,,,,,,,,330,2023-11-13_14h01.56.083,leap3,2022.2.5,59.91825174179848,
,,,,,,,,,,,,,,,,,,,,1,0,1,0,1,0,1,0,,,,,,calcify,w,g,upper,,,,,,,2,w,HiDemNoTar,g,1,0.7349610961973667,,,,,,,,,,,,,,,,,,,,330,2023-11-13_14h01.56.083,leap3,2022.2.5,59.91825174179848,
,,,,,,,,,,,,,,,,,,,,1,0,1,0,2,0,2,0,,,,,,deadly,w,g,upper,,,,,,,2,w,HiDemNoTar,g,1,0.6164503199979663,,,,,,,,,,,,,,,,,,,,330,2023-11-13_14h01.56.083,leap3,2022.2.5,59.91825174179848,
,,,,,,,,,,,,,,,,,,,,1,0,1,0,3,0,3,0,,,,,,purpose,w,g,upper,,,,,,,2,w,HiDemNoTar,g,1,0.6470446502789855,,,,,,,,,,,,,,,,,,,,330,2023-11-13_14h01.56.083,leap3,2022.2.5,59.91825174179848,
,,,,,,,,,,,,,,,,,,,,1,0,1,0,4,0,4,0,,,,,,expensive,w,g,upper,,,,,,,2,w,HiDemNoTar,g,1,0.7713815621100366,,,,,,,,,,,,,,,,,,,,330,2023-11-13_14h01.56.083,leap3,2022.2.5,59.91825174179848,
,,,,,,,,,,,,,,,,,,,,1,0,1,0,5,0,5,0,,,,,,resent,w,g,upper,,,,,,,2,w,HiDemNoTar,g,1,0.6044500963762403,,,,,,,,,,,,,,,,,,,,330,2023-11-13_14h01.56.083,leap3,2022.2.5,59.91825174179848,
,,,,,,,,,,,,,,,,,,,,1,0,1,0,6,0,6,0,,,,,,fictional,w,g,upper,,,,,,,2,w,HiDemNoTar,g,1,0.5391671173274517,,,,,,,,,,,,,,,,,,,,330,2023-11-13_14h01.56.083,leap3,2022.2.5,59.91825174179848,
,,,,,,,,,,,,,,,,,,,,1,0,1,0,7,0,7,0,,,,,,roaned,nw,h,upper,,,,,,,2,nw,HiDemNoTar,h,1,0.7244914001785219,,,,,,,,,,,,,,,,,,,,330,2023-11-13_14h01.56.083,leap3,2022.2.5,59.91825174179848,
,,,,,,,,,,,,,,,,,,,,1,0,1,0,8,0,8,0,,,,,,efficient,w,g,upper,,,,,,,2,w,HiDemNoTar,g,1,0.6386957759968936,,,,,,,,,,,,,,,,,,,,330,2023-11-13_14h01.56.083,leap3,2022.2.5,59.91825174179848,
,,,,,,,,,,,,,,,,,,,,1,0,1,0,9,0,9,0,,,,,,eightiech,nw,h,upper,,,,,,,2,nw,HiDemNoTar,h,1,0.9799829088151455,,,,,,,,,,,,,,,,,,,,330,2023-11-13_14h01.56.083,leap3,2022.2.5,59.91825174179848,
,,,,,,,,,,,,,,,,,,,,1,0,1,0,10,0,10,0,,,,,,contusiok,nw,h,upper,,,,,,,2,nw,HiDemNoTar,h,1,1.0270319837145507,,,,,,,,,,,,,,,,,,,,330,2023-11-13_14h01.56.083,leap3,2022.2.5,59.91825174179848,
,,,,,,,,,,,,,,,,,,,,1,0,1,0,11,0,11,0,,,,,,togglo,nw,h,upper,,,,,,,2,nw,HiDemNoTar,h,1,0.5930424840189517,,,,,,,,,,,,,,,,,,,,330,2023-11-13_14h01.56.083,leap3,2022.2.5,59.91825174179848,
,,,,,,,,,,,,,,,,,,,,1,0,1,0,12,0,12,0,,,,,,egect,nw,h,upper,,,,,,,2,nw,HiDemNoTar,h,1,0.560626286547631,,,,,,,,,,,,,,,,,,,,330,2023-11-13_14h01.56.083,leap3,2022.2.5,59.91825174179848,
,,,,,,,,,,,,,,,,,,,,1,0,1,0,13,0,13,0,,,,,,checkout,w,g,upper,,,,,,,2,w,HiDemNoTar,g,1,0.8491428270936012,,,,,,,,,,,,,,,,,,,,330,2023-11-13_14h01.56.083,leap3,2022.2.5,59.91825174179848,
,,,,,,,,,,,,,,,,,,,,1,0,1,0,14,0,14,0,,,,,,sequence,w,g,upper,,,,,,,2,w,HiDemNoTar,g,1,0.533900155685842,,,,,,,,,,,,,,,,,,,,330,2023-11-13_14h01.56.083,leap3,2022.2.5,59.91825174179848,
,,,,,,,,,,,,,,,,,,,,1,0,1,0,15,0,15,0,,,,,,unversed,w,g,upper,,,,,,,2,w,HiDemNoTar,g,1,0.6552226929925382,,,,,,,,,,,,,,,,,,,,330,2023-11-13_14h01.56.083,leap3,2022.2.5,59.91825174179848,
,,,,,,,,,,,,,,,,,,,,1,0,1,0,16,0,16,0,,,,,,outlaved,nw,h,upper,,,,,,,2,nw,HiDemNoTar,h,1,0.8199267331510782,,,,,,,,,,,,,,,,,,,,330,2023-11-13_14h01.56.083,leap3,2022.2.5,59.91825174179848,
,,,,,,,,,,,,,,,,,,,,1,0,1,0,17,0,17,0,,,,,,lightels,nw,h,upper,,,,,,,2,nw,HiDemNoTar,h,1,0.9459560648538172,,,,,,,,,,,,,,,,,,,,330,2023-11-13_14h01.56.083,leap3,2022.2.5,59.91825174179848,
,,,,,,,,,,,,,,,,,,,,1,0,1,0,18,0,18,0,,,,,,fomrade,nw,h,upper,,,,,,,2,nw,HiDemNoTar,h,1,0.8025393700227141,,,,,,,,,,,,,,,,,,,,330,2023-11-13_14h01.56.083,leap3,2022.2.5,59.91825174179848,
,,,,,,,,,,,,,,,,,,,,1,0,1,0,19,0,19,0,,,,,,miracle,w,g,upper,,,,,,,2,w,HiDemNoTar,g,1,0.49693806236609817,,,,,,,,,,,,,,,,,,,,330,2023-11-13_14h01.56.083,leap3,2022.2.5,59.91825174179848,
,,,,,,,,,,,,,,,,,,,,1,0,1,0,20,0,20,0,,,,,,plashed,nw,h,upper,,,,,,,2,nw,HiDemNoTar,h,1,0.7242692532017827,,,,,,,,,,,,,,,,,,,,330,2023-11-13_14h01.56.083,leap3,2022.2.5,59.91825174179848,
,,,,,,,,,,,,,,,,,,,,1,0,1,0,21,0,21,0,,,,,,heuls,nw,h,upper,,,,,,,2,nw,HiDemNoTar,h,1,0.5902711134403944,,,,,,,,,,,,,,,,,,,,330,2023-11-13_14h01.56.083,leap3,2022.2.5,59.91825174179848,
,,,,,,,,,,,,,,,,,,,,1,0,1,0,22,0,22,0,,,,,,perform,w,g,upper,,,,,,,2,w,HiDemNoTar,g,1,0.509626577142626,,,,,,,,,,,,,,,,,,,,330,2023-11-13_14h01.56.083,leap3,2022.2.5,59.91825174179848,
,,,,,,,,,,,,,,,,,,,,1,0,1,0,23,0,23,0,,,,,,spiud,nw,h,upper,,,,,,,2,nw,HiDemNoTar,h,1,0.4962355364114046,,,,,,,,,,,,,,,,,,,,330,2023-11-13_14h01.56.083,leap3,2022.2.5,59.91825174179848,
,,,,,,,,,,,,,,,,,,,,1,0,1,0,24,0,24,0,,,,,,gackpedal,nw,h,upper,,,,,,,2,nw,HiDemNoTar,h,1,0.6430724957026541,,,,,,,,,,,,,,,,,,,,330,2023-11-13_14h01.56.083,leap3,2022.2.5,59.91825174179848,
,,,,,,,,,,,,,,,,,,,,1,0,1,0,25,0,25,0,,,,,,bypassed,w,g,upper,,,,,,,2,w,HiDemNoTar,g,1,0.7827871874906123,,,,,,,,,,,,,,,,,,,,330,2023-11-13_14h01.56.083,leap3,2022.2.5,59.91825174179848,
,,,,,,,,,,,,,,,,,,,,1,0,1,0,26,0,26,0,,,,,,houted,nw,h,upper,,,,,,,2,nw,HiDemNoTar,h,1,0.5611222265288234,,,,,,,,,,,,,,,,,,,,330,2023-11-13_14h01.56.083,leap3,2022.2.5,59.91825174179848,
,,,,,,,,,,,,,,,,,,,,1,0,1,0,27,0,27,0,,,,,,latter,w,g,upper,,,,,,,2,w,HiDemNoTar,g,1,0.617957673035562,,,,,,,,,,,,,,,,,,,,330,2023-11-13_14h01.56.083,leap3,2022.2.5,59.91825174179848,
,,,,,,,,,,,,,,,,,,,,1,0,1,0,28,0,28,0,,,,,,carbled,nw,h,upper,,,,,,,2,nw,HiDemNoTar,h,1,0.7908152570016682,,,,,,,,,,,,,,,,,,,,330,2023-11-13_14h01.56.083,leap3,2022.2.5,59.91825174179848,
,,,,,,,,,,,,,,,,,,,,1,0,1,0,29,0,29,0,,,,,,suspect,w,g,upper,,,,,,,2,w,HiDemNoTar,g,1,0.6383080948144197,,,,,,,,,,,,,,,,,,,,330,2023-11-13_14h01.56.083,leap3,2022.2.5,59.91825174179848,
,,,,,,,,,,,,,,,,,,,,1,0,1,0,,,,,,,,,,,,,,,,,,,,,,,,,,NA,,,,,,,,,,,,,,,,,,,330,2023-11-13_14h01.56.083,leap3,2022.2.5,59.91825174179848,
,,,,,,,,,,,,,,,,,,,,2,0,2,0,0,0,0,0,,,,,,reforest,w,g,lower,,,,,,,3,w,LoDemNoTar,g,1,0.5958638461306691,,,,,,,,,,,,,,,,,,,,330,2023-11-13_14h01.56.083,leap3,2022.2.5,59.91825174179848,
,,,,,,,,,,,,,,,,,,,,2,0,2,0,1,0,1,0,,,,,,splinging,nw,h,lower,,,,,,,3,nw,LoDemNoTar,h,1,0.7872191956266761,,,,,,,,,,,,,,,,,,,,330,2023-11-13_14h01.56.083,leap3,2022.2.5,59.91825174179848,
,,,,,,,,,,,,,,,,,,,,2,0,2,0,2,0,2,0,,,,,,poyride,nw,h,lower,,,,,,,3,nw,LoDemNoTar,h,1,0.986697300337255,,,,,,,,,,,,,,,,,,,,330,2023-11-13_14h01.56.083,leap3,2022.2.5,59.91825174179848,
,,,,,,,,,,,,,,,,,,,,2,0,2,0,3,0,3,0,,,,,,ounwit,nw,h,lower,,,,,,,3,nw,LoDemNoTar,h,1,0.7130943825468421,,,,,,,,,,,,,,,,,,,,330,2023-11-13_14h01.56.083,leap3,2022.2.5,59.91825174179848,
,,,,,,,,,,,,,,,,,,,,2,0,2,0,4,0,4,0,,,,,,ufionize,nw,h,lower,,,,,,,3,nw,LoDemNoTar,h,1,0.9372628801502287,,,,,,,,,,,,,,,,,,,,330,2023-11-13_14h01.56.083,leap3,2022.2.5,59.91825174179848,
,,,,,,,,,,,,,,,,,,,,2,0,2,0,5,0,5,0,,,,,,serving,w,g,lower,,,,,,,3,w,LoDemNoTar,g,1,0.5171772460453212,,,,,,,,,,,,,,,,,,,,330,2023-11-13_14h01.56.083,leap3,2022.2.5,59.91825174179848,
,,,,,,,,,,,,,,,,,,,,2,0,2,0,6,0,6,0,,,,,,function,w,g,lower,,,,,,,3,w,LoDemNoTar,g,1,0.45513542322441936,,,,,,,,,,,,,,,,,,,,330,2023-11-13_14h01.56.083,leap3,2022.2.5,59.91825174179848,
,,,,,,,,,,,,,,,,,,,,2,0,2,0,7,0,7,0,,,,,,slutches,nw,h,lower,,,,,,,3,nw,LoDemNoTar,h,1,0.8517900467850268,,,,,,,,,,,,,,,,,,,,330,2023-11-13_14h01.56.083,leap3,2022.2.5,59.91825174179848,
,,,,,,,,,,,,,,,,,,,,2,0,2,0,8,0,8,0,,,,,,affluent,w,g,lower,,,,,,,3,w,LoDemNoTar,h,0,0.5205134185962379,,,,,,,,,,,,,,,,,,,,330,2023-11-13_14h01.56.083,leap3,2022.2.5,59.91825174179848,
,,,,,,,,,,,,,,,,,,,,2,0,2,0,9,0,9,0,,,,,,duplex,w,g,lower,,,,,,,3,w,LoDemNoTar,g,1,0.9225839846767485,,,,,,,,,,,,,,,,,,,,330,2023-11-13_14h01.56.083,leap3,2022.2.5,59.91825174179848,
,,,,,,,,,,,,,,,,,,,,2,0,2,0,10,0,10,0,,,,,,rascaps,nw,h,lower,,,,,,,3,nw,LoDemNoTar,h,1,0.9006401319056749,,,,,,,,,,,,,,,,,,,,330,2023-11-13_14h01.56.083,leap3,2022.2.5,59.91825174179848,
,,,,,,,,,,,,,,,,,,,,2,0,2,0,11,0,11,0,,,,,,mounting,w,g,lower,,,,,,,3,w,LoDemNoTar,g,1,0.9434826555661857,,,,,,,,,,,,,,,,,,,,330,2023-11-13_14h01.56.083,leap3,2022.2.5,59.91825174179848,
,,,,,,,,,,,,,,,,,,,,2,0,2,0,12,0,12,0,,,,,,charcoal,w,g,lower,,,,,,,3,w,LoDemNoTar,g,1,0.8156980010680854,,,,,,,,,,,,,,,,,,,,330,2023-11-13_14h01.56.083,leap3,2022.2.5,59.91825174179848,
,,,,,,,,,,,,,,,,,,,,2,0,2,0,13,0,13,0,,,,,,mestowal,nw,h,lower,,,,,,,3,nw,LoDemNoTar,h,1,0.6303439219482243,,,,,,,,,,,,,,,,,,,,330,2023-11-13_14h01.56.083,leap3,2022.2.5,59.91825174179848,
,,,,,,,,,,,,,,,,,,,,2,0,2,0,14,0,14,0,,,,,,teamwork,w,g,lower,,,,,,,3,w,LoDemNoTar,g,1,0.5403645904734731,,,,,,,,,,,,,,,,,,,,330,2023-11-13_14h01.56.083,leap3,2022.2.5,59.91825174179848,
,,,,,,,,,,,,,,,,,,,,2,0,2,0,15,0,15,0,,,,,,chrayed,nw,h,lower,,,,,,,3,nw,LoDemNoTar,h,1,0.5976714775897563,,,,,,,,,,,,,,,,,,,,330,2023-11-13_14h01.56.083,leap3,2022.2.5,59.91825174179848,
,,,,,,,,,,,,,,,,,,,,2,0,2,0,16,0,16,0,,,,,,moral,w,g,lower,,,,,,,3,w,LoDemNoTar,g,1,0.5250500440597534,,,,,,,,,,,,,,,,,,,,330,2023-11-13_14h01.56.083,leap3,2022.2.5,59.91825174179848,
,,,,,,,,,,,,,,,,,,,,2,0,2,0,17,0,17,0,,,,,,uncarled,nw,h,lower,,,,,,,3,nw,LoDemNoTar,h,1,1.0309740104712546,,,,,,,,,,,,,,,,,,,,330,2023-11-13_14h01.56.083,leap3,2022.2.5,59.91825174179848,
,,,,,,,,,,,,,,,,,,,,2,0,2,0,18,0,18,0,,,,,,fission,w,g,lower,,,,,,,3,w,LoDemNoTar,g,1,0.8772667269222438,,,,,,,,,,,,,,,,,,,,330,2023-11-13_14h01.56.083,leap3,2022.2.5,59.91825174179848,
,,,,,,,,,,,,,,,,,,,,2,0,2,0,19,0,19,0,,,,,,trembla,nw,h,lower,,,,,,,3,nw,LoDemNoTar,h,1,0.6807642625644803,,,,,,,,,,,,,,,,,,,,330,2023-11-13_14h01.56.083,leap3,2022.2.5,59.91825174179848,
,,,,,,,,,,,,,,,,,,,,2,0,2,0,20,0,20,0,,,,,,seldom,w,g,lower,,,,,,,3,w,LoDemNoTar,g,1,0.8523502140305936,,,,,,,,,,,,,,,,,,,,330,2023-11-13_14h01.56.083,leap3,2022.2.5,59.91825174179848,
,,,,,,,,,,,,,,,,,,,,2,0,2,0,21,0,21,0,,,,,,bureaug,nw,h,lower,,,,,,,3,nw,LoDemNoTar,h,1,1.0651094447821379,,,,,,,,,,,,,,,,,,,,330,2023-11-13_14h01.56.083,leap3,2022.2.5,59.91825174179848,
,,,,,,,,,,,,,,,,,,,,2,0,2,0,22,0,22,0,,,,,,nopping,nw,h,lower,,,,,,,3,nw,LoDemNoTar,h,1,0.7339337924495339,,,,,,,,,,,,,,,,,,,,330,2023-11-13_14h01.56.083,leap3,2022.2.5,59.91825174179848,
,,,,,,,,,,,,,,,,,,,,2,0,2,0,23,0,23,0,,,,,,plunging,w,g,lower,,,,,,,3,w,LoDemNoTar,g,1,0.7832347913645208,,,,,,,,,,,,,,,,,,,,330,2023-11-13_14h01.56.083,leap3,2022.2.5,59.91825174179848,
,,,,,,,,,,,,,,,,,,,,2,0,2,0,24,0,24,0,,,,,,gensions,nw,h,lower,,,,,,,3,nw,LoDemNoTar,h,1,0.6392175392247736,,,,,,,,,,,,,,,,,,,,330,2023-11-13_14h01.56.083,leap3,2022.2.5,59.91825174179848,
,,,,,,,,,,,,,,,,,,,,2,0,2,0,25,0,25,0,,,,,,minimum,w,g,lower,,,,,,,3,w,LoDemNoTar,g,1,0.6046507232822478,,,,,,,,,,,,,,,,,,,,330,2023-11-13_14h01.56.083,leap3,2022.2.5,59.91825174179848,
,,,,,,,,,,,,,,,,,,,,2,0,2,0,26,0,26,0,,,,,,seartfelt,nw,h,lower,,,,,,,3,nw,LoDemNoTar,h,1,0.651144596748054,,,,,,,,,,,,,,,,,,,,330,2023-11-13_14h01.56.083,leap3,2022.2.5,59.91825174179848,
,,,,,,,,,,,,,,,,,,,,2,0,2,0,27,0,27,0,,,,,,burrowing,w,g,lower,,,,,,,3,w,LoDemNoTar,g,1,0.7120501939207315,,,,,,,,,,,,,,,,,,,,330,2023-11-13_14h01.56.083,leap3,2022.2.5,59.91825174179848,
,,,,,,,,,,,,,,,,,,,,2,0,2,0,28,0,28,0,,,,,,nostril,w,g,lower,,,,,,,3,w,LoDemNoTar,g,1,0.8586941403336823,,,,,,,,,,,,,,,,,,,,330,2023-11-13_14h01.56.083,leap3,2022.2.5,59.91825174179848,
,,,,,,,,,,,,,,,,,,,,2,0,2,0,29,0,29,0,,,,,,poars,nw,h,lower,,,,,,,3,nw,LoDemNoTar,h,1,0.8146783113479614,,,,,,,,,,,,,,,,,,,,330,2023-11-13_14h01.56.083,leap3,2022.2.5,59.91825174179848,
,,,,,,,,,,,,,,,,,,,,2,0,2,0,,,,,,,,,,,,,,,,,,,,,,,,,,NA,,,,,,,,,,,,,,,,,,,330,2023-11-13_14h01.56.083,leap3,2022.2.5,59.91825174179848,
,,,,,,,,,,,,,,,,,,,,3,0,3,0,0,0,0,0,,,,,,derived,w,g,upper,,,,,,,1,w,HiDemTar,g,1,0.6454005660489202,,,,,,,,,,,,,,,,,,,,330,2023-11-13_14h01.56.083,leap3,2022.2.5,59.91825174179848,
,,,,,,,,,,,,,,,,,,,,3,0,3,0,1,0,1,0,,,,,,castaway,w,g,upper,,,,,,,1,w,HiDemTar,g,1,1.1627278407104313,,,,,,,,,,,,,,,,,,,,330,2023-11-13_14h01.56.083,leap3,2022.2.5,59.91825174179848,
,,,,,,,,,,,,,,,,,,,,3,0,3,0,2,0,2,0,,,,,,sliding,w,g,upper,,,,,,,1,w,HiDemTar,g,1,0.5313913221471012,,,,,,,,,,,,,,,,,,,,330,2023-11-13_14h01.56.083,leap3,2022.2.5,59.91825174179848,
,,,,,,,,,,,,,,,,,,,,3,0,3,0,3,0,3,0,,,,,,ifling,nw,h,upper,,,,,,,1,nw,HiDemTar,h,1,0.6454926026053727,,,,,,,,,,,,,,,,,,,,330,2023-11-13_14h01.56.083,leap3,2022.2.5,59.91825174179848,
,,,,,,,,,,,,,,,,,,,,3,0,3,0,4,0,4,0,,,,,,carony,nw,h,upper,,,,,,,1,nw,HiDemTar,h,1,0.7776682134717703,,,,,,,,,,,,,,,,,,,,330,2023-11-13_14h01.56.083,leap3,2022.2.5,59.91825174179848,
,,,,,,,,,,,,,,,,,,,,3,0,3,0,5,0,5,0,,,,,,razelle,nw,h,upper,,,,,,,1,nw,HiDemTar,g,0,0.8658313052728772,,,,,,,,,,,,,,,,,,,,330,2023-11-13_14h01.56.083,leap3,2022.2.5,59.91825174179848,
,,,,,,,,,,,,,,,,,,,,3,0,3,0,6,0,6,0,,,,,,contact,w,g,upper,,,,,,,1,w,HiDemTar,g,1,0.646492428611964,,,,,,,,,,,,,,,,,,,,330,2023-11-13_14h01.56.083,leap3,2022.2.5,59.91825174179848,
,,,,,,,,,,,,,,,,,,,,3,0,3,0,7,0,7,0,,,,,,failure,w,g,upper,,,,,,,1,w,HiDemTar,g,1,0.539882886223495,,,,,,,,,,,,,,,,,,,,330,2023-11-13_14h01.56.083,leap3,2022.2.5,59.91825174179848,
,,,,,,,,,,,,,,,,,,,,3,0,3,0,8,0,8,0,,,,,,gremieres,nw,h,upper,,,,,,,1,nw,HiDemTar,h,1,0.8445860059000552,,,,,,,,,,,,,,,,,,,,330,2023-11-13_14h01.56.083,leap3,2022.2.5,59.91825174179848,
,,,,,,,,,,,,,,,,,,,,3,0,3,0,9,0,9,0,,,,,,peadgear,nw,h,upper,,,,,,,1,nw,HiDemTar,h,1,1.4506991114467382,,,,,,,,,,,,,,,,,,,,330,2023-11-13_14h01.56.083,leap3,2022.2.5,59.91825174179848,
,,,,,,,,,,,,,,,,,,,,3,0,3,0,10,0,10,0,,,,,,rabbit,target,q,upper,,,,,,,1,target,HiDemTar,g,0,0.6955477753654122,,,,,,,,,,,,,,,,,,,,330,2023-11-13_14h01.56.083,leap3,2022.2.5,59.91825174179848,
,,,,,,,,,,,,,,,,,,,,3,0,3,0,11,0,11,0,,,,,,detrabe,nw,h,upper,,,,,,,1,aftertar1,HiDemTar,h,1,0.7633882551454008,,,,,,,,,,,,,,,,,,,,330,2023-11-13_14h01.56.083,leap3,2022.2.5,59.91825174179848,
,,,,,,,,,,,,,,,,,,,,3,0,3,0,12,0,12,0,,,,,,roughly,w,g,upper,,,,,,,1,aftertar2,HiDemTar,g,1,0.5791051811538637,,,,,,,,,,,,,,,,,,,,330,2023-11-13_14h01.56.083,leap3,2022.2.5,59.91825174179848,
,,,,,,,,,,,,,,,,,,,,3,0,3,0,13,0,13,0,,,,,,shockwave,w,g,upper,,,,,,,1,aftertar3,HiDemTar,g,1,1.1070935088209808,,,,,,,,,,,,,,,,,,,,330,2023-11-13_14h01.56.083,leap3,2022.2.5,59.91825174179848,
,,,,,,,,,,,,,,,,,,,,3,0,3,0,14,0,14,0,,,,,,audience,w,g,upper,,,,,,,1,w,HiDemTar,g,1,0.5817861706018448,,,,,,,,,,,,,,,,,,,,330,2023-11-13_14h01.56.083,leap3,2022.2.5,59.91825174179848,
,,,,,,,,,,,,,,,,,,,,3,0,3,0,15,0,15,0,,,,,,splum,nw,h,upper,,,,,,,1,w,HiDemTar,h,1,0.621762637514621,,,,,,,,,,,,,,,,,,,,330,2023-11-13_14h01.56.083,leap3,2022.2.5,59.91825174179848,
,,,,,,,,,,,,,,,,,,,,3,0,3,0,16,0,16,0,,,,,,mixture,w,g,upper,,,,,,,1,nw,HiDemTar,g,1,0.507336248178035,,,,,,,,,,,,,,,,,,,,330,2023-11-13_14h01.56.083,leap3,2022.2.5,59.91825174179848,
,,,,,,,,,,,,,,,,,,,,3,0,3,0,17,0,17,0,,,,,,outset,w,g,upper,,,,,,,1,w,HiDemTar,g,1,0.6865582843311131,,,,,,,,,,,,,,,,,,,,330,2023-11-13_14h01.56.083,leap3,2022.2.5,59.91825174179848,
,,,,,,,,,,,,,,,,,,,,3,0,3,0,18,0,18,0,,,,,,dileting,nw,h,upper,,,,,,,1,w,HiDemTar,h,1,0.9299204526469111,,,,,,,,,,,,,,,,,,,,330,2023-11-13_14h01.56.083,leap3,2022.2.5,59.91825174179848,
,,,,,,,,,,,,,,,,,,,,3,0,3,0,19,0,19,0,,,,,,atch,nw,h,upper,,,,,,,1,nw,HiDemTar,h,1,0.8115811692550778,,,,,,,,,,,,,,,,,,,,330,2023-11-13_14h01.56.083,leap3,2022.2.5,59.91825174179848,
,,,,,,,,,,,,,,,,,,,,3,0,3,0,20,0,20,0,,,,,,aviation,w,g,upper,,,,,,,1,nw,HiDemTar,g,1,0.786719614174217,,,,,,,,,,,,,,,,,,,,330,2023-11-13_14h01.56.083,leap3,2022.2.5,59.91825174179848,
,,,,,,,,,,,,,,,,,,,,3,0,3,0,21,0,21,0,,,,,,presence,w,g,upper,,,,,,,1,w,HiDemTar,g,1,0.561154009308666,,,,,,,,,,,,,,,,,,,,330,2023-11-13_14h01.56.083,leap3,2022.2.5,59.91825174179848,
,,,,,,,,,,,,,,,,,,,,3,0,3,0,22,0,22,0,,,,,,insole,w,g,upper,,,,,,,1,w,HiDemTar,g,1,0.5376087799668312,,,,,,,,,,,,,,,,,,,,330,2023-11-13_14h01.56.083,leap3,2022.2.5,59.91825174179848,
,,,,,,,,,,,,,,,,,,,,3,0,3,0,23,0,23,0,,,,,,draze,nw,h,upper,,,,,,,1,w,HiDemTar,h,1,0.6431605592370033,,,,,,,,,,,,,,,,,,,,330,2023-11-13_14h01.56.083,leap3,2022.2.5,59.91825174179848,
,,,,,,,,,,,,,,,,,,,,3,0,3,0,24,0,24,0,,,,,,bettled,nw,h,upper,,,,,,,1,nw,HiDemTar,h,1,1.3685392765328288,,,,,,,,,,,,,,,,,,,,330,2023-11-13_14h01.56.083,leap3,2022.2.5,59.91825174179848,
,,,,,,,,,,,,,,,,,,,,3,0,3,0,25,0,25,0,,,,,,country,w,g,upper,,,,,,,1,nw,HiDemTar,g,1,0.6885632323101163,,,,,,,,,,,,,,,,,,,,330,2023-11-13_14h01.56.083,leap3,2022.2.5,59.91825174179848,
,,,,,,,,,,,,,,,,,,,,3,0,3,0,26,0,26,0,,,,,,frose,nw,h,upper,,,,,,,1,w,HiDemTar,h,1,0.8040500334464014,,,,,,,,,,,,,,,,,,,,330,2023-11-13_14h01.56.083,leap3,2022.2.5,59.91825174179848,
,,,,,,,,,,,,,,,,,,,,3,0,3,0,27,0,27,0,,,,,,finstrel,nw,h,upper,,,,,,,1,nw,HiDemTar,h,1,0.7787090912461281,,,,,,,,,,,,,,,,,,,,330,2023-11-13_14h01.56.083,leap3,2022.2.5,59.91825174179848,
,,,,,,,,,,,,,,,,,,,,3,0,3,0,28,0,28,0,,,,,,praiged,nw,h,upper,,,,,,,1,nw,HiDemTar,h,1,0.802629089448601,,,,,,,,,,,,,,,,,,,,330,2023-11-13_14h01.56.083,leap3,2022.2.5,59.91825174179848,
,,,,,,,,,,,,,,,,,,,,3,0,3,0,29,0,29,0,,,,,,satisfies,w,g,upper,,,,,,,1,nw,HiDemTar,g,1,1.3053615596145391,,,,,,,,,,,,,,,,,,,,330,2023-11-13_14h01.56.083,leap3,2022.2.5,59.91825174179848,
,,,,,,,,,,,,,,,,,,,,3,0,3,0,,,,,,,,,,,,,,,,,,,,,,,,,,0,,,,,,,,,,,,,,,,,,,330,2023-11-13_14h01.56.083,leap3,2022.2.5,59.91825174179848,
,,,,,,,,,,,,,,,,,,,,4,0,4,0,0,0,0,0,,,,,,ludictous,nw,h,upper,,,,,,,1,nw,HiDemTar,h,1,1.6438485188409686,,,,,,,,,,,,,,,,,,,,330,2023-11-13_14h01.56.083,leap3,2022.2.5,59.91825174179848,
,,,,,,,,,,,,,,,,,,,,4,0,4,0,1,0,1,0,,,,,,protest,w,g,upper,,,,,,,1,w,HiDemTar,g,1,0.5773180755786598,,,,,,,,,,,,,,,,,,,,330,2023-11-13_14h01.56.083,leap3,2022.2.5,59.91825174179848,
,,,,,,,,,,,,,,,,,,,,4,0,4,0,2,0,2,0,,,,,,tablet,w,g,upper,,,,,,,1,w,HiDemTar,g,1,0.48134541930630803,,,,,,,,,,,,,,,,,,,,330,2023-11-13_14h01.56.083,leap3,2022.2.5,59.91825174179848,
,,,,,,,,,,,,,,,,,,,,4,0,4,0,3,0,3,0,,,,,,talent,w,g,upper,,,,,,,1,w,HiDemTar,g,1,0.4614359796978533,,,,,,,,,,,,,,,,,,,,330,2023-11-13_14h01.56.083,leap3,2022.2.5,59.91825174179848,
,,,,,,,,,,,,,,,,,,,,4,0,4,0,4,0,4,0,,,,,,nelvet,nw,h,upper,,,,,,,1,nw,HiDemTar,h,1,0.7452046731486917,,,,,,,,,,,,,,,,,,,,330,2023-11-13_14h01.56.083,leap3,2022.2.5,59.91825174179848,
,,,,,,,,,,,,,,,,,,,,4,0,4,0,5,0,5,0,,,,,,sording,nw,h,upper,,,,,,,1,nw,HiDemTar,h,1,0.8264997582882643,,,,,,,,,,,,,,,,,,,,330,2023-11-13_14h01.56.083,leap3,2022.2.5,59.91825174179848,
,,,,,,,,,,,,,,,,,,,,4,0,4,0,6,0,6,0,,,,,,adok,nw,h,upper,,,,,,,1,nw,HiDemTar,h,1,0.5524803572334349,,,,,,,,,,,,,,,,,,,,330,2023-11-13_14h01.56.083,leap3,2022.2.5,59.91825174179848,
,,,,,,,,,,,,,,,,,,,,4,0,4,0,7,0,7,0,,,,,,tragedy,w,g,upper,,,,,,,1,w,HiDemTar,g,1,0.5534043679945171,,,,,,,,,,,,,,,,,,,,330,2023-11-13_14h01.56.083,leap3,2022.2.5,59.91825174179848,
,,,,,,,,,,,,,,,,,,,,4,0,4,0,8,0,8,0,,,,,,recollect,w,g,upper,,,,,,,1,w,HiDemTar,g,1,0.8339669983834028,,,,,,,,,,,,,,,,,,,,330,2023-11-13_14h01.56.083,leap3,2022.2.5,59.91825174179848,
,,,,,,,,,,,,,,,,,,,,4,0,4,0,9,0,9,0,,,,,,walsams,nw,h,upper,,,,,,,1,nw,HiDemTar,h,1,0.7113615721464157,,,,,,,,,,,,,,,,,,,,330,2023-11-13_14h01.56.083,leap3,2022.2.5,59.91825174179848,
,,,,,,,,,,,,,,,,,,,,4,0,4,0,10,0,10,0,,,,,,harfing,nw,h,upper,,,,,,,1,nw,HiDemTar,h,1,0.8180701034143567,,,,,,,,,,,,,,,,,,,,330,2023-11-13_14h01.56.083,leap3,2022.2.5,59.91825174179848,
,,,,,,,,,,,,,,,,,,,,4,0,4,0,11,0,11,0,,,,,,alticles,nw,h,upper,,,,,,,1,nw,HiDemTar,h,1,0.8081152178347111,,,,,,,,,,,,,,,,,,,,330,2023-11-13_14h01.56.083,leap3,2022.2.5,59.91825174179848,
,,,,,,,,,,,,,,,,,,,,4,0,4,0,12,0,12,0,,,,,,destroy,w,g,upper,,,,,,,1,w,HiDemTar,g,1,0.6787990424782038,,,,,,,,,,,,,,,,,,,,330,2023-11-13_14h01.56.083,leap3,2022.2.5,59.91825174179848,
,,,,,,,,,,,,,,,,,,,,4,0,4,0,13,0,13,0,,,,,,outrank,w,g,upper,,,,,,,1,w,HiDemTar,g,1,0.5378342373296618,,,,,,,,,,,,,,,,,,,,330,2023-11-13_14h01.56.083,leap3,2022.2.5,59.91825174179848,
,,,,,,,,,,,,,,,,,,,,4,0,4,0,14,0,14,0,,,,,,bentler,nw,h,upper,,,,,,,1,nw,HiDemTar,h,1,0.7071930943056941,,,,,,,,,,,,,,,,,,,,330,2023-11-13_14h01.56.083,leap3,2022.2.5,59.91825174179848,
,,,,,,,,,,,,,,,,,,,,4,0,4,0,15,0,15,0,,,,,,elephant,target,q,upper,,,,,,,1,target,HiDemTar,g,0,0.5259661097079515,,,,,,,,,,,,,,,,,,,,330,2023-11-13_14h01.56.083,leap3,2022.2.5,59.91825174179848,
,,,,,,,,,,,,,,,,,,,,4,0,4,0,16,0,16,0,,,,,,lifetime,w,g,upper,,,,,,,1,aftertar1,HiDemTar,g,1,1.023935834877193,,,,,,,,,,,,,,,,,,,,330,2023-11-13_14h01.56.083,leap3,2022.2.5,59.91825174179848,
,,,,,,,,,,,,,,,,,,,,4,0,4,0,17,0,17,0,,,,,,exclusion,w,g,upper,,,,,,,1,aftertar2,HiDemTar,g,1,0.7500746841542423,,,,,,,,,,,,,,,,,,,,330,2023-11-13_14h01.56.083,leap3,2022.2.5,59.91825174179848,
,,,,,,,,,,,,,,,,,,,,4,0,4,0,18,0,18,0,,,,,,omners,nw,h,upper,,,,,,,1,aftertar3,HiDemTar,h,1,0.6154355965554714,,,,,,,,,,,,,,,,,,,,330,2023-11-13_14h01.56.083,leap3,2022.2.5,59.91825174179848,
,,,,,,,,,,,,,,,,,,,,4,0,4,0,19,0,19,0,,,,,,rasuals,nw,h,upper,,,,,,,1,nw,HiDemTar,h,1,0.8779576662927866,,,,,,,,,,,,,,,,,,,,330,2023-11-13_14h01.56.083,leap3,2022.2.5,59.91825174179848,
,,,,,,,,,,,,,,,,,,,,4,0,4,0,20,0,20,0,,,,,,ifkling,nw,h,upper,,,,,,,1,nw,HiDemTar,h,1,0.8499913541600108,,,,,,,,,,,,,,,,,,,,330,2023-11-13_14h01.56.083,leap3,2022.2.5,59.91825174179848,
,,,,,,,,,,,,,,,,,,,,4,0,4,0,21,0,21,0,,,,,,removable,w,g,upper,,,,,,,1,nw,HiDemTar,g,1,0.679422112647444,,,,,,,,,,,,,,,,,,,,330,2023-11-13_14h01.56.083,leap3,2022.2.5,59.91825174179848,
,,,,,,,,,,,,,,,,,,,,4,0,4,0,22,0,22,0,,,,,,railroad,w,g,upper,,,,,,,1,w,HiDemTar,g,1,0.5704027265310287,,,,,,,,,,,,,,,,,,,,330,2023-11-13_14h01.56.083,leap3,2022.2.5,59.91825174179848,
,,,,,,,,,,,,,,,,,,,,4,0,4,0,23,0,23,0,,,,,,medium,w,g,upper,,,,,,,1,w,HiDemTar,g,1,0.5063884002156556,,,,,,,,,,,,,,,,,,,,330,2023-11-13_14h01.56.083,leap3,2022.2.5,59.91825174179848,
,,,,,,,,,,,,,,,,,,,,4,0,4,0,24,0,24,0,,,,,,sarlock,nw,h,upper,,,,,,,1,w,HiDemTar,h,1,0.6770559693686664,,,,,,,,,,,,,,,,,,,,330,2023-11-13_14h01.56.083,leap3,2022.2.5,59.91825174179848,
,,,,,,,,,,,,,,,,,,,,4,0,4,0,25,0,25,0,,,,,,profats,nw,h,upper,,,,,,,1,nw,HiDemTar,h,1,0.8806111766025424,,,,,,,,,,,,,,,,,,,,330,2023-11-13_14h01.56.083,leap3,2022.2.5,59.91825174179848,
,,,,,,,,,,,,,,,,,,,,4,0,4,0,26,0,26,0,,,,,,bailmenz,nw,h,upper,,,,,,,1,nw,HiDemTar,h,1,0.8131318921223283,,,,,,,,,,,,,,,,,,,,330,2023-11-13_14h01.56.083,leap3,2022.2.5,59.91825174179848,
,,,,,,,,,,,,,,,,,,,,4,0,4,0,27,0,27,0,,,,,,baladroit,nw,h,upper,,,,,,,1,nw,HiDemTar,h,1,0.6759843016043305,,,,,,,,,,,,,,,,,,,,330,2023-11-13_14h01.56.083,leap3,2022.2.5,59.91825174179848,
,,,,,,,,,,,,,,,,,,,,4,0,4,0,28,0,28,0,,,,,,maroon,w,g,upper,,,,,,,1,nw,HiDemTar,g,1,0.6799783068709075,,,,,,,,,,,,,,,,,,,,330,2023-11-13_14h01.56.083,leap3,2022.2.5,59.91825174179848,
,,,,,,,,,,,,,,,,,,,,4,0,4,0,29,0,29,0,,,,,,column,w,g,upper,,,,,,,1,w,HiDemTar,g,1,0.5240528676658869,,,,,,,,,,,,,,,,,,,,330,2023-11-13_14h01.56.083,leap3,2022.2.5,59.91825174179848,
,,,,,,,,,,,,,,,,,,,,4,0,4,0,,,,,,,,,,,,,,,,,,,,,,,,,,0,,,,,,,,,,,,,,,,,,,330,2023-11-13_14h01.56.083,leap3,2022.2.5,59.91825174179848,
,,,,,,,,,,,,,,,,,,,,5,0,5,0,0,0,0,0,,,,,,prame,nw,h,upper,,,,,,,1,nw,HiDemTar,h,1,0.8692989121191204,,,,,,,,,,,,,,,,,,,,330,2023-11-13_14h01.56.083,leap3,2022.2.5,59.91825174179848,
,,,,,,,,,,,,,,,,,,,,5,0,5,0,1,0,1,0,,,,,,hegacy,nw,h,upper,,,,,,,1,nw,HiDemTar,h,1,0.6893620998598635,,,,,,,,,,,,,,,,,,,,330,2023-11-13_14h01.56.083,leap3,2022.2.5,59.91825174179848,
,,,,,,,,,,,,,,,,,,,,5,0,5,0,2,0,2,0,,,,,,ganter,nw,h,upper,,,,,,,1,nw,HiDemTar,g,0,0.9887151597067714,,,,,,,,,,,,,,,,,,,,330,2023-11-13_14h01.56.083,leap3,2022.2.5,59.91825174179848,
,,,,,,,,,,,,,,,,,,,,5,0,5,0,3,0,3,0,,,,,,widely,w,g,upper,,,,,,,1,w,HiDemTar,g,1,0.6360485558398068,,,,,,,,,,,,,,,,,,,,330,2023-11-13_14h01.56.083,leap3,2022.2.5,59.91825174179848,
,,,,,,,,,,,,,,,,,,,,5,0,5,0,4,0,4,0,,,,,,achieve,w,g,upper,,,,,,,1,w,HiDemTar,g,1,0.4734772560186684,,,,,,,,,,,,,,,,,,,,330,2023-11-13_14h01.56.083,leap3,2022.2.5,59.91825174179848,
,,,,,,,,,,,,,,,,,,,,5,0,5,0,5,0,5,0,,,,,,cooray,nw,h,upper,,,,,,,1,nw,HiDemTar,h,1,0.7005505450069904,,,,,,,,,,,,,,,,,,,,330,2023-11-13_14h01.56.083,leap3,2022.2.5,59.91825174179848,
,,,,,,,,,,,,,,,,,,,,5,0,5,0,6,0,6,0,,,,,,paranoid,w,g,upper,,,,,,,1,w,HiDemTar,g,1,0.5512024345807731,,,,,,,,,,,,,,,,,,,,330,2023-11-13_14h01.56.083,leap3,2022.2.5,59.91825174179848,
,,,,,,,,,,,,,,,,,,,,5,0,5,0,7,0,7,0,,,,,,grieving,w,g,upper,,,,,,,1,w,HiDemTar,g,1,0.5198906795121729,,,,,,,,,,,,,,,,,,,,330,2023-11-13_14h01.56.083,leap3,2022.2.5,59.91825174179848,
,,,,,,,,,,,,,,,,,,,,5,0,5,0,8,0,8,0,,,,,,epthuse,nw,h,upper,,,,,,,1,nw,HiDemTar,h,1,0.6419104468077421,,,,,,,,,,,,,,,,,,,,330,2023-11-13_14h01.56.083,leap3,2022.2.5,59.91825174179848,
,,,,,,,,,,,,,,,,,,,,5,0,5,0,9,0,9,0,,,,,,bellicove,nw,h,upper,,,,,,,1,nw,HiDemTar,h,1,0.703262654133141,,,,,,,,,,,,,,,,,,,,330,2023-11-13_14h01.56.083,leap3,2022.2.5,59.91825174179848,
,,,,,,,,,,,,,,,,,,,,5,0,5,0,10,0,10,0,,,,,,trecious,nw,h,upper,,,,,,,1,nw,HiDemTar,g,0,2.1783277671784163,,,,,,,,,,,,,,,,,,,,330,2023-11-13_14h01.56.083,leap3,2022.2.5,59.91825174179848,
,,,,,,,,,,,,,,,,,,,,5,0,5,0,11,0,11,0,,,,,,blocking,w,g,upper,,,,,,,1,w,HiDemTar,h,0,0.8259703801013529,,,,,,,,,,,,,,,,,,,,330,2023-11-13_14h01.56.083,leap3,2022.2.5,59.91825174179848,
,,,,,,,,,,,,,,,,,,,,5,0,5,0,12,0,12,0,,,,,,maximized,w,g,upper,,,,,,,1,w,HiDemTar,g,1,0.5118351317942142,,,,,,,,,,,,,,,,,,,,330,2023-11-13_14h01.56.083,leap3,2022.2.5,59.91825174179848,
,,,,,,,,,,,,,,,,,,,,5,0,5,0,13,0,13,0,,,,,,dealer,w,g,upper,,,,,,,1,w,HiDemTar,g,1,0.6105957124382257,,,,,,,,,,,,,,,,,,,,330,2023-11-13_14h01.56.083,leap3,2022.2.5,59.91825174179848,
,,,,,,,,,,,,,,,,,,,,5,0,5,0,14,0,14,0,,,,,,couple,w,g,upper,,,,,,,1,w,HiDemTar,g,1,0.45732411462813616,,,,,,,,,,,,,,,,,,,,330,2023-11-13_14h01.56.083,leap3,2022.2.5,59.91825174179848,
,,,,,,,,,,,,,,,,,,,,5,0,5,0,15,0,15,0,,,,,,intended,w,g,upper,,,,,,,1,w,HiDemTar,g,1,0.5244574323296547,,,,,,,,,,,,,,,,,,,,330,2023-11-13_14h01.56.083,leap3,2022.2.5,59.91825174179848,
,,,,,,,,,,,,,,,,,,,,5,0,5,0,16,0,16,0,,,,,,ascending,w,g,upper,,,,,,,1,w,HiDemTar,g,1,0.6223433311097324,,,,,,,,,,,,,,,,,,,,330,2023-11-13_14h01.56.083,leap3,2022.2.5,59.91825174179848,
,,,,,,,,,,,,,,,,,,,,5,0,5,0,17,0,17,0,,,,,,chraps,nw,h,upper,,,,,,,1,nw,HiDemTar,h,1,0.6850532493554056,,,,,,,,,,,,,,,,,,,,330,2023-11-13_14h01.56.083,leap3,2022.2.5,59.91825174179848,
,,,,,,,,,,,,,,,,,,,,5,0,5,0,18,0,18,0,,,,,,pracking,nw,h,upper,,,,,,,1,nw,HiDemTar,h,1,0.8643630188889802,,,,,,,,,,,,,,,,,,,,330,2023-11-13_14h01.56.083,leap3,2022.2.5,59.91825174179848,
,,,,,,,,,,,,,,,,,,,,5,0,5,0,19,0,19,0,,,,,,antonym,w,g,upper,,,,,,,1,w,HiDemTar,g,1,0.7972896238788962,,,,,,,,,,,,,,,,,,,,330,2023-11-13_14h01.56.083,leap3,2022.2.5,59.91825174179848,
,,,,,,,,,,,,,,,,,,,,5,0,5,0,20,0,20,0,,,,,,huzzles,nw,h,upper,,,,,,,1,nw,HiDemTar,h,1,1.2606961750425398,,,,,,,,,,,,,,,,,,,,330,2023-11-13_14h01.56.083,leap3,2022.2.5,59.91825174179848,
,,,,,,,,,,,,,,,,,,,,5,0,5,0,21,0,21,0,,,,,,rantho,nw,h,upper,,,,,,,1,nw,HiDemTar,h,1,0.7853731601499021,,,,,,,,,,,,,,,,,,,,330,2023-11-13_14h01.56.083,leap3,2022.2.5,59.91825174179848,
,,,,,,,,,,,,,,,,,,,,5,0,5,0,22,0,22,0,,,,,,tharcely,nw,h,upper,,,,,,,1,nw,HiDemTar,h,1,0.6807268518023193,,,,,,,,,,,,,,,,,,,,330,2023-11-13_14h01.56.083,leap3,2022.2.5,59.91825174179848,
,,,,,,,,,,,,,,,,,,,,5,0,5,0,23,0,23,0,,,,,,oldest,w,g,upper,,,,,,,1,w,HiDemTar,g,1,0.7238077446818352,,,,,,,,,,,,,,,,,,,,330,2023-11-13_14h01.56.083,leap3,2022.2.5,59.91825174179848,
,,,,,,,,,,,,,,,,,,,,5,0,5,0,24,0,24,0,,,,,,noblin,nw,h,upper,,,,,,,1,nw,HiDemTar,h,1,0.7498886240646243,,,,,,,,,,,,,,,,,,,,330,2023-11-13_14h01.56.083,leap3,2022.2.5,59.91825174179848,
,,,,,,,,,,,,,,,,,,,,5,0,5,0,25,0,25,0,,,,,,sefine,nw,h,upper,,,,,,,1,nw,HiDemTar,h,1,1.0872188317589462,,,,,,,,,,,,,,,,,,,,330,2023-11-13_14h01.56.083,leap3,2022.2.5,59.91825174179848,
,,,,,,,,,,,,,,,,,,,,5,0,5,0,26,0,26,0,,,,,,showdown,w,g,upper,,,,,,,1,w,HiDemTar,g,1,0.778596528340131,,,,,,,,,,,,,,,,,,,,330,2023-11-13_14h01.56.083,leap3,2022.2.5,59.91825174179848,
,,,,,,,,,,,,,,,,,,,,5,0,5,0,27,0,27,0,,,,,,porcupine,target,q,upper,,,,,,,1,target,HiDemTar,g,0,0.8665252244099975,,,,,,,,,,,,,,,,,,,,330,2023-11-13_14h01.56.083,leap3,2022.2.5,59.91825174179848,
,,,,,,,,,,,,,,,,,,,,5,0,5,0,28,0,28,0,,,,,,hatred,w,g,upper,,,,,,,1,aftertar1,HiDemTar,g,1,0.6548658018000424,,,,,,,,,,,,,,,,,,,,330,2023-11-13_14h01.56.083,leap3,2022.2.5,59.91825174179848,
,,,,,,,,,,,,,,,,,,,,5,0,5,0,29,0,29,0,,,,,,garment,w,g,upper,,,,,,,1,aftertar2,HiDemTar,g,1,0.6040521520189941,,,,,,,,,,,,,,,,,,,,330,2023-11-13_14h01.56.083,leap3,2022.2.5,59.91825174179848,
,,,,,,,,,,,,,,,,,,,,5,0,5,0,,,,,,,,,,,,,,,,,,,,,,,,,,0,,,,,,,,,,,,,,,,,,,330,2023-11-13_14h01.56.083,leap3,2022.2.5,59.91825174179848,
,,,,,,,,,,,,,,,,,,,,6,0,6,0,0,0,0,0,,,,,,anonymous,w,g,upper,,,,,,,1,w,HiDemTar,g,1,0.6579245394095778,,,,,,,,,,,,,,,,,,,,330,2023-11-13_14h01.56.083,leap3,2022.2.5,59.91825174179848,
,,,,,,,,,,,,,,,,,,,,6,0,6,0,1,0,1,0,,,,,,slogan,w,g,upper,,,,,,,1,w,HiDemTar,g,1,0.7025760193355381,,,,,,,,,,,,,,,,,,,,330,2023-11-13_14h01.56.083,leap3,2022.2.5,59.91825174179848,
,,,,,,,,,,,,,,,,,,,,6,0,6,0,2,0,2,0,,,,,,lindo,nw,h,upper,,,,,,,1,nw,HiDemTar,h,1,0.6973017738200724,,,,,,,,,,,,,,,,,,,,330,2023-11-13_14h01.56.083,leap3,2022.2.5,59.91825174179848,
,,,,,,,,,,,,,,,,,,,,6,0,6,0,3,0,3,0,,,,,,sponto,nw,h,upper,,,,,,,1,nw,HiDemTar,h,1,0.6846817904151976,,,,,,,,,,,,,,,,,,,,330,2023-11-13_14h01.56.083,leap3,2022.2.5,59.91825174179848,
,,,,,,,,,,,,,,,,,,,,6,0,6,0,4,0,4,0,,,,,,moisture,w,g,upper,,,,,,,1,w,HiDemTar,g,1,0.4960570903494954,,,,,,,,,,,,,,,,,,,,330,2023-11-13_14h01.56.083,leap3,2022.2.5,59.91825174179848,
,,,,,,,,,,,,,,,,,,,,6,0,6,0,5,0,5,0,,,,,,defensa,nw,h,upper,,,,,,,1,nw,HiDemTar,h,1,0.8192851231433451,,,,,,,,,,,,,,,,,,,,330,2023-11-13_14h01.56.083,leap3,2022.2.5,59.91825174179848,
,,,,,,,,,,,,,,,,,,,,6,0,6,0,6,0,6,0,,,,,,plogging,nw,h,upper,,,,,,,1,nw,HiDemTar,h,1,1.3614107188768685,,,,,,,,,,,,,,,,,,,,330,2023-11-13_14h01.56.083,leap3,2022.2.5,59.91825174179848,
,,,,,,,,,,,,,,,,,,,,6,0,6,0,7,0,7,0,,,,,,even,w,g,upper,,,,,,,1,w,HiDemTar,g,1,0.5530640296638012,,,,,,,,,,,,,,,,,,,,330,2023-11-13_14h01.56.083,leap3,2022.2.5,59.91825174179848,
,,,,,,,,,,,,,,,,,,,,6,0,6,0,8,0,8,0,,,,,,subber,nw,h,upper,,,,,,,1,nw,HiDemTar,h,1,0.7458032439462841,,,,,,,,,,,,,,,,,,,,330,2023-11-13_14h01.56.083,leap3,2022.2.5,59.91825174179848,
,,,,,,,,,,,,,,,,,,,,6,0,6,0,9,0,9,0,,,,,,doads,nw,h,upper,,,,,,,1,nw,HiDemTar,h,1,0.6585297319106758,,,,,,,,,,,,,,,,,,,,330,2023-11-13_14h01.56.083,leap3,2022.2.5,59.91825174179848,
,,,,,,,,,,,,,,,,,,,,6,0,6,0,10,0,10,0,,,,,,pretzel,w,g,upper,,,,,,,1,w,HiDemTar,g,1,0.6318439915776253,,,,,,,,,,,,,,,,,,,,330,2023-11-13_14h01.56.083,leap3,2022.2.5,59.91825174179848,
,,,,,,,,,,,,,,,,,,,,6,0,6,0,11,0,11,0,,,,,,hemoter,nw,h,upper,,,,,,,1,nw,HiDemTar,h,1,0.6460348921827972,,,,,,,,,,,,,,,,,,,,330,2023-11-13_14h01.56.083,leap3,2022.2.5,59.91825174179848,
,,,,,,,,,,,,,,,,,,,,6,0,6,0,12,0,12,0,,,,,,afternoon,w,g,upper,,,,,,,1,w,HiDemTar,g,1,0.5633946778252721,,,,,,,,,,,,,,,,,,,,330,2023-11-13_14h01.56.083,leap3,2022.2.5,59.91825174179848,
,,,,,,,,,,,,,,,,,,,,6,0,6,0,13,0,13,0,,,,,,deceit,w,g,upper,,,,,,,1,w,HiDemTar,g,1,0.7000930090434849,,,,,,,,,,,,,,,,,,,,330,2023-11-13_14h01.56.083,leap3,2022.2.5,59.91825174179848,
,,,,,,,,,,,,,,,,,,,,6,0,6,0,14,0,14,0,,,,,,erony,nw,h,upper,,,,,,,1,nw,HiDemTar,h,1,1.0236481367610395,,,,,,,,,,,,,,,,,,,,330,2023-11-13_14h01.56.083,leap3,2022.2.5,59.91825174179848,
,,,,,,,,,,,,,,,,,,,,6,0,6,0,15,0,15,0,,,,,,tenpince,nw,h,upper,,,,,,,1,nw,HiDemTar,h,1,0.7650525341741741,,,,,,,,,,,,,,,,,,,,330,2023-11-13_14h01.56.083,leap3,2022.2.5,59.91825174179848,
,,,,,,,,,,,,,,,,,,,,6,0,6,0,16,0,16,0,,,,,,fravity,nw,h,upper,,,,,,,1,nw,HiDemTar,h,1,0.7333441600203514,,,,,,,,,,,,,,,,,,,,330,2023-11-13_14h01.56.083,leap3,2022.2.5,59.91825174179848,
,,,,,,,,,,,,,,,,,,,,6,0,6,0,17,0,17,0,,,,,,preclude,w,g,upper,,,,,,,1,w,HiDemTar,g,1,1.7592532150447369,,,,,,,,,,,,,,,,,,,,330,2023-11-13_14h01.56.083,leap3,2022.2.5,59.91825174179848,
,,,,,,,,,,,,,,,,,,,,6,0,6,0,18,0,18,0,,,,,,gures,nw,h,upper,,,,,,,1,nw,HiDemTar,h,1,2.495619749650359,,,,,,,,,,,,,,,,,,,,330,2023-11-13_14h01.56.083,leap3,2022.2.5,59.91825174179848,
,,,,,,,,,,,,,,,,,,,,6,0,6,0,19,0,19,0,,,,,,senior,w,g,upper,,,,,,,1,w,HiDemTar,g,1,0.5954079651273787,,,,,,,,,,,,,,,,,,,,330,2023-11-13_14h01.56.083,leap3,2022.2.5,59.91825174179848,
,,,,,,,,,,,,,,,,,,,,6,0,6,0,20,0,20,0,,,,,,measure,w,g,upper,,,,,,,1,w,HiDemTar,g,1,0.6187350205145776,,,,,,,,,,,,,,,,,,,,330,2023-11-13_14h01.56.083,leap3,2022.2.5,59.91825174179848,
,,,,,,,,,,,,,,,,,,,,6,0,6,0,21,0,21,0,,,,,,noils,nw,h,upper,,,,,,,1,nw,HiDemTar,h,1,0.8408058709464967,,,,,,,,,,,,,,,,,,,,330,2023-11-13_14h01.56.083,leap3,2022.2.5,59.91825174179848,
,,,,,,,,,,,,,,,,,,,,6,0,6,0,22,0,22,0,,,,,,stagger,w,g,upper,,,,,,,1,w,HiDemTar,g,1,0.814137346111238,,,,,,,,,,,,,,,,,,,,330,2023-11-13_14h01.56.083,leap3,2022.2.5,59.91825174179848,
,,,,,,,,,,,,,,,,,,,,6,0,6,0,23,0,23,0,,,,,,army,w,g,upper,,,,,,,1,w,HiDemTar,g,1,0.4918521950021386,,,,,,,,,,,,,,,,,,,,330,2023-11-13_14h01.56.083,leap3,2022.2.5,59.91825174179848,
,,,,,,,,,,,,,,,,,,,,6,0,6,0,24,0,24,0,,,,,,machinery,w,g,upper,,,,,,,1,w,HiDemTar,g,1,0.5112104066647589,,,,,,,,,,,,,,,,,,,,330,2023-11-13_14h01.56.083,leap3,2022.2.5,59.91825174179848,
,,,,,,,,,,,,,,,,,,,,6,0,6,0,25,0,25,0,,,,,,etber,nw,h,upper,,,,,,,1,nw,HiDemTar,h,1,0.6420153952203691,,,,,,,,,,,,,,,,,,,,330,2023-11-13_14h01.56.083,leap3,2022.2.5,59.91825174179848,
,,,,,,,,,,,,,,,,,,,,6,0,6,0,26,0,26,0,,,,,,chicken,target,q,upper,,,,,,,1,target,HiDemTar,g,0,0.47915474185720086,,,,,,,,,,,,,,,,,,,,330,2023-11-13_14h01.56.083,leap3,2022.2.5,59.91825174179848,
,,,,,,,,,,,,,,,,,,,,6,0,6,0,27,0,27,0,,,,,,ireology,nw,h,upper,,,,,,,1,aftertar1,HiDemTar,h,1,0.762649642303586,,,,,,,,,,,,,,,,,,,,330,2023-11-13_14h01.56.083,leap3,2022.2.5,59.91825174179848,
,,,,,,,,,,,,,,,,,,,,6,0,6,0,28,0,28,0,,,,,,sustain,w,g,upper,,,,,,,1,aftertar2,HiDemTar,g,1,0.5873395060189068,,,,,,,,,,,,,,,,,,,,330,2023-11-13_14h01.56.083,leap3,2022.2.5,59.91825174179848,
,,,,,,,,,,,,,,,,,,,,6,0,6,0,29,0,29,0,,,,,,integral,w,g,upper,,,,,,,1,aftertar3,HiDemTar,g,1,0.5787969566881657,,,,,,,,,,,,,,,,,,,,330,2023-11-13_14h01.56.083,leap3,2022.2.5,59.91825174179848,
,,,,,,,,,,,,,,,,,,,,6,0,6,0,,,,,,,,,,,,,,,,,,,,,,,,,,0,,,,,,,,,,,,,,,,,,,330,2023-11-13_14h01.56.083,leap3,2022.2.5,59.91825174179848,
,,,,,,,,,,,,,,,,,,,,7,0,7,0,0,0,0,0,,,,,,arbitrary,w,g,lower,,,,,,,3,w,LoDemNoTar,g,1,0.6585754188708961,,,,,,,,,,,,,,,,,,,,330,2023-11-13_14h01.56.083,leap3,2022.2.5,59.91825174179848,
,,,,,,,,,,,,,,,,,,,,7,0,7,0,1,0,1,0,,,,,,trake,nw,h,lower,,,,,,,3,nw,LoDemNoTar,h,1,0.6473379763774574,,,,,,,,,,,,,,,,,,,,330,2023-11-13_14h01.56.083,leap3,2022.2.5,59.91825174179848,
,,,,,,,,,,,,,,,,,,,,7,0,7,0,2,0,2,0,,,,,,thorifies,nw,h,lower,,,,,,,3,nw,LoDemNoTar,h,1,0.8367320783436298,,,,,,,,,,,,,,,,,,,,330,2023-11-13_14h01.56.083,leap3,2022.2.5,59.91825174179848,
,,,,,,,,,,,,,,,,,,,,7,0,7,0,3,0,3,0,,,,,,zears,nw,h,lower,,,,,,,3,nw,LoDemNoTar,h,1,0.5460331374779344,,,,,,,,,,,,,,,,,,,,330,2023-11-13_14h01.56.083,leap3,2022.2.5,59.91825174179848,
,,,,,,,,,,,,,,,,,,,,7,0,7,0,4,0,4,0,,,,,,ignore,w,g,lower,,,,,,,3,w,LoDemNoTar,g,1,0.5314128412865102,,,,,,,,,,,,,,,,,,,,330,2023-11-13_14h01.56.083,leap3,2022.2.5,59.91825174179848,
,,,,,,,,,,,,,,,,,,,,7,0,7,0,5,0,5,0,,,,,,hecture,nw,h,lower,,,,,,,3,nw,LoDemNoTar,h,1,0.8854748974554241,,,,,,,,,,,,,,,,,,,,330,2023-11-13_14h01.56.083,leap3,2022.2.5,59.91825174179848,
,,,,,,,,,,,,,,,,,,,,7,0,7,0,6,0,6,0,,,,,,acidic,w,g,lower,,,,,,,3,w,LoDemNoTar,g,1,0.6009732196107507,,,,,,,,,,,,,,,,,,,,330,2023-11-13_14h01.56.083,leap3,2022.2.5,59.91825174179848,
,,,,,,,,,,,,,,,,,,,,7,0,7,0,7,0,7,0,,,,,,clypaper,nw,h,lower,,,,,,,3,nw,LoDemNoTar,h,1,0.6636146064847708,,,,,,,,,,,,,,,,,,,,330,2023-11-13_14h01.56.083,leap3,2022.2.5,59.91825174179848,
,,,,,,,,,,,,,,,,,,,,7,0,7,0,8,0,8,0,,,,,,reason,w,g,lower,,,,,,,3,w,LoDemNoTar,g,1,0.4912973251193762,,,,,,,,,,,,,,,,,,,,330,2023-11-13_14h01.56.083,leap3,2022.2.5,59.91825174179848,
,,,,,,,,,,,,,,,,,,,,7,0,7,0,9,0,9,0,,,,,,mandate,w,g,lower,,,,,,,3,w,LoDemNoTar,g,1,0.7186450697481632,,,,,,,,,,,,,,,,,,,,330,2023-11-13_14h01.56.083,leap3,2022.2.5,59.91825174179848,
,,,,,,,,,,,,,,,,,,,,7,0,7,0,10,0,10,0,,,,,,turning,w,g,lower,,,,,,,3,w,LoDemNoTar,g,1,0.5126707479357719,,,,,,,,,,,,,,,,,,,,330,2023-11-13_14h01.56.083,leap3,2022.2.5,59.91825174179848,
,,,,,,,,,,,,,,,,,,,,7,0,7,0,11,0,11,0,,,,,,forbid,w,g,lower,,,,,,,3,w,LoDemNoTar,g,1,0.5706708910875022,,,,,,,,,,,,,,,,,,,,330,2023-11-13_14h01.56.083,leap3,2022.2.5,59.91825174179848,
,,,,,,,,,,,,,,,,,,,,7,0,7,0,12,0,12,0,,,,,,brother,w,g,lower,,,,,,,3,w,LoDemNoTar,g,1,0.4667002931237221,,,,,,,,,,,,,,,,,,,,330,2023-11-13_14h01.56.083,leap3,2022.2.5,59.91825174179848,
,,,,,,,,,,,,,,,,,,,,7,0,7,0,13,0,13,0,,,,,,dorte,nw,h,lower,,,,,,,3,nw,LoDemNoTar,h,1,0.6787457405589521,,,,,,,,,,,,,,,,,,,,330,2023-11-13_14h01.56.083,leap3,2022.2.5,59.91825174179848,
,,,,,,,,,,,,,,,,,,,,7,0,7,0,14,0,14,0,,,,,,throttle,w,g,lower,,,,,,,3,w,LoDemNoTar,h,0,0.7061098394915462,,,,,,,,,,,,,,,,,,,,330,2023-11-13_14h01.56.083,leap3,2022.2.5,59.91825174179848,
,,,,,,,,,,,,,,,,,,,,7,0,7,0,15,0,15,0,,,,,,virulent,w,g,lower,,,,,,,3,w,LoDemNoTar,g,1,1.1568301944062114,,,,,,,,,,,,,,,,,,,,330,2023-11-13_14h01.56.083,leap3,2022.2.5,59.91825174179848,
,,,,,,,,,,,,,,,,,,,,7,0,7,0,16,0,16,0,,,,,,ragtam,nw,h,lower,,,,,,,3,nw,LoDemNoTar,h,1,0.6928757247515023,,,,,,,,,,,,,,,,,,,,330,2023-11-13_14h01.56.083,leap3,2022.2.5,59.91825174179848,
,,,,,,,,,,,,,,,,,,,,7,0,7,0,17,0,17,0,,,,,,scarlet,w,g,lower,,,,,,,3,w,LoDemNoTar,g,1,0.8551679342053831,,,,,,,,,,,,,,,,,,,,330,2023-11-13_14h01.56.083,leap3,2022.2.5,59.91825174179848,
,,,,,,,,,,,,,,,,,,,,7,0,7,0,18,0,18,0,,,,,,enabled,w,g,lower,,,,,,,3,w,LoDemNoTar,g,1,0.6192150693386793,,,,,,,,,,,,,,,,,,,,330,2023-11-13_14h01.56.083,leap3,2022.2.5,59.91825174179848,
,,,,,,,,,,,,,,,,,,,,7,0,7,0,19,0,19,0,,,,,,geissue,nw,h,lower,,,,,,,3,nw,LoDemNoTar,h,1,0.9373125405982137,,,,,,,,,,,,,,,,,,,,330,2023-11-13_14h01.56.083,leap3,2022.2.5,59.91825174179848,
,,,,,,,,,,,,,,,,,,,,7,0,7,0,20,0,20,0,,,,,,corg,nw,h,lower,,,,,,,3,nw,LoDemNoTar,h,1,0.48196054389700294,,,,,,,,,,,,,,,,,,,,330,2023-11-13_14h01.56.083,leap3,2022.2.5,59.91825174179848,
,,,,,,,,,,,,,,,,,,,,7,0,7,0,21,0,21,0,,,,,,arrive,w,g,lower,,,,,,,3,w,LoDemNoTar,g,1,0.5653294394724071,,,,,,,,,,,,,,,,,,,,330,2023-11-13_14h01.56.083,leap3,2022.2.5,59.91825174179848,
,,,,,,,,,,,,,,,,,,,,7,0,7,0,22,0,22,0,,,,,,comply,w,g,lower,,,,,,,3,w,LoDemNoTar,g,1,0.5733214220963418,,,,,,,,,,,,,,,,,,,,330,2023-11-13_14h01.56.083,leap3,2022.2.5,59.91825174179848,
,,,,,,,,,,,,,,,,,,,,7,0,7,0,23,0,23,0,,,,,,slimped,nw,h,lower,,,,,,,3,nw,LoDemNoTar,h,1,1.1808068049140275,,,,,,,,,,,,,,,,,,,,330,2023-11-13_14h01.56.083,leap3,2022.2.5,59.91825174179848,
,,,,,,,,,,,,,,,,,,,,7,0,7,0,24,0,24,0,,,,,,ofsters,nw,h,lower,,,,,,,3,nw,LoDemNoTar,h,1,0.7241298737935722,,,,,,,,,,,,,,,,,,,,330,2023-11-13_14h01.56.083,leap3,2022.2.5,59.91825174179848,
,,,,,,,,,,,,,,,,,,,,7,0,7,0,25,0,25,0,,,,,,mandlers,nw,h,lower,,,,,,,3,nw,LoDemNoTar,h,1,0.9485473348759115,,,,,,,,,,,,,,,,,,,,330,2023-11-13_14h01.56.083,leap3,2022.2.5,59.91825174179848,
,,,,,,,,,,,,,,,,,,,,7,0,7,0,26,0,26,0,,,,,,seeming,w,g,lower,,,,,,,3,w,LoDemNoTar,g,1,0.7492556218057871,,,,,,,,,,,,,,,,,,,,330,2023-11-13_14h01.56.083,leap3,2022.2.5,59.91825174179848,
,,,,,,,,,,,,,,,,,,,,7,0,7,0,27,0,27,0,,,,,,brongs,nw,h,lower,,,,,,,3,nw,LoDemNoTar,h,1,0.6379432580433786,,,,,,,,,,,,,,,,,,,,330,2023-11-13_14h01.56.083,leap3,2022.2.5,59.91825174179848,
,,,,,,,,,,,,,,,,,,,,7,0,7,0,28,0,28,0,,,,,,borrent,nw,h,lower,,,,,,,3,nw,LoDemNoTar,h,1,0.6267041596584022,,,,,,,,,,,,,,,,,,,,330,2023-11-13_14h01.56.083,leap3,2022.2.5,59.91825174179848,
,,,,,,,,,,,,,,,,,,,,7,0,7,0,29,0,29,0,,,,,,smallash,nw,h,lower,,,,,,,3,nw,LoDemNoTar,h,1,0.8640749892219901,,,,,,,,,,,,,,,,,,,,330,2023-11-13_14h01.56.083,leap3,2022.2.5,59.91825174179848,
,,,,,,,,,,,,,,,,,,,,7,0,7,0,,,,,,,,,,,,,,,,,,,,,,,,,,NA,,,,,,,,,,,,,,,,,,,330,2023-11-13_14h01.56.083,leap3,2022.2.5,59.91825174179848,
,,,,,,,,,,,,,,,,,,,,8,0,8,0,0,0,0,0,,,,,,vopings,nw,h,lower,,,,,,,3,nw,LoDemNoTar,h,1,0.6520242444239557,,,,,,,,,,,,,,,,,,,,330,2023-11-13_14h01.56.083,leap3,2022.2.5,59.91825174179848,
,,,,,,,,,,,,,,,,,,,,8,0,8,0,1,0,1,0,,,,,,landing,w,g,lower,,,,,,,3,w,LoDemNoTar,g,1,0.5926389121450484,,,,,,,,,,,,,,,,,,,,330,2023-11-13_14h01.56.083,leap3,2022.2.5,59.91825174179848,
,,,,,,,,,,,,,,,,,,,,8,0,8,0,2,0,2,0,,,,,,cervical,w,g,lower,,,,,,,3,w,LoDemNoTar,g,1,0.7353385137394071,,,,,,,,,,,,,,,,,,,,330,2023-11-13_14h01.56.083,leap3,2022.2.5,59.91825174179848,
,,,,,,,,,,,,,,,,,,,,8,0,8,0,3,0,3,0,,,,,,prama,nw,h,lower,,,,,,,3,nw,LoDemNoTar,h,1,0.7526735686697066,,,,,,,,,,,,,,,,,,,,330,2023-11-13_14h01.56.083,leap3,2022.2.5,59.91825174179848,
,,,,,,,,,,,,,,,,,,,,8,0,8,0,4,0,4,0,,,,,,ghists,nw,h,lower,,,,,,,3,nw,LoDemNoTar,h,1,0.608692733105272,,,,,,,,,,,,,,,,,,,,330,2023-11-13_14h01.56.083,leap3,2022.2.5,59.91825174179848,
,,,,,,,,,,,,,,,,,,,,8,0,8,0,5,0,5,0,,,,,,tritical,nw,h,lower,,,,,,,3,nw,LoDemNoTar,h,1,0.9436197178438306,,,,,,,,,,,,,,,,,,,,330,2023-11-13_14h01.56.083,leap3,2022.2.5,59.91825174179848,
,,,,,,,,,,,,,,,,,,,,8,0,8,0,6,0,6,0,,,,,,argue,w,g,lower,,,,,,,3,w,LoDemNoTar,g,1,0.6001422386616468,,,,,,,,,,,,,,,,,,,,330,2023-11-13_14h01.56.083,leap3,2022.2.5,59.91825174179848,
,,,,,,,,,,,,,,,,,,,,8,0,8,0,7,0,7,0,,,,,,mantos,nw,h,lower,,,,,,,3,nw,LoDemNoTar,h,1,0.5989030511118472,,,,,,,,,,,,,,,,,,,,330,2023-11-13_14h01.56.083,leap3,2022.2.5,59.91825174179848,
,,,,,,,,,,,,,,,,,,,,8,0,8,0,8,0,8,0,,,,,,recount,w,g,lower,,,,,,,3,w,LoDemNoTar,g,1,0.6943046147935092,,,,,,,,,,,,,,,,,,,,330,2023-11-13_14h01.56.083,leap3,2022.2.5,59.91825174179848,
,,,,,,,,,,,,,,,,,,,,8,0,8,0,9,0,9,0,,,,,,trembles,w,g,lower,,,,,,,3,w,LoDemNoTar,g,1,0.8560945936478674,,,,,,,,,,,,,,,,,,,,330,2023-11-13_14h01.56.083,leap3,2022.2.5,59.91825174179848,
,,,,,,,,,,,,,,,,,,,,8,0,8,0,10,0,10,0,,,,,,engineer,w,g,lower,,,,,,,3,w,LoDemNoTar,g,1,1.0120153981260955,,,,,,,,,,,,,,,,,,,,330,2023-11-13_14h01.56.083,leap3,2022.2.5,59.91825174179848,
,,,,,,,,,,,,,,,,,,,,8,0,8,0,11,0,11,0,,,,,,tunneg,nw,h,lower,,,,,,,3,nw,LoDemNoTar,h,1,0.6661721072159708,,,,,,,,,,,,,,,,,,,,330,2023-11-13_14h01.56.083,leap3,2022.2.5,59.91825174179848,
,,,,,,,,,,,,,,,,,,,,8,0,8,0,12,0,12,0,,,,,,dentures,w,g,lower,,,,,,,3,w,LoDemNoTar,g,1,0.6940486989915371,,,,,,,,,,,,,,,,,,,,330,2023-11-13_14h01.56.083,leap3,2022.2.5,59.91825174179848,
,,,,,,,,,,,,,,,,,,,,8,0,8,0,13,0,13,0,,,,,,dialect,w,g,lower,,,,,,,3,w,LoDemNoTar,g,1,0.8407161519862711,,,,,,,,,,,,,,,,,,,,330,2023-11-13_14h01.56.083,leap3,2022.2.5,59.91825174179848,
,,,,,,,,,,,,,,,,,,,,8,0,8,0,14,0,14,0,,,,,,theery,nw,h,lower,,,,,,,3,nw,LoDemNoTar,h,1,0.757463791873306,,,,,,,,,,,,,,,,,,,,330,2023-11-13_14h01.56.083,leap3,2022.2.5,59.91825174179848,
,,,,,,,,,,,,,,,,,,,,8,0,8,0,15,0,15,0,,,,,,unamufed,nw,h,lower,,,,,,,3,nw,LoDemNoTar,h,1,0.9884218336082995,,,,,,,,,,,,,,,,,,,,330,2023-11-13_14h01.56.083,leap3,2022.2.5,59.91825174179848,
,,,,,,,,,,,,,,,,,,,,8,0,8,0,16,0,16,0,,,,,,humanize,w,g,lower,,,,,,,3,w,LoDemNoTar,g,1,0.7232796913012862,,,,,,,,,,,,,,,,,,,,330,2023-11-13_14h01.56.083,leap3,2022.2.5,59.91825174179848,
,,,,,,,,,,,,,,,,,,,,8,0,8,0,17,0,17,0,,,,,,renown,w,g,lower,,,,,,,3,w,LoDemNoTar,g,1,0.9736108421348035,,,,,,,,,,,,,,,,,,,,330,2023-11-13_14h01.56.083,leap3,2022.2.5,59.91825174179848,
,,,,,,,,,,,,,,,,,,,,8,0,8,0,18,0,18,0,,,,,,reloant,nw,h,lower,,,,,,,3,nw,LoDemNoTar,h,1,1.1959372772835195,,,,,,,,,,,,,,,,,,,,330,2023-11-13_14h01.56.083,leap3,2022.2.5,59.91825174179848,
,,,,,,,,,,,,,,,,,,,,8,0,8,0,19,0,19,0,,,,,,shurk,nw,h,lower,,,,,,,3,nw,LoDemNoTar,h,1,0.6827831156551838,,,,,,,,,,,,,,,,,,,,330,2023-11-13_14h01.56.083,leap3,2022.2.5,59.91825174179848,
,,,,,,,,,,,,,,,,,,,,8,0,8,0,20,0,20,0,,,,,,buzzer,w,g,lower,,,,,,,3,w,LoDemNoTar,g,1,0.718111056368798,,,,,,,,,,,,,,,,,,,,330,2023-11-13_14h01.56.083,leap3,2022.2.5,59.91825174179848,
,,,,,,,,,,,,,,,,,,,,8,0,8,0,21,0,21,0,,,,,,bullet,w,g,lower,,,,,,,3,w,LoDemNoTar,g,1,0.5521469716913998,,,,,,,,,,,,,,,,,,,,330,2023-11-13_14h01.56.083,leap3,2022.2.5,59.91825174179848,
,,,,,,,,,,,,,,,,,,,,8,0,8,0,22,0,22,0,,,,,,submit,w,g,lower,,,,,,,3,w,LoDemNoTar,g,1,0.6329216174781322,,,,,,,,,,,,,,,,,,,,330,2023-11-13_14h01.56.083,leap3,2022.2.5,59.91825174179848,
,,,,,,,,,,,,,,,,,,,,8,0,8,0,23,0,23,0,,,,,,giving,w,g,lower,,,,,,,3,w,LoDemNoTar,g,1,0.5344447628594935,,,,,,,,,,,,,,,,,,,,330,2023-11-13_14h01.56.083,leap3,2022.2.5,59.91825174179848,
,,,,,,,,,,,,,,,,,,,,8,0,8,0,24,0,24,0,,,,,,blanned,nw,h,lower,,,,,,,3,nw,LoDemNoTar,h,1,0.9195924536325037,,,,,,,,,,,,,,,,,,,,330,2023-11-13_14h01.56.083,leap3,2022.2.5,59.91825174179848,
,,,,,,,,,,,,,,,,,,,,8,0,8,0,25,0,25,0,,,,,,pamine,nw,h,lower,,,,,,,3,nw,LoDemNoTar,h,1,0.6890210998244584,,,,,,,,,,,,,,,,,,,,330,2023-11-13_14h01.56.083,leap3,2022.2.5,59.91825174179848,
,,,,,,,,,,,,,,,,,,,,8,0,8,0,26,0,26,0,,,,,,volume,w,g,lower,,,,,,,3,w,LoDemNoTar,g,1,0.5157619300298393,,,,,,,,,,,,,,,,,,,,330,2023-11-13_14h01.56.083,leap3,2022.2.5,59.91825174179848,
,,,,,,,,,,,,,,,,,,,,8,0,8,0,27,0,27,0,,,,,,begut,nw,h,lower,,,,,,,3,nw,LoDemNoTar,h,1,0.9328712620772421,,,,,,,,,,,,,,,,,,,,330,2023-11-13_14h01.56.083,leap3,2022.2.5,59.91825174179848,
,,,,,,,,,,,,,,,,,,,,8,0,8,0,28,0,28,0,,,,,,chonemic,nw,h,lower,,,,,,,3,nw,LoDemNoTar,h,1,0.894135638140142,,,,,,,,,,,,,,,,,,,,330,2023-11-13_14h01.56.083,leap3,2022.2.5,59.91825174179848,
,,,,,,,,,,,,,,,,,,,,8,0,8,0,29,0,29,0,,,,,,duries,nw,h,lower,,,,,,,3,nw,LoDemNoTar,h,1,0.8329290999099612,,,,,,,,,,,,,,,,,,,,330,2023-11-13_14h01.56.083,leap3,2022.2.5,59.91825174179848,
,,,,,,,,,,,,,,,,,,,,8,0,8,0,,,,,,,,,,,,,,,,,,,,,,,,,,NA,,,,,,,,,,,,,,,,,,,330,2023-11-13_14h01.56.083,leap3,2022.2.5,59.91825174179848,
,,,,,,,,,,,,,,,,,,,,9,0,9,0,0,0,0,0,,,,,,combat,w,g,lower,,,,,,,4,w,LoDemTar,g,1,0.631306005641818,,,,,,,,,,,,,,,,,,,,330,2023-11-13_14h01.56.083,leap3,2022.2.5,59.91825174179848,
,,,,,,,,,,,,,,,,,,,,9,0,9,0,1,0,1,0,,,,,,prison,w,g,lower,,,,,,,4,w,LoDemTar,g,1,0.5554579827003181,,,,,,,,,,,,,,,,,,,,330,2023-11-13_14h01.56.083,leap3,2022.2.5,59.91825174179848,
,,,,,,,,,,,,,,,,,,,,9,0,9,0,2,0,2,0,,,,,,distrust,w,g,lower,,,,,,,4,w,LoDemTar,g,1,0.6513498588465154,,,,,,,,,,,,,,,,,,,,330,2023-11-13_14h01.56.083,leap3,2022.2.5,59.91825174179848,
,,,,,,,,,,,,,,,,,,,,9,0,9,0,3,0,3,0,,,,,,sopes,nw,h,lower,,,,,,,4,nw,LoDemTar,h,1,0.6561261778697371,,,,,,,,,,,,,,,,,,,,330,2023-11-13_14h01.56.083,leap3,2022.2.5,59.91825174179848,
,,,,,,,,,,,,,,,,,,,,9,0,9,0,4,0,4,0,,,,,,enacted,w,g,lower,,,,,,,4,w,LoDemTar,g,1,0.8681219653226435,,,,,,,,,,,,,,,,,,,,330,2023-11-13_14h01.56.083,leap3,2022.2.5,59.91825174179848,
,,,,,,,,,,,,,,,,,,,,9,0,9,0,5,0,5,0,,,,,,punctual,w,g,lower,,,,,,,4,w,LoDemTar,g,1,0.7281847954727709,,,,,,,,,,,,,,,,,,,,330,2023-11-13_14h01.56.083,leap3,2022.2.5,59.91825174179848,
,,,,,,,,,,,,,,,,,,,,9,0,9,0,6,0,6,0,,,,,,subpoena,w,g,lower,,,,,,,4,w,LoDemTar,g,1,0.7935783509165049,,,,,,,,,,,,,,,,,,,,330,2023-11-13_14h01.56.083,leap3,2022.2.5,59.91825174179848,
,,,,,,,,,,,,,,,,,,,,9,0,9,0,7,0,7,0,,,,,,shillac,nw,h,lower,,,,,,,4,nw,LoDemTar,h,1,0.7929562740027905,,,,,,,,,,,,,,,,,,,,330,2023-11-13_14h01.56.083,leap3,2022.2.5,59.91825174179848,
,,,,,,,,,,,,,,,,,,,,9,0,9,0,8,0,8,0,,,,,,sength,nw,h,lower,,,,,,,4,nw,LoDemTar,h,1,0.8636449319310486,,,,,,,,,,,,,,,,,,,,330,2023-11-13_14h01.56.083,leap3,2022.2.5,59.91825174179848,
,,,,,,,,,,,,,,,,,,,,9,0,9,0,9,0,9,0,,,,,,visible,w,g,lower,,,,,,,4,w,LoDemTar,g,1,0.7077135336585343,,,,,,,,,,,,,,,,,,,,330,2023-11-13_14h01.56.083,leap3,2022.2.5,59.91825174179848,
,,,,,,,,,,,,,,,,,,,,9,0,9,0,10,0,10,0,,,,,,olgies,nw,h,lower,,,,,,,4,nw,LoDemTar,h,1,0.6367514128796756,,,,,,,,,,,,,,,,,,,,330,2023-11-13_14h01.56.083,leap3,2022.2.5,59.91825174179848,
,,,,,,,,,,,,,,,,,,,,9,0,9,0,11,0,11,0,,,,,,pastnoss,nw,h,lower,,,,,,,4,nw,LoDemTar,h,1,0.609443926718086,,,,,,,,,,,,,,,,,,,,330,2023-11-13_14h01.56.083,leap3,2022.2.5,59.91825174179848,
,,,,,,,,,,,,,,,,,,,,9,0,9,0,12,0,12,0,,,,,,olerates,nw,h,lower,,,,,,,4,nw,LoDemTar,h,1,0.535432007163763,,,,,,,,,,,,,,,,,,,,330,2023-11-13_14h01.56.083,leap3,2022.2.5,59.91825174179848,
,,,,,,,,,,,,,,,,,,,,9,0,9,0,13,0,13,0,,,,,,glapula,nw,h,lower,,,,,,,4,nw,LoDemTar,h,1,0.5287752221338451,,,,,,,,,,,,,,,,,,,,330,2023-11-13_14h01.56.083,leap3,2022.2.5,59.91825174179848,
,,,,,,,,,,,,,,,,,,,,9,0,9,0,14,0,14,0,,,,,,violate,w,g,lower,,,,,,,4,w,LoDemTar,g,1,0.4581342381425202,,,,,,,,,,,,,,,,,,,,330,2023-11-13_14h01.56.083,leap3,2022.2.5,59.91825174179848,
,,,,,,,,,,,,,,,,,,,,9,0,9,0,15,0,15,0,,,,,,amidst,w,g,lower,,,,,,,4,w,LoDemTar,g,1,0.7581775751896203,,,,,,,,,,,,,,,,,,,,330,2023-11-13_14h01.56.083,leap3,2022.2.5,59.91825174179848,
,,,,,,,,,,,,,,,,,,,,9,0,9,0,16,0,16,0,,,,,,collision,w,g,lower,,,,,,,4,w,LoDemTar,g,1,0.5664318962953985,,,,,,,,,,,,,,,,,,,,330,2023-11-13_14h01.56.083,leap3,2022.2.5,59.91825174179848,
,,,,,,,,,,,,,,,,,,,,9,0,9,0,17,0,17,0,,,,,,pripend,nw,h,lower,,,,,,,4,nw,LoDemTar,h,1,0.7102981815114617,,,,,,,,,,,,,,,,,,,,330,2023-11-13_14h01.56.083,leap3,2022.2.5,59.91825174179848,
,,,,,,,,,,,,,,,,,,,,9,0,9,0,18,0,18,0,,,,,,kiner,nw,h,lower,,,,,,,4,nw,LoDemTar,h,1,0.7365008937194943,,,,,,,,,,,,,,,,,,,,330,2023-11-13_14h01.56.083,leap3,2022.2.5,59.91825174179848,
,,,,,,,,,,,,,,,,,,,,9,0,9,0,19,0,19,0,,,,,,brouhuha,nw,h,lower,,,,,,,4,nw,LoDemTar,h,1,0.5680845878086984,,,,,,,,,,,,,,,,,,,,330,2023-11-13_14h01.56.083,leap3,2022.2.5,59.91825174179848,
,,,,,,,,,,,,,,,,,,,,9,0,9,0,20,0,20,0,,,,,,skiing,w,g,lower,,,,,,,4,w,LoDemTar,g,1,0.672044260893017,,,,,,,,,,,,,,,,,,,,330,2023-11-13_14h01.56.083,leap3,2022.2.5,59.91825174179848,
,,,,,,,,,,,,,,,,,,,,9,0,9,0,21,0,21,0,,,,,,puyer,nw,h,lower,,,,,,,4,nw,LoDemTar,h,1,0.8114202707074583,,,,,,,,,,,,,,,,,,,,330,2023-11-13_14h01.56.083,leap3,2022.2.5,59.91825174179848,
,,,,,,,,,,,,,,,,,,,,9,0,9,0,22,0,22,0,,,,,,forfeit,w,g,lower,,,,,,,4,w,LoDemTar,g,1,0.5614575985819101,,,,,,,,,,,,,,,,,,,,330,2023-11-13_14h01.56.083,leap3,2022.2.5,59.91825174179848,
,,,,,,,,,,,,,,,,,,,,9,0,9,0,23,0,23,0,,,,,,ciping,nw,h,lower,,,,,,,4,nw,LoDemTar,h,1,0.6815018821507692,,,,,,,,,,,,,,,,,,,,330,2023-11-13_14h01.56.083,leap3,2022.2.5,59.91825174179848,
,,,,,,,,,,,,,,,,,,,,9,0,9,0,24,0,24,0,,,,,,remain,w,g,lower,,,,,,,4,w,LoDemTar,g,1,0.5808989079669118,,,,,,,,,,,,,,,,,,,,330,2023-11-13_14h01.56.083,leap3,2022.2.5,59.91825174179848,
,,,,,,,,,,,,,,,,,,,,9,0,9,0,25,0,25,0,,,,,,octopus,target,q,lower,,,,,,,4,target,LoDemTar,g,0,0.6844199160113931,,,,,,,,,,,,,,,,,,,,330,2023-11-13_14h01.56.083,leap3,2022.2.5,59.91825174179848,
,,,,,,,,,,,,,,,,,,,,9,0,9,0,26,0,26,0,,,,,,railway,w,g,lower,,,,,,,4,aftertar1,LoDemTar,g,1,0.42361708218231797,,,,,,,,,,,,,,,,,,,,330,2023-11-13_14h01.56.083,leap3,2022.2.5,59.91825174179848,
,,,,,,,,,,,,,,,,,,,,9,0,9,0,27,0,27,0,,,,,,congraks,nw,h,lower,,,,,,,4,aftertar2,LoDemTar,h,1,0.7250323654152453,,,,,,,,,,,,,,,,,,,,330,2023-11-13_14h01.56.083,leap3,2022.2.5,59.91825174179848,
,,,,,,,,,,,,,,,,,,,,9,0,9,0,28,0,28,0,,,,,,rumblos,nw,h,lower,,,,,,,4,aftertar3,LoDemTar,h,1,0.6144033260643482,,,,,,,,,,,,,,,,,,,,330,2023-11-13_14h01.56.083,leap3,2022.2.5,59.91825174179848,
,,,,,,,,,,,,,,,,,,,,9,0,9,0,29,0,29,0,,,,,,mining,w,g,lower,,,,,,,4,nw,LoDemTar,g,1,0.5555877620354295,,,,,,,,,,,,,,,,,,,,330,2023-11-13_14h01.56.083,leap3,2022.2.5,59.91825174179848,
,,,,,,,,,,,,,,,,,,,,9,0,9,0,,,,,,,,,,,,,,,,,,,,,,,,,,0,,,,,,,,,,,,,,,,,,,330,2023-11-13_14h01.56.083,leap3,2022.2.5,59.91825174179848,
,,,,,,,,,,,,,,,,,,,,10,0,10,0,0,0,0,0,,,,,,slowning,nw,h,lower,,,,,,,3,nw,LoDemNoTar,h,1,0.9802934504114091,,,,,,,,,,,,,,,,,,,,330,2023-11-13_14h01.56.083,leap3,2022.2.5,59.91825174179848,
,,,,,,,,,,,,,,,,,,,,10,0,10,0,1,0,1,0,,,,,,admire,w,g,lower,,,,,,,3,w,LoDemNoTar,g,1,0.6515945182181895,,,,,,,,,,,,,,,,,,,,330,2023-11-13_14h01.56.083,leap3,2022.2.5,59.91825174179848,
,,,,,,,,,,,,,,,,,,,,10,0,10,0,2,0,2,0,,,,,,earmaff,nw,h,lower,,,,,,,3,nw,LoDemNoTar,h,1,0.872299050912261,,,,,,,,,,,,,,,,,,,,330,2023-11-13_14h01.56.083,leap3,2022.2.5,59.91825174179848,
,,,,,,,,,,,,,,,,,,,,10,0,10,0,3,0,3,0,,,,,,ringlat,nw,h,lower,,,,,,,3,nw,LoDemNoTar,h,1,0.9148022304289043,,,,,,,,,,,,,,,,,,,,330,2023-11-13_14h01.56.083,leap3,2022.2.5,59.91825174179848,
,,,,,,,,,,,,,,,,,,,,10,0,10,0,4,0,4,0,,,,,,awful,w,g,lower,,,,,,,3,w,LoDemNoTar,g,1,0.6927793845534325,,,,,,,,,,,,,,,,,,,,330,2023-11-13_14h01.56.083,leap3,2022.2.5,59.91825174179848,
,,,,,,,,,,,,,,,,,,,,10,0,10,0,5,0,5,0,,,,,,goblet,w,g,lower,,,,,,,3,w,LoDemNoTar,g,1,0.8154410920105875,,,,,,,,,,,,,,,,,,,,330,2023-11-13_14h01.56.083,leap3,2022.2.5,59.91825174179848,
,,,,,,,,,,,,,,,,,,,,10,0,10,0,6,0,6,0,,,,,,pariah,w,g,lower,,,,,,,3,w,LoDemNoTar,g,1,0.9254298452287912,,,,,,,,,,,,,,,,,,,,330,2023-11-13_14h01.56.083,leap3,2022.2.5,59.91825174179848,
,,,,,,,,,,,,,,,,,,,,10,0,10,0,7,0,7,0,,,,,,static,w,g,lower,,,,,,,3,w,LoDemNoTar,g,1,0.6708113634958863,,,,,,,,,,,,,,,,,,,,330,2023-11-13_14h01.56.083,leap3,2022.2.5,59.91825174179848,
,,,,,,,,,,,,,,,,,,,,10,0,10,0,8,0,8,0,,,,,,gymnasium,w,g,lower,,,,,,,3,w,LoDemNoTar,g,1,0.5861897063441575,,,,,,,,,,,,,,,,,,,,330,2023-11-13_14h01.56.083,leap3,2022.2.5,59.91825174179848,
,,,,,,,,,,,,,,,,,,,,10,0,10,0,9,0,9,0,,,,,,chrik,nw,h,lower,,,,,,,3,nw,LoDemNoTar,h,1,0.7052152934484184,,,,,,,,,,,,,,,,,,,,330,2023-11-13_14h01.56.083,leap3,2022.2.5,59.91825174179848,
,,,,,,,,,,,,,,,,,,,,10,0,10,0,10,0,10,0,,,,,,previous,w,g,lower,,,,,,,3,w,LoDemNoTar,g,1,0.5315207694657147,,,,,,,,,,,,,,,,,,,,330,2023-11-13_14h01.56.083,leap3,2022.2.5,59.91825174179848,
,,,,,,,,,,,,,,,,,,,,10,0,10,0,11,0,11,0,,,,,,catgup,nw,h,lower,,,,,,,3,nw,LoDemNoTar,h,1,0.8126203925348818,,,,,,,,,,,,,,,,,,,,330,2023-11-13_14h01.56.083,leap3,2022.2.5,59.91825174179848,
,,,,,,,,,,,,,,,,,,,,10,0,10,0,12,0,12,0,,,,,,bingu,nw,h,lower,,,,,,,3,nw,LoDemNoTar,h,1,0.7936405916698277,,,,,,,,,,,,,,,,,,,,330,2023-11-13_14h01.56.083,leap3,2022.2.5,59.91825174179848,
,,,,,,,,,,,,,,,,,,,,10,0,10,0,13,0,13,0,,,,,,populace,w,g,lower,,,,,,,3,w,LoDemNoTar,h,0,0.8479731637053192,,,,,,,,,,,,,,,,,,,,330,2023-11-13_14h01.56.083,leap3,2022.2.5,59.91825174179848,
,,,,,,,,,,,,,,,,,,,,10,0,10,0,14,0,14,0,,,,,,correct,w,g,lower,,,,,,,3,w,LoDemNoTar,g,1,1.380565654952079,,,,,,,,,,,,,,,,,,,,330,2023-11-13_14h01.56.083,leap3,2022.2.5,59.91825174179848,
,,,,,,,,,,,,,,,,,,,,10,0,10,0,15,0,15,0,,,,,,extruded,w,g,lower,,,,,,,3,w,LoDemNoTar,h,0,0.8117861007340252,,,,,,,,,,,,,,,,,,,,330,2023-11-13_14h01.56.083,leap3,2022.2.5,59.91825174179848,
,,,,,,,,,,,,,,,,,,,,10,0,10,0,16,0,16,0,,,,,,mebase,nw,h,lower,,,,,,,3,nw,LoDemNoTar,h,1,0.7377715329639614,,,,,,,,,,,,,,,,,,,,330,2023-11-13_14h01.56.083,leap3,2022.2.5,59.91825174179848,
,,,,,,,,,,,,,,,,,,,,10,0,10,0,17,0,17,0,,,,,,fabstand,nw,h,lower,,,,,,,3,nw,LoDemNoTar,h,1,0.8263209816068411,,,,,,,,,,,,,,,,,,,,330,2023-11-13_14h01.56.083,leap3,2022.2.5,59.91825174179848,
,,,,,,,,,,,,,,,,,,,,10,0,10,0,18,0,18,0,,,,,,twenties,w,g,lower,,,,,,,3,w,LoDemNoTar,g,1,0.6884569600224495,,,,,,,,,,,,,,,,,,,,330,2023-11-13_14h01.56.083,leap3,2022.2.5,59.91825174179848,
,,,,,,,,,,,,,,,,,,,,10,0,10,0,19,0,19,0,,,,,,bengths,nw,h,lower,,,,,,,3,nw,LoDemNoTar,h,1,0.8506531594321132,,,,,,,,,,,,,,,,,,,,330,2023-11-13_14h01.56.083,leap3,2022.2.5,59.91825174179848,
,,,,,,,,,,,,,,,,,,,,10,0,10,0,20,0,20,0,,,,,,desert,w,g,lower,,,,,,,3,w,LoDemNoTar,h,0,0.6795300408266485,,,,,,,,,,,,,,,,,,,,330,2023-11-13_14h01.56.083,leap3,2022.2.5,59.91825174179848,
,,,,,,,,,,,,,,,,,,,,10,0,10,0,21,0,21,0,,,,,,dontrite,nw,h,lower,,,,,,,3,nw,LoDemNoTar,h,1,1.1135470187291503,,,,,,,,,,,,,,,,,,,,330,2023-11-13_14h01.56.083,leap3,2022.2.5,59.91825174179848,
,,,,,,,,,,,,,,,,,,,,10,0,10,0,22,0,22,0,,,,,,potatoes,w,g,lower,,,,,,,3,w,LoDemNoTar,g,1,0.5478245466947556,,,,,,,,,,,,,,,,,,,,330,2023-11-13_14h01.56.083,leap3,2022.2.5,59.91825174179848,
,,,,,,,,,,,,,,,,,,,,10,0,10,0,23,0,23,0,,,,,,sodent,nw,h,lower,,,,,,,3,nw,LoDemNoTar,h,1,0.7885308875702322,,,,,,,,,,,,,,,,,,,,330,2023-11-13_14h01.56.083,leap3,2022.2.5,59.91825174179848,
,,,,,,,,,,,,,,,,,,,,10,0,10,0,24,0,24,0,,,,,,diatonic,w,g,lower,,,,,,,3,w,LoDemNoTar,h,0,1.2032509013079107,,,,,,,,,,,,,,,,,,,,330,2023-11-13_14h01.56.083,leap3,2022.2.5,59.91825174179848,
,,,,,,,,,,,,,,,,,,,,10,0,10,0,25,0,25,0,,,,,,ignoble,w,g,lower,,,,,,,3,w,LoDemNoTar,h,0,1.1374749620445073,,,,,,,,,,,,,,,,,,,,330,2023-11-13_14h01.56.083,leap3,2022.2.5,59.91825174179848,
,,,,,,,,,,,,,,,,,,,,10,0,10,0,26,0,26,0,,,,,,preight,nw,h,lower,,,,,,,3,nw,LoDemNoTar,h,1,0.7541627124883235,,,,,,,,,,,,,,,,,,,,330,2023-11-13_14h01.56.083,leap3,2022.2.5,59.91825174179848,
,,,,,,,,,,,,,,,,,,,,10,0,10,0,27,0,27,0,,,,,,pived,nw,h,lower,,,,,,,3,nw,LoDemNoTar,h,1,0.7061088462360203,,,,,,,,,,,,,,,,,,,,330,2023-11-13_14h01.56.083,leap3,2022.2.5,59.91825174179848,
,,,,,,,,,,,,,,,,,,,,10,0,10,0,28,0,28,0,,,,,,nearsipe,nw,h,lower,,,,,,,3,nw,LoDemNoTar,h,1,0.8050766754895449,,,,,,,,,,,,,,,,,,,,330,2023-11-13_14h01.56.083,leap3,2022.2.5,59.91825174179848,
,,,,,,,,,,,,,,,,,,,,10,0,10,0,29,0,29,0,,,,,,leuter,nw,h,lower,,,,,,,3,nw,LoDemNoTar,h,1,0.7059098747558892,,,,,,,,,,,,,,,,,,,,330,2023-11-13_14h01.56.083,leap3,2022.2.5,59.91825174179848,
,,,,,,,,,,,,,,,,,,,,10,0,10,0,,,,,,,,,,,,,,,,,,,,,,,,,,NA,,,,,,,,,,,,,,,,,,,330,2023-11-13_14h01.56.083,leap3,2022.2.5,59.91825174179848,
,,,,,,,,,,,,,,,,,,,,11,0,11,0,0,0,0,0,,,,,,entropy,w,g,upper,,,,,,,2,w,HiDemNoTar,g,1,0.7088838587515056,,,,,,,,,,,,,,,,,,,,330,2023-11-13_14h01.56.083,leap3,2022.2.5,59.91825174179848,
,,,,,,,,,,,,,,,,,,,,11,0,11,0,1,0,1,0,,,,,,fracture,w,g,upper,,,,,,,2,w,HiDemNoTar,g,1,0.6148237828165293,,,,,,,,,,,,,,,,,,,,330,2023-11-13_14h01.56.083,leap3,2022.2.5,59.91825174179848,
,,,,,,,,,,,,,,,,,,,,11,0,11,0,2,0,2,0,,,,,,remade,w,g,upper,,,,,,,2,w,HiDemNoTar,g,1,0.9968892303295434,,,,,,,,,,,,,,,,,,,,330,2023-11-13_14h01.56.083,leap3,2022.2.5,59.91825174179848,
,,,,,,,,,,,,,,,,,,,,11,0,11,0,3,0,3,0,,,,,,menarthe,nw,h,upper,,,,,,,2,nw,HiDemNoTar,h,1,0.7786471815779805,,,,,,,,,,,,,,,,,,,,330,2023-11-13_14h01.56.083,leap3,2022.2.5,59.91825174179848,
,,,,,,,,,,,,,,,,,,,,11,0,11,0,4,0,4,0,,,,,,clume,nw,h,upper,,,,,,,2,nw,HiDemNoTar,h,1,0.7699645911343396,,,,,,,,,,,,,,,,,,,,330,2023-11-13_14h01.56.083,leap3,2022.2.5,59.91825174179848,
,,,,,,,,,,,,,,,,,,,,11,0,11,0,5,0,5,0,,,,,,porghum,nw,h,upper,,,,,,,2,nw,HiDemNoTar,h,1,0.9933782531879842,,,,,,,,,,,,,,,,,,,,330,2023-11-13_14h01.56.083,leap3,2022.2.5,59.91825174179848,
,,,,,,,,,,,,,,,,,,,,11,0,11,0,6,0,6,0,,,,,,upstairs,w,g,upper,,,,,,,2,w,HiDemNoTar,g,1,0.5681074312888086,,,,,,,,,,,,,,,,,,,,330,2023-11-13_14h01.56.083,leap3,2022.2.5,59.91825174179848,
,,,,,,,,,,,,,,,,,,,,11,0,11,0,7,0,7,0,,,,,,itfidels,nw,h,upper,,,,,,,2,nw,HiDemNoTar,h,1,1.23214453458786,,,,,,,,,,,,,,,,,,,,330,2023-11-13_14h01.56.083,leap3,2022.2.5,59.91825174179848,
,,,,,,,,,,,,,,,,,,,,11,0,11,0,8,0,8,0,,,,,,fallacy,w,g,upper,,,,,,,2,w,HiDemNoTar,h,0,0.7974571441300213,,,,,,,,,,,,,,,,,,,,330,2023-11-13_14h01.56.083,leap3,2022.2.5,59.91825174179848,
,,,,,,,,,,,,,,,,,,,,11,0,11,0,9,0,9,0,,,,,,flacked,nw,h,upper,,,,,,,2,nw,HiDemNoTar,h,1,2.3082742961123586,,,,,,,,,,,,,,,,,,,,330,2023-11-13_14h01.56.083,leap3,2022.2.5,59.91825174179848,
,,,,,,,,,,,,,,,,,,,,11,0,11,0,10,0,10,0,,,,,,veirs,nw,h,upper,,,,,,,2,nw,HiDemNoTar,h,1,0.8629851131699979,,,,,,,,,,,,,,,,,,,,330,2023-11-13_14h01.56.083,leap3,2022.2.5,59.91825174179848,
,,,,,,,,,,,,,,,,,,,,11,0,11,0,11,0,11,0,,,,,,daining,nw,h,upper,,,,,,,2,nw,HiDemNoTar,h,1,1.1540075079537928,,,,,,,,,,,,,,,,,,,,330,2023-11-13_14h01.56.083,leap3,2022.2.5,59.91825174179848,
,,,,,,,,,,,,,,,,,,,,11,0,11,0,12,0,12,0,,,,,,chyme,nw,h,upper,,,,,,,2,nw,HiDemNoTar,h,1,0.737955607008189,,,,,,,,,,,,,,,,,,,,330,2023-11-13_14h01.56.083,leap3,2022.2.5,59.91825174179848,
,,,,,,,,,,,,,,,,,,,,11,0,11,0,13,0,13,0,,,,,,mennel,nw,h,upper,,,,,,,2,nw,HiDemNoTar,h,1,0.6749619636684656,,,,,,,,,,,,,,,,,,,,330,2023-11-13_14h01.56.083,leap3,2022.2.5,59.91825174179848,
,,,,,,,,,,,,,,,,,,,,11,0,11,0,14,0,14,0,,,,,,mustled,nw,h,upper,,,,,,,2,nw,HiDemNoTar,g,0,1.1187474355101585,,,,,,,,,,,,,,,,,,,,330,2023-11-13_14h01.56.083,leap3,2022.2.5,59.91825174179848,
,,,,,,,,,,,,,,,,,,,,11,0,11,0,15,0,15,0,,,,,,disuse,w,g,upper,,,,,,,2,w,HiDemNoTar,g,1,1.0488252001814544,,,,,,,,,,,,,,,,,,,,330,2023-11-13_14h01.56.083,leap3,2022.2.5,59.91825174179848,
,,,,,,,,,,,,,,,,,,,,11,0,11,0,16,0,16,0,,,,,,absent,w,g,upper,,,,,,,2,w,HiDemNoTar,g,1,0.6775340312160552,,,,,,,,,,,,,,,,,,,,330,2023-11-13_14h01.56.083,leap3,2022.2.5,59.91825174179848,
,,,,,,,,,,,,,,,,,,,,11,0,11,0,17,0,17,0,,,,,,brighten,w,g,upper,,,,,,,2,w,HiDemNoTar,g,1,0.560938483569771,,,,,,,,,,,,,,,,,,,,330,2023-11-13_14h01.56.083,leap3,2022.2.5,59.91825174179848,
,,,,,,,,,,,,,,,,,,,,11,0,11,0,18,0,18,0,,,,,,noblest,w,g,upper,,,,,,,2,w,HiDemNoTar,g,1,0.5289294999092817,,,,,,,,,,,,,,,,,,,,330,2023-11-13_14h01.56.083,leap3,2022.2.5,59.91825174179848,
,,,,,,,,,,,,,,,,,,,,11,0,11,0,19,0,19,0,,,,,,stifle,w,g,upper,,,,,,,2,w,HiDemNoTar,g,1,0.8013806315138936,,,,,,,,,,,,,,,,,,,,330,2023-11-13_14h01.56.083,leap3,2022.2.5,59.91825174179848,
,,,,,,,,,,,,,,,,,,,,11,0,11,0,20,0,20,0,,,,,,oginous,nw,h,upper,,,,,,,2,nw,HiDemNoTar,h,1,1.1841962793841958,,,,,,,,,,,,,,,,,,,,330,2023-11-13_14h01.56.083,leap3,2022.2.5,59.91825174179848,
,,,,,,,,,,,,,,,,,,,,11,0,11,0,21,0,21,0,,,,,,fragment,w,g,upper,,,,,,,2,w,HiDemNoTar,g,1,0.7994736800901592,,,,,,,,,,,,,,,,,,,,330,2023-11-13_14h01.56.083,leap3,2022.2.5,59.91825174179848,
,,,,,,,,,,,,,,,,,,,,11,0,11,0,22,0,22,0,,,,,,alchemist,w,g,upper,,,,,,,2,w,HiDemNoTar,g,1,1.062062956392765,,,,,,,,,,,,,,,,,,,,330,2023-11-13_14h01.56.083,leap3,2022.2.5,59.91825174179848,
,,,,,,,,,,,,,,,,,,,,11,0,11,0,23,0,23,0,,,,,,butled,nw,h,upper,,,,,,,2,nw,HiDemNoTar,h,1,1.1942471745423973,,,,,,,,,,,,,,,,,,,,330,2023-11-13_14h01.56.083,leap3,2022.2.5,59.91825174179848,
,,,,,,,,,,,,,,,,,,,,11,0,11,0,24,0,24,0,,,,,,amplifier,w,g,upper,,,,,,,2,w,HiDemNoTar,g,1,0.6969193904660642,,,,,,,,,,,,,,,,,,,,330,2023-11-13_14h01.56.083,leap3,2022.2.5,59.91825174179848,
,,,,,,,,,,,,,,,,,,,,11,0,11,0,25,0,25,0,,,,,,summon,w,g,upper,,,,,,,2,w,HiDemNoTar,g,1,0.6436094879172742,,,,,,,,,,,,,,,,,,,,330,2023-11-13_14h01.56.083,leap3,2022.2.5,59.91825174179848,
,,,,,,,,,,,,,,,,,,,,11,0,11,0,26,0,26,0,,,,,,atble,nw,h,upper,,,,,,,2,nw,HiDemNoTar,h,1,0.6083000865764916,,,,,,,,,,,,,,,,,,,,330,2023-11-13_14h01.56.083,leap3,2022.2.5,59.91825174179848,
,,,,,,,,,,,,,,,,,,,,11,0,11,0,27,0,27,0,,,,,,allained,nw,h,upper,,,,,,,2,nw,HiDemNoTar,h,1,0.8214950026012957,,,,,,,,,,,,,,,,,,,,330,2023-11-13_14h01.56.083,leap3,2022.2.5,59.91825174179848,
,,,,,,,,,,,,,,,,,,,,11,0,11,0,28,0,28,0,,,,,,plapping,nw,h,upper,,,,,,,2,nw,HiDemNoTar,h,1,0.7067964747548103,,,,,,,,,,,,,,,,,,,,330,2023-11-13_14h01.56.083,leap3,2022.2.5,59.91825174179848,
,,,,,,,,,,,,,,,,,,,,11,0,11,0,29,0,29,0,,,,,,binder,w,g,upper,,,,,,,2,w,HiDemNoTar,g,1,0.7248002868145704,,,,,,,,,,,,,,,,,,,,330,2023-11-13_14h01.56.083,leap3,2022.2.5,59.91825174179848,
,,,,,,,,,,,,,,,,,,,,11,0,11,0,,,,,,,,,,,,,,,,,,,,,,,,,,NA,,,,,,,,,,,,,,,,,,,330,2023-11-13_14h01.56.083,leap3,2022.2.5,59.91825174179848,
,,,,,,,,,,,,,,,,,,,,12,0,12,0,0,0,0,0,,,,,,urgency,w,g,lower,,,,,,,3,w,LoDemNoTar,g,1,0.5989719131030142,,,,,,,,,,,,,,,,,,,,330,2023-11-13_14h01.56.083,leap3,2022.2.5,59.91825174179848,
,,,,,,,,,,,,,,,,,,,,12,0,12,0,1,0,1,0,,,,,,airline,w,g,lower,,,,,,,3,w,LoDemNoTar,g,1,0.6535769533365965,,,,,,,,,,,,,,,,,,,,330,2023-11-13_14h01.56.083,leap3,2022.2.5,59.91825174179848,
,,,,,,,,,,,,,,,,,,,,12,0,12,0,2,0,2,0,,,,,,committed,w,g,lower,,,,,,,3,w,LoDemNoTar,g,1,0.5047668288461864,,,,,,,,,,,,,,,,,,,,330,2023-11-13_14h01.56.083,leap3,2022.2.5,59.91825174179848,
,,,,,,,,,,,,,,,,,,,,12,0,12,0,3,0,3,0,,,,,,antique,w,g,lower,,,,,,,3,w,LoDemNoTar,g,1,0.5386834270320833,,,,,,,,,,,,,,,,,,,,330,2023-11-13_14h01.56.083,leap3,2022.2.5,59.91825174179848,
,,,,,,,,,,,,,,,,,,,,12,0,12,0,4,0,4,0,,,,,,warmer,w,g,lower,,,,,,,3,w,LoDemNoTar,g,1,0.467414406593889,,,,,,,,,,,,,,,,,,,,330,2023-11-13_14h01.56.083,leap3,2022.2.5,59.91825174179848,
,,,,,,,,,,,,,,,,,,,,12,0,12,0,5,0,5,0,,,,,,cegalia,nw,h,lower,,,,,,,3,nw,LoDemNoTar,h,1,0.6787758679129183,,,,,,,,,,,,,,,,,,,,330,2023-11-13_14h01.56.083,leap3,2022.2.5,59.91825174179848,
,,,,,,,,,,,,,,,,,,,,12,0,12,0,6,0,6,0,,,,,,agony,w,g,lower,,,,,,,3,w,LoDemNoTar,g,1,0.7302202018909156,,,,,,,,,,,,,,,,,,,,330,2023-11-13_14h01.56.083,leap3,2022.2.5,59.91825174179848,
,,,,,,,,,,,,,,,,,,,,12,0,12,0,7,0,7,0,,,,,,reconcile,w,g,lower,,,,,,,3,w,LoDemNoTar,g,1,0.867670388892293,,,,,,,,,,,,,,,,,,,,330,2023-11-13_14h01.56.083,leap3,2022.2.5,59.91825174179848,
,,,,,,,,,,,,,,,,,,,,12,0,12,0,8,0,8,0,,,,,,triangle,w,g,lower,,,,,,,3,w,LoDemNoTar,g,1,0.5914417700842023,,,,,,,,,,,,,,,,,,,,330,2023-11-13_14h01.56.083,leap3,2022.2.5,59.91825174179848,
,,,,,,,,,,,,,,,,,,,,12,0,12,0,9,0,9,0,,,,,,surfaced,w,g,lower,,,,,,,3,w,LoDemNoTar,g,1,0.5749847078695893,,,,,,,,,,,,,,,,,,,,330,2023-11-13_14h01.56.083,leap3,2022.2.5,59.91825174179848,
,,,,,,,,,,,,,,,,,,,,12,0,12,0,10,0,10,0,,,,,,marinate,w,g,lower,,,,,,,3,w,LoDemNoTar,g,1,0.6782137141562998,,,,,,,,,,,,,,,,,,,,330,2023-11-13_14h01.56.083,leap3,2022.2.5,59.91825174179848,
,,,,,,,,,,,,,,,,,,,,12,0,12,0,11,0,11,0,,,,,,clarms,nw,h,lower,,,,,,,3,nw,LoDemNoTar,h,1,0.7606314513832331,,,,,,,,,,,,,,,,,,,,330,2023-11-13_14h01.56.083,leap3,2022.2.5,59.91825174179848,
,,,,,,,,,,,,,,,,,,,,12,0,12,0,12,0,12,0,,,,,,matter,w,g,lower,,,,,,,3,w,LoDemNoTar,g,1,0.6168866674415767,,,,,,,,,,,,,,,,,,,,330,2023-11-13_14h01.56.083,leap3,2022.2.5,59.91825174179848,
,,,,,,,,,,,,,,,,,,,,12,0,12,0,13,0,13,0,,,,,,glates,nw,h,lower,,,,,,,3,nw,LoDemNoTar,h,1,0.654694308526814,,,,,,,,,,,,,,,,,,,,330,2023-11-13_14h01.56.083,leap3,2022.2.5,59.91825174179848,
,,,,,,,,,,,,,,,,,,,,12,0,12,0,14,0,14,0,,,,,,reses,nw,h,lower,,,,,,,3,nw,LoDemNoTar,h,1,0.6747451140545309,,,,,,,,,,,,,,,,,,,,330,2023-11-13_14h01.56.083,leap3,2022.2.5,59.91825174179848,
,,,,,,,,,,,,,,,,,,,,12,0,12,0,15,0,15,0,,,,,,currowing,nw,h,lower,,,,,,,3,nw,LoDemNoTar,h,1,0.8141313870437443,,,,,,,,,,,,,,,,,,,,330,2023-11-13_14h01.56.083,leap3,2022.2.5,59.91825174179848,
,,,,,,,,,,,,,,,,,,,,12,0,12,0,16,0,16,0,,,,,,orange,w,g,lower,,,,,,,3,w,LoDemNoTar,g,1,0.6361531731672585,,,,,,,,,,,,,,,,,,,,330,2023-11-13_14h01.56.083,leap3,2022.2.5,59.91825174179848,
,,,,,,,,,,,,,,,,,,,,12,0,12,0,17,0,17,0,,,,,,statute,w,g,lower,,,,,,,3,w,LoDemNoTar,g,1,0.5928541063331068,,,,,,,,,,,,,,,,,,,,330,2023-11-13_14h01.56.083,leap3,2022.2.5,59.91825174179848,
,,,,,,,,,,,,,,,,,,,,12,0,12,0,18,0,18,0,,,,,,efcorted,nw,h,lower,,,,,,,3,nw,LoDemNoTar,h,1,1.0075747827067971,,,,,,,,,,,,,,,,,,,,330,2023-11-13_14h01.56.083,leap3,2022.2.5,59.91825174179848,
,,,,,,,,,,,,,,,,,,,,12,0,12,0,19,0,19,0,,,,,,beartiset,nw,h,lower,,,,,,,3,nw,LoDemNoTar,h,1,0.9096465073525906,,,,,,,,,,,,,,,,,,,,330,2023-11-13_14h01.56.083,leap3,2022.2.5,59.91825174179848,
,,,,,,,,,,,,,,,,,,,,12,0,12,0,20,0,20,0,,,,,,dusmy,nw,h,lower,,,,,,,3,nw,LoDemNoTar,h,1,0.6147357183508575,,,,,,,,,,,,,,,,,,,,330,2023-11-13_14h01.56.083,leap3,2022.2.5,59.91825174179848,
,,,,,,,,,,,,,,,,,,,,12,0,12,0,21,0,21,0,,,,,,infancy,w,g,lower,,,,,,,3,w,LoDemNoTar,g,1,0.6607041866518557,,,,,,,,,,,,,,,,,,,,330,2023-11-13_14h01.56.083,leap3,2022.2.5,59.91825174179848,
,,,,,,,,,,,,,,,,,,,,12,0,12,0,22,0,22,0,,,,,,fivalve,nw,h,lower,,,,,,,3,nw,LoDemNoTar,h,1,0.6885811104439199,,,,,,,,,,,,,,,,,,,,330,2023-11-13_14h01.56.083,leap3,2022.2.5,59.91825174179848,
,,,,,,,,,,,,,,,,,,,,12,0,12,0,23,0,23,0,,,,,,thrapping,nw,h,lower,,,,,,,3,nw,LoDemNoTar,h,1,0.6755439816042781,,,,,,,,,,,,,,,,,,,,330,2023-11-13_14h01.56.083,leap3,2022.2.5,59.91825174179848,
,,,,,,,,,,,,,,,,,,,,12,0,12,0,24,0,24,0,,,,,,gerby,nw,h,lower,,,,,,,3,nw,LoDemNoTar,h,1,0.7347740428522229,,,,,,,,,,,,,,,,,,,,330,2023-11-13_14h01.56.083,leap3,2022.2.5,59.91825174179848,
,,,,,,,,,,,,,,,,,,,,12,0,12,0,25,0,25,0,,,,,,cartles,nw,h,lower,,,,,,,3,nw,LoDemNoTar,h,1,0.6073893182910979,,,,,,,,,,,,,,,,,,,,330,2023-11-13_14h01.56.083,leap3,2022.2.5,59.91825174179848,
,,,,,,,,,,,,,,,,,,,,12,0,12,0,26,0,26,0,,,,,,saucer,w,g,lower,,,,,,,3,w,LoDemNoTar,g,1,0.9330963888205588,,,,,,,,,,,,,,,,,,,,330,2023-11-13_14h01.56.083,leap3,2022.2.5,59.91825174179848,
,,,,,,,,,,,,,,,,,,,,12,0,12,0,27,0,27,0,,,,,,slears,nw,h,lower,,,,,,,3,nw,LoDemNoTar,h,1,0.7189612393267453,,,,,,,,,,,,,,,,,,,,330,2023-11-13_14h01.56.083,leap3,2022.2.5,59.91825174179848,
,,,,,,,,,,,,,,,,,,,,12,0,12,0,28,0,28,0,,,,,,peems,nw,h,lower,,,,,,,3,nw,LoDemNoTar,h,1,0.7121654055081308,,,,,,,,,,,,,,,,,,,,330,2023-11-13_14h01.56.083,leap3,2022.2.5,59.91825174179848,
,,,,,,,,,,,,,,,,,,,,12,0,12,0,29,0,29,0,,,,,,alber,nw,h,lower,,,,,,,3,nw,LoDemNoTar,h,1,0.7131754942238331,,,,,,,,,,,,,,,,,,,,330,2023-11-13_14h01.56.083,leap3,2022.2.5,59.91825174179848,
,,,,,,,,,,,,,,,,,,,,12,0,12,0,,,,,,,,,,,,,,,,,,,,,,,,,,NA,,,,,,,,,,,,,,,,,,,330,2023-11-13_14h01.56.083,leap3,2022.2.5,59.91825174179848,
,,,,,,,,,,,,,,,,,,,,13,0,13,0,0,0,0,0,,,,,,peahem,nw,h,upper,,,,,,,1,nw,HiDemTar,h,1,0.6680168183520436,,,,,,,,,,,,,,,,,,,,330,2023-11-13_14h01.56.083,leap3,2022.2.5,59.91825174179848,
,,,,,,,,,,,,,,,,,,,,13,0,13,0,1,0,1,0,,,,,,planar,w,g,upper,,,,,,,1,w,HiDemTar,g,1,0.8554629161953926,,,,,,,,,,,,,,,,,,,,330,2023-11-13_14h01.56.083,leap3,2022.2.5,59.91825174179848,
,,,,,,,,,,,,,,,,,,,,13,0,13,0,2,0,2,0,,,,,,otiates,nw,h,upper,,,,,,,1,nw,HiDemTar,h,1,0.7554873158223927,,,,,,,,,,,,,,,,,,,,330,2023-11-13_14h01.56.083,leap3,2022.2.5,59.91825174179848,
,,,,,,,,,,,,,,,,,,,,13,0,13,0,3,0,3,0,,,,,,trocess,nw,h,upper,,,,,,,1,nw,HiDemTar,h,1,0.6996046835556626,,,,,,,,,,,,,,,,,,,,330,2023-11-13_14h01.56.083,leap3,2022.2.5,59.91825174179848,
,,,,,,,,,,,,,,,,,,,,13,0,13,0,4,0,4,0,,,,,,athcan,nw,h,upper,,,,,,,1,nw,HiDemTar,h,1,0.685276388656348,,,,,,,,,,,,,,,,,,,,330,2023-11-13_14h01.56.083,leap3,2022.2.5,59.91825174179848,
,,,,,,,,,,,,,,,,,,,,13,0,13,0,5,0,5,0,,,,,,explosion,w,g,upper,,,,,,,1,w,HiDemTar,g,1,0.7199541125446558,,,,,,,,,,,,,,,,,,,,330,2023-11-13_14h01.56.083,leap3,2022.2.5,59.91825174179848,
,,,,,,,,,,,,,,,,,,,,13,0,13,0,6,0,6,0,,,,,,series,w,g,upper,,,,,,,1,w,HiDemTar,h,0,0.7853523027151823,,,,,,,,,,,,,,,,,,,,330,2023-11-13_14h01.56.083,leap3,2022.2.5,59.91825174179848,
,,,,,,,,,,,,,,,,,,,,13,0,13,0,7,0,7,0,,,,,,emergence,w,g,upper,,,,,,,1,w,HiDemTar,g,1,0.5600346680730581,,,,,,,,,,,,,,,,,,,,330,2023-11-13_14h01.56.083,leap3,2022.2.5,59.91825174179848,
,,,,,,,,,,,,,,,,,,,,13,0,13,0,8,0,8,0,,,,,,tipoff,w,g,upper,,,,,,,1,w,HiDemTar,g,1,1.3281307653523982,,,,,,,,,,,,,,,,,,,,330,2023-11-13_14h01.56.083,leap3,2022.2.5,59.91825174179848,
,,,,,,,,,,,,,,,,,,,,13,0,13,0,9,0,9,0,,,,,,emotion,w,g,upper,,,,,,,1,w,HiDemTar,g,1,0.5054713417775929,,,,,,,,,,,,,,,,,,,,330,2023-11-13_14h01.56.083,leap3,2022.2.5,59.91825174179848,
,,,,,,,,,,,,,,,,,,,,13,0,13,0,10,0,10,0,,,,,,nogwhell,nw,h,upper,,,,,,,1,nw,HiDemTar,h,1,0.6755039221607149,,,,,,,,,,,,,,,,,,,,330,2023-11-13_14h01.56.083,leap3,2022.2.5,59.91825174179848,
,,,,,,,,,,,,,,,,,,,,13,0,13,0,11,0,11,0,,,,,,rodeo,w,g,upper,,,,,,,1,w,HiDemTar,g,1,0.7189102550037205,,,,,,,,,,,,,,,,,,,,330,2023-11-13_14h01.56.083,leap3,2022.2.5,59.91825174179848,
,,,,,,,,,,,,,,,,,,,,13,0,13,0,12,0,12,0,,,,,,aligning,w,g,upper,,,,,,,1,w,HiDemTar,g,1,0.5914245545864105,,,,,,,,,,,,,,,,,,,,330,2023-11-13_14h01.56.083,leap3,2022.2.5,59.91825174179848,
,,,,,,,,,,,,,,,,,,,,13,0,13,0,13,0,13,0,,,,,,omission,w,g,upper,,,,,,,1,w,HiDemTar,g,1,0.5021014004014432,,,,,,,,,,,,,,,,,,,,330,2023-11-13_14h01.56.083,leap3,2022.2.5,59.91825174179848,
,,,,,,,,,,,,,,,,,,,,13,0,13,0,14,0,14,0,,,,,,crundle,nw,h,upper,,,,,,,1,nw,HiDemTar,h,1,0.7533552376553416,,,,,,,,,,,,,,,,,,,,330,2023-11-13_14h01.56.083,leap3,2022.2.5,59.91825174179848,
,,,,,,,,,,,,,,,,,,,,13,0,13,0,15,0,15,0,,,,,,sunshine,w,g,upper,,,,,,,1,w,HiDemTar,g,1,0.553345768712461,,,,,,,,,,,,,,,,,,,,330,2023-11-13_14h01.56.083,leap3,2022.2.5,59.91825174179848,
,,,,,,,,,,,,,,,,,,,,13,0,13,0,16,0,16,0,,,,,,amkles,nw,h,upper,,,,,,,1,nw,HiDemTar,h,1,0.7773401248268783,,,,,,,,,,,,,,,,,,,,330,2023-11-13_14h01.56.083,leap3,2022.2.5,59.91825174179848,
,,,,,,,,,,,,,,,,,,,,13,0,13,0,17,0,17,0,,,,,,undue,w,g,upper,,,,,,,1,w,HiDemTar,g,1,0.7447004565037787,,,,,,,,,,,,,,,,,,,,330,2023-11-13_14h01.56.083,leap3,2022.2.5,59.91825174179848,
,,,,,,,,,,,,,,,,,,,,13,0,13,0,18,0,18,0,,,,,,confined,w,g,upper,,,,,,,1,w,HiDemTar,g,1,0.5210060481913388,,,,,,,,,,,,,,,,,,,,330,2023-11-13_14h01.56.083,leap3,2022.2.5,59.91825174179848,
,,,,,,,,,,,,,,,,,,,,13,0,13,0,19,0,19,0,,,,,,provide,w,g,upper,,,,,,,1,w,HiDemTar,g,1,0.5309288199059665,,,,,,,,,,,,,,,,,,,,330,2023-11-13_14h01.56.083,leap3,2022.2.5,59.91825174179848,
,,,,,,,,,,,,,,,,,,,,13,0,13,0,20,0,20,0,,,,,,amms,nw,h,upper,,,,,,,1,nw,HiDemTar,h,1,0.6602095710113645,,,,,,,,,,,,,,,,,,,,330,2023-11-13_14h01.56.083,leap3,2022.2.5,59.91825174179848,
,,,,,,,,,,,,,,,,,,,,13,0,13,0,21,0,21,0,,,,,,parent,w,g,upper,,,,,,,1,w,HiDemTar,g,1,0.4722205214202404,,,,,,,,,,,,,,,,,,,,330,2023-11-13_14h01.56.083,leap3,2022.2.5,59.91825174179848,
,,,,,,,,,,,,,,,,,,,,13,0,13,0,22,0,22,0,,,,,,snocks,nw,h,upper,,,,,,,1,nw,HiDemTar,h,1,0.6436770260334015,,,,,,,,,,,,,,,,,,,,330,2023-11-13_14h01.56.083,leap3,2022.2.5,59.91825174179848,
,,,,,,,,,,,,,,,,,,,,13,0,13,0,23,0,23,0,,,,,,elbalm,nw,h,upper,,,,,,,1,nw,HiDemTar,h,1,0.5673896758817136,,,,,,,,,,,,,,,,,,,,330,2023-11-13_14h01.56.083,leap3,2022.2.5,59.91825174179848,
,,,,,,,,,,,,,,,,,,,,13,0,13,0,24,0,24,0,,,,,,imprives,nw,h,upper,,,,,,,1,nw,HiDemTar,h,1,0.7587844226509333,,,,,,,,,,,,,,,,,,,,330,2023-11-13_14h01.56.083,leap3,2022.2.5,59.91825174179848,
,,,,,,,,,,,,,,,,,,,,13,0,13,0,25,0,25,0,,,,,,planofoad,nw,h,upper,,,,,,,1,nw,HiDemTar,h,1,0.6388805117458105,,,,,,,,,,,,,,,,,,,,330,2023-11-13_14h01.56.083,leap3,2022.2.5,59.91825174179848,
,,,,,,,,,,,,,,,,,,,,13,0,13,0,26,0,26,0,,,,,,troven,nw,h,upper,,,,,,,1,nw,HiDemTar,h,1,0.5634963158518076,,,,,,,,,,,,,,,,,,,,330,2023-11-13_14h01.56.083,leap3,2022.2.5,59.91825174179848,
,,,,,,,,,,,,,,,,,,,,13,0,13,0,27,0,27,0,,,,,,flamingo,target,q,upper,,,,,,,1,target,HiDemTar,g,0,0.5715465666726232,,,,,,,,,,,,,,,,,,,,330,2023-11-13_14h01.56.083,leap3,2022.2.5,59.91825174179848,
,,,,,,,,,,,,,,,,,,,,13,0,13,0,28,0,28,0,,,,,,equitable,w,g,upper,,,,,,,1,aftertar1,HiDemTar,g,1,0.6029235413298011,,,,,,,,,,,,,,,,,,,,330,2023-11-13_14h01.56.083,leap3,2022.2.5,59.91825174179848,
,,,,,,,,,,,,,,,,,,,,13,0,13,0,29,0,29,0,,,,,,yellep,nw,h,upper,,,,,,,1,aftertar2,HiDemTar,h,1,0.8969642831943929,,,,,,,,,,,,,,,,,,,,330,2023-11-13_14h01.56.083,leap3,2022.2.5,59.91825174179848,
,,,,,,,,,,,,,,,,,,,,13,0,13,0,,,,,,,,,,,,,,,,,,,,,,,,,,0,,,,,,,,,,,,,,,,,,,330,2023-11-13_14h01.56.083,leap3,2022.2.5,59.91825174179848,
,,,,,,,,,,,,,,,,,,,,14,0,14,0,0,0,0,0,,,,,,pexts,nw,h,upper,,,,,,,1,nw,HiDemTar,h,1,0.7315097120590508,,,,,,,,,,,,,,,,,,,,330,2023-11-13_14h01.56.083,leap3,2022.2.5,59.91825174179848,
,,,,,,,,,,,,,,,,,,,,14,0,14,0,1,0,1,0,,,,,,prawls,nw,h,upper,,,,,,,1,nw,HiDemTar,h,1,0.8369108554907143,,,,,,,,,,,,,,,,,,,,330,2023-11-13_14h01.56.083,leap3,2022.2.5,59.91825174179848,
,,,,,,,,,,,,,,,,,,,,14,0,14,0,2,0,2,0,,,,,,season,w,g,upper,,,,,,,1,w,HiDemTar,g,1,0.6815760415047407,,,,,,,,,,,,,,,,,,,,330,2023-11-13_14h01.56.083,leap3,2022.2.5,59.91825174179848,
,,,,,,,,,,,,,,,,,,,,14,0,14,0,3,0,3,0,,,,,,jiggling,w,g,upper,,,,,,,1,w,HiDemTar,g,1,0.7648532306775451,,,,,,,,,,,,,,,,,,,,330,2023-11-13_14h01.56.083,leap3,2022.2.5,59.91825174179848,
,,,,,,,,,,,,,,,,,,,,14,0,14,0,4,0,4,0,,,,,,sequence,w,g,upper,,,,,,,1,w,HiDemTar,g,1,0.5890368917025626,,,,,,,,,,,,,,,,,,,,330,2023-11-13_14h01.56.083,leap3,2022.2.5,59.91825174179848,
,,,,,,,,,,,,,,,,,,,,14,0,14,0,5,0,5,0,,,,,,scack,nw,h,upper,,,,,,,1,nw,HiDemTar,h,1,0.6837200378067791,,,,,,,,,,,,,,,,,,,,330,2023-11-13_14h01.56.083,leap3,2022.2.5,59.91825174179848,
,,,,,,,,,,,,,,,,,,,,14,0,14,0,6,0,6,0,,,,,,decant,w,g,upper,,,,,,,1,w,HiDemTar,g,1,0.6950743482448161,,,,,,,,,,,,,,,,,,,,330,2023-11-13_14h01.56.083,leap3,2022.2.5,59.91825174179848,
,,,,,,,,,,,,,,,,,,,,14,0,14,0,7,0,7,0,,,,,,levels,w,g,upper,,,,,,,1,w,HiDemTar,g,1,1.4008561535738409,,,,,,,,,,,,,,,,,,,,330,2023-11-13_14h01.56.083,leap3,2022.2.5,59.91825174179848,
,,,,,,,,,,,,,,,,,,,,14,0,14,0,8,0,8,0,,,,,,comment,w,g,upper,,,,,,,1,w,HiDemTar,g,1,0.5187984863296151,,,,,,,,,,,,,,,,,,,,330,2023-11-13_14h01.56.083,leap3,2022.2.5,59.91825174179848,
,,,,,,,,,,,,,,,,,,,,14,0,14,0,9,0,9,0,,,,,,fuintets,nw,h,upper,,,,,,,1,nw,HiDemTar,h,1,0.8081529596820474,,,,,,,,,,,,,,,,,,,,330,2023-11-13_14h01.56.083,leap3,2022.2.5,59.91825174179848,
,,,,,,,,,,,,,,,,,,,,14,0,14,0,10,0,10,0,,,,,,spigat,nw,h,upper,,,,,,,1,nw,HiDemTar,h,1,0.6861901367083192,,,,,,,,,,,,,,,,,,,,330,2023-11-13_14h01.56.083,leap3,2022.2.5,59.91825174179848,
,,,,,,,,,,,,,,,,,,,,14,0,14,0,11,0,11,0,,,,,,cemoir,nw,h,upper,,,,,,,1,nw,HiDemTar,h,1,0.6729212603531778,,,,,,,,,,,,,,,,,,,,330,2023-11-13_14h01.56.083,leap3,2022.2.5,59.91825174179848,
,,,,,,,,,,,,,,,,,,,,14,0,14,0,12,0,12,0,,,,,,repayment,w,g,upper,,,,,,,1,w,HiDemTar,g,1,0.7963063516654074,,,,,,,,,,,,,,,,,,,,330,2023-11-13_14h01.56.083,leap3,2022.2.5,59.91825174179848,
,,,,,,,,,,,,,,,,,,,,14,0,14,0,13,0,13,0,,,,,,slending,nw,h,upper,,,,,,,1,nw,HiDemTar,h,1,1.2350443601608276,,,,,,,,,,,,,,,,,,,,330,2023-11-13_14h01.56.083,leap3,2022.2.5,59.91825174179848,
,,,,,,,,,,,,,,,,,,,,14,0,14,0,14,0,14,0,,,,,,bookend,w,g,upper,,,,,,,1,w,HiDemTar,g,1,0.6308435038663447,,,,,,,,,,,,,,,,,,,,330,2023-11-13_14h01.56.083,leap3,2022.2.5,59.91825174179848,
,,,,,,,,,,,,,,,,,,,,14,0,14,0,15,0,15,0,,,,,,warden,w,g,upper,,,,,,,1,w,HiDemTar,g,1,0.7241500690579414,,,,,,,,,,,,,,,,,,,,330,2023-11-13_14h01.56.083,leap3,2022.2.5,59.91825174179848,
,,,,,,,,,,,,,,,,,,,,14,0,14,0,16,0,16,0,,,,,,nollow,nw,h,upper,,,,,,,1,nw,HiDemTar,h,1,0.7575306678190827,,,,,,,,,,,,,,,,,,,,330,2023-11-13_14h01.56.083,leap3,2022.2.5,59.91825174179848,
,,,,,,,,,,,,,,,,,,,,14,0,14,0,17,0,17,0,,,,,,cayward,nw,h,upper,,,,,,,1,nw,HiDemTar,h,1,1.3176657035946846,,,,,,,,,,,,,,,,,,,,330,2023-11-13_14h01.56.083,leap3,2022.2.5,59.91825174179848,
,,,,,,,,,,,,,,,,,,,,14,0,14,0,18,0,18,0,,,,,,sunhess,nw,h,upper,,,,,,,1,nw,HiDemTar,h,1,0.7349700350314379,,,,,,,,,,,,,,,,,,,,330,2023-11-13_14h01.56.083,leap3,2022.2.5,59.91825174179848,
,,,,,,,,,,,,,,,,,,,,14,0,14,0,19,0,19,0,,,,,,hodels,nw,h,upper,,,,,,,1,nw,HiDemTar,h,1,0.7683059400878847,,,,,,,,,,,,,,,,,,,,330,2023-11-13_14h01.56.083,leap3,2022.2.5,59.91825174179848,
,,,,,,,,,,,,,,,,,,,,14,0,14,0,20,0,20,0,,,,,,record,w,g,upper,,,,,,,1,w,HiDemTar,g,1,0.7205467242747545,,,,,,,,,,,,,,,,,,,,330,2023-11-13_14h01.56.083,leap3,2022.2.5,59.91825174179848,
,,,,,,,,,,,,,,,,,,,,14,0,14,0,21,0,21,0,,,,,,refebs,nw,h,upper,,,,,,,1,nw,HiDemTar,h,1,1.1137718139216304,,,,,,,,,,,,,,,,,,,,330,2023-11-13_14h01.56.083,leap3,2022.2.5,59.91825174179848,
,,,,,,,,,,,,,,,,,,,,14,0,14,0,22,0,22,0,,,,,,permeable,w,g,upper,,,,,,,1,w,HiDemTar,g,1,0.9718204257078469,,,,,,,,,,,,,,,,,,,,330,2023-11-13_14h01.56.083,leap3,2022.2.5,59.91825174179848,
,,,,,,,,,,,,,,,,,,,,14,0,14,0,23,0,23,0,,,,,,sporidic,nw,h,upper,,,,,,,1,nw,HiDemTar,h,1,0.7781668021343648,,,,,,,,,,,,,,,,,,,,330,2023-11-13_14h01.56.083,leap3,2022.2.5,59.91825174179848,
,,,,,,,,,,,,,,,,,,,,14,0,14,0,24,0,24,0,,,,,,unmarked,w,g,upper,,,,,,,1,w,HiDemTar,g,1,0.697546764742583,,,,,,,,,,,,,,,,,,,,330,2023-11-13_14h01.56.083,leap3,2022.2.5,59.91825174179848,
,,,,,,,,,,,,,,,,,,,,14,0,14,0,25,0,25,0,,,,,,fallint,nw,h,upper,,,,,,,1,nw,HiDemTar,h,1,0.8203365956433117,,,,,,,,,,,,,,,,,,,,330,2023-11-13_14h01.56.083,leap3,2022.2.5,59.91825174179848,
,,,,,,,,,,,,,,,,,,,,14,0,14,0,26,0,26,0,,,,,,crocodile,target,q,upper,,,,,,,1,target,HiDemTar,g,0,0.5616337265819311,,,,,,,,,,,,,,,,,,,,330,2023-11-13_14h01.56.083,leap3,2022.2.5,59.91825174179848,
,,,,,,,,,,,,,,,,,,,,14,0,14,0,27,0,27,0,,,,,,befriend,w,g,upper,,,,,,,1,aftertar1,HiDemTar,g,1,0.6576855080202222,,,,,,,,,,,,,,,,,,,,330,2023-11-13_14h01.56.083,leap3,2022.2.5,59.91825174179848,
,,,,,,,,,,,,,,,,,,,,14,0,14,0,28,0,28,0,,,,,,treason,w,g,upper,,,,,,,1,aftertar2,HiDemTar,g,1,0.5816957885399461,,,,,,,,,,,,,,,,,,,,330,2023-11-13_14h01.56.083,leap3,2022.2.5,59.91825174179848,
,,,,,,,,,,,,,,,,,,,,14,0,14,0,29,0,29,0,,,,,,except,w,g,upper,,,,,,,1,aftertar3,HiDemTar,g,1,0.4610863719135523,,,,,,,,,,,,,,,,,,,,330,2023-11-13_14h01.56.083,leap3,2022.2.5,59.91825174179848,
,,,,,,,,,,,,,,,,,,,,14,0,14,0,,,,,,,,,,,,,,,,,,,,,,,,,,0,,,,,,,,,,,,,,,,,,,330,2023-11-13_14h01.56.083,leap3,2022.2.5,59.91825174179848,
,,,,,,,,,,,,,,,,,,,,15,0,15,0,0,0,0,0,,,,,,fassed,nw,h,upper,,,,,,,1,nw,HiDemTar,h,1,1.4088560822419822,,,,,,,,,,,,,,,,,,,,330,2023-11-13_14h01.56.083,leap3,2022.2.5,59.91825174179848,
,,,,,,,,,,,,,,,,,,,,15,0,15,0,1,0,1,0,,,,,,located,w,g,upper,,,,,,,1,w,HiDemTar,g,1,0.7106136893853545,,,,,,,,,,,,,,,,,,,,330,2023-11-13_14h01.56.083,leap3,2022.2.5,59.91825174179848,
,,,,,,,,,,,,,,,,,,,,15,0,15,0,2,0,2,0,,,,,,drine,nw,h,upper,,,,,,,1,nw,HiDemTar,h,1,1.0170350521802902,,,,,,,,,,,,,,,,,,,,330,2023-11-13_14h01.56.083,leap3,2022.2.5,59.91825174179848,
,,,,,,,,,,,,,,,,,,,,15,0,15,0,3,0,3,0,,,,,,martial,w,g,upper,,,,,,,1,w,HiDemTar,g,1,0.8070948664098978,,,,,,,,,,,,,,,,,,,,330,2023-11-13_14h01.56.083,leap3,2022.2.5,59.91825174179848,
,,,,,,,,,,,,,,,,,,,,15,0,15,0,4,0,4,0,,,,,,reborn,w,g,upper,,,,,,,1,w,HiDemTar,g,1,0.6610491597093642,,,,,,,,,,,,,,,,,,,,330,2023-11-13_14h01.56.083,leap3,2022.2.5,59.91825174179848,
,,,,,,,,,,,,,,,,,,,,15,0,15,0,5,0,5,0,,,,,,schinter,nw,h,upper,,,,,,,1,nw,HiDemTar,h,1,0.6574726314283907,,,,,,,,,,,,,,,,,,,,330,2023-11-13_14h01.56.083,leap3,2022.2.5,59.91825174179848,
,,,,,,,,,,,,,,,,,,,,15,0,15,0,6,0,6,0,,,,,,divider,w,g,upper,,,,,,,1,w,HiDemTar,g,1,0.6362087926827371,,,,,,,,,,,,,,,,,,,,330,2023-11-13_14h01.56.083,leap3,2022.2.5,59.91825174179848,
,,,,,,,,,,,,,,,,,,,,15,0,15,0,7,0,7,0,,,,,,welayed,nw,h,upper,,,,,,,1,nw,HiDemTar,h,1,0.6409046621993184,,,,,,,,,,,,,,,,,,,,330,2023-11-13_14h01.56.083,leap3,2022.2.5,59.91825174179848,
,,,,,,,,,,,,,,,,,,,,15,0,15,0,8,0,8,0,,,,,,fudden,nw,h,upper,,,,,,,1,nw,HiDemTar,h,1,0.6855952073819935,,,,,,,,,,,,,,,,,,,,330,2023-11-13_14h01.56.083,leap3,2022.2.5,59.91825174179848,
,,,,,,,,,,,,,,,,,,,,15,0,15,0,9,0,9,0,,,,,,snays,nw,h,upper,,,,,,,1,nw,HiDemTar,h,1,0.6323386072181165,,,,,,,,,,,,,,,,,,,,330,2023-11-13_14h01.56.083,leap3,2022.2.5,59.91825174179848,
,,,,,,,,,,,,,,,,,,,,15,0,15,0,10,0,10,0,,,,,,actual,w,g,upper,,,,,,,1,w,HiDemTar,g,1,0.7339099552482367,,,,,,,,,,,,,,,,,,,,330,2023-11-13_14h01.56.083,leap3,2022.2.5,59.91825174179848,
,,,,,,,,,,,,,,,,,,,,15,0,15,0,11,0,11,0,,,,,,ilterfere,nw,h,upper,,,,,,,1,nw,HiDemTar,h,1,0.5904008923098445,,,,,,,,,,,,,,,,,,,,330,2023-11-13_14h01.56.083,leap3,2022.2.5,59.91825174179848,
,,,,,,,,,,,,,,,,,,,,15,0,15,0,12,0,12,0,,,,,,midday,w,g,upper,,,,,,,1,w,HiDemTar,g,1,0.8211248684674501,,,,,,,,,,,,,,,,,,,,330,2023-11-13_14h01.56.083,leap3,2022.2.5,59.91825174179848,
,,,,,,,,,,,,,,,,,,,,15,0,15,0,13,0,13,0,,,,,,religious,w,g,upper,,,,,,,1,w,HiDemTar,g,1,0.5864866748452187,,,,,,,,,,,,,,,,,,,,330,2023-11-13_14h01.56.083,leap3,2022.2.5,59.91825174179848,
,,,,,,,,,,,,,,,,,,,,15,0,15,0,14,0,14,0,,,,,,digar,nw,h,upper,,,,,,,1,nw,HiDemTar,h,1,0.7522223223932087,,,,,,,,,,,,,,,,,,,,330,2023-11-13_14h01.56.083,leap3,2022.2.5,59.91825174179848,
,,,,,,,,,,,,,,,,,,,,15,0,15,0,15,0,15,0,,,,,,potter,w,g,upper,,,,,,,1,w,HiDemTar,g,1,0.6164413811638951,,,,,,,,,,,,,,,,,,,,330,2023-11-13_14h01.56.083,leap3,2022.2.5,59.91825174179848,
,,,,,,,,,,,,,,,,,,,,15,0,15,0,16,0,16,0,,,,,,hutting,nw,h,upper,,,,,,,1,nw,HiDemTar,g,0,0.7345194518566132,,,,,,,,,,,,,,,,,,,,330,2023-11-13_14h01.56.083,leap3,2022.2.5,59.91825174179848,
,,,,,,,,,,,,,,,,,,,,15,0,15,0,17,0,17,0,,,,,,walnut,w,g,upper,,,,,,,1,w,HiDemTar,g,1,0.726992950309068,,,,,,,,,,,,,,,,,,,,330,2023-11-13_14h01.56.083,leap3,2022.2.5,59.91825174179848,
,,,,,,,,,,,,,,,,,,,,15,0,15,0,18,0,18,0,,,,,,aicline,nw,h,upper,,,,,,,1,nw,HiDemTar,h,1,0.824374963529408,,,,,,,,,,,,,,,,,,,,330,2023-11-13_14h01.56.083,leap3,2022.2.5,59.91825174179848,
,,,,,,,,,,,,,,,,,,,,15,0,15,0,19,0,19,0,,,,,,caterpillar,target,q,upper,,,,,,,1,target,HiDemTar,g,0,0.7257534312084317,,,,,,,,,,,,,,,,,,,,330,2023-11-13_14h01.56.083,leap3,2022.2.5,59.91825174179848,
,,,,,,,,,,,,,,,,,,,,15,0,15,0,20,0,20,0,,,,,,ucility,nw,h,upper,,,,,,,1,aftertar1,HiDemTar,g,0,0.5190663202665746,,,,,,,,,,,,,,,,,,,,330,2023-11-13_14h01.56.083,leap3,2022.2.5,59.91825174179848,
,,,,,,,,,,,,,,,,,,,,15,0,15,0,21,0,21,0,,,,,,odacles,nw,h,upper,,,,,,,1,aftertar2,HiDemTar,h,1,1.7365164537914097,,,,,,,,,,,,,,,,,,,,330,2023-11-13_14h01.56.083,leap3,2022.2.5,59.91825174179848,
,,,,,,,,,,,,,,,,,,,,15,0,15,0,22,0,22,0,,,,,,gelented,nw,h,upper,,,,,,,1,aftertar3,HiDemTar,h,1,1.8325894242152572,,,,,,,,,,,,,,,,,,,,330,2023-11-13_14h01.56.083,leap3,2022.2.5,59.91825174179848,
,,,,,,,,,,,,,,,,,,,,15,0,15,0,23,0,23,0,,,,,,phonology,w,g,upper,,,,,,,1,nw,HiDemTar,h,0,1.4775099959224463,,,,,,,,,,,,,,,,,,,,330,2023-11-13_14h01.56.083,leap3,2022.2.5,59.91825174179848,
,,,,,,,,,,,,,,,,,,,,15,0,15,0,24,0,24,0,,,,,,infested,w,g,upper,,,,,,,1,w,HiDemTar,g,1,0.7690240265801549,,,,,,,,,,,,,,,,,,,,330,2023-11-13_14h01.56.083,leap3,2022.2.5,59.91825174179848,
,,,,,,,,,,,,,,,,,,,,15,0,15,0,25,0,25,0,,,,,,probable,w,g,upper,,,,,,,1,w,HiDemTar,g,1,0.9610305870883167,,,,,,,,,,,,,,,,,,,,330,2023-11-13_14h01.56.083,leap3,2022.2.5,59.91825174179848,
,,,,,,,,,,,,,,,,,,,,15,0,15,0,26,0,26,0,,,,,,heaviest,w,g,upper,,,,,,,1,w,HiDemTar,g,1,0.7130480324849486,,,,,,,,,,,,,,,,,,,,330,2023-11-13_14h01.56.083,leap3,2022.2.5,59.91825174179848,
,,,,,,,,,,,,,,,,,,,,15,0,15,0,27,0,27,0,,,,,,gepealed,nw,h,upper,,,,,,,1,w,HiDemTar,h,1,1.2190888659097254,,,,,,,,,,,,,,,,,,,,330,2023-11-13_14h01.56.083,leap3,2022.2.5,59.91825174179848,
,,,,,,,,,,,,,,,,,,,,15,0,15,0,28,0,28,0,,,,,,female,w,g,upper,,,,,,,1,nw,HiDemTar,g,1,0.4804654405452311,,,,,,,,,,,,,,,,,,,,330,2023-11-13_14h01.56.083,leap3,2022.2.5,59.91825174179848,
,,,,,,,,,,,,,,,,,,,,15,0,15,0,29,0,29,0,,,,,,manage,w,g,upper,,,,,,,1,w,HiDemTar,g,1,0.47594437515363097,,,,,,,,,,,,,,,,,,,,330,2023-11-13_14h01.56.083,leap3,2022.2.5,59.91825174179848,
,,,,,,,,,,,,,,,,,,,,15,0,15,0,,,,,,,,,,,,,,,,,,,,,,,,,,0,,,,,,,,,,,,,,,,,,,330,2023-11-13_14h01.56.083,leap3,2022.2.5,59.91825174179848,
,,,,,,,,,,,,,,,,,,,,16,0,16,0,0,0,0,0,,,,,,twarfs,nw,h,upper,,,,,,,1,nw,HiDemTar,h,1,0.6790950172580779,,,,,,,,,,,,,,,,,,,,330,2023-11-13_14h01.56.083,leap3,2022.2.5,59.91825174179848,
,,,,,,,,,,,,,,,,,,,,16,0,16,0,1,0,1,0,,,,,,blipover,nw,h,upper,,,,,,,1,nw,HiDemTar,h,1,0.7224778444506228,,,,,,,,,,,,,,,,,,,,330,2023-11-13_14h01.56.083,leap3,2022.2.5,59.91825174179848,
,,,,,,,,,,,,,,,,,,,,16,0,16,0,2,0,2,0,,,,,,suddenly,w,g,upper,,,,,,,1,w,HiDemTar,g,1,0.659898036159575,,,,,,,,,,,,,,,,,,,,330,2023-11-13_14h01.56.083,leap3,2022.2.5,59.91825174179848,
,,,,,,,,,,,,,,,,,,,,16,0,16,0,3,0,3,0,,,,,,arpired,nw,h,upper,,,,,,,1,nw,HiDemTar,h,1,0.7919081123545766,,,,,,,,,,,,,,,,,,,,330,2023-11-13_14h01.56.083,leap3,2022.2.5,59.91825174179848,
,,,,,,,,,,,,,,,,,,,,16,0,16,0,4,0,4,0,,,,,,micron,w,g,upper,,,,,,,1,w,HiDemTar,h,0,0.7106232903897762,,,,,,,,,,,,,,,,,,,,330,2023-11-13_14h01.56.083,leap3,2022.2.5,59.91825174179848,
