demoRace_loop.thisRepN,demoRace_loop.thisTrialN,demoRace_loop.thisN,demoRace_loop.thisIndex,LDTunderstand.thisRepN,LDTunderstand.thisTrialN,LDTunderstand.thisN,LDTunderstand.thisIndex,pracBlocks.thisRepN,pracBlocks.thisTrialN,pracBlocks.thisN,pracBlocks.thisIndex,pracTrial.thisRepN,pracTrial.thisTrialN,pracTrial.thisN,pracTrial.thisIndex,PMunderstand.thisRepN,PMunderstand.thisTrialN,PMunderstand.thisN,PMunderstand.thisIndex,LDT_block.thisRepN,LDT_block.thisTrialN,LDT_block.thisN,LDT_block.thisIndex,LDT_trial.thisRepN,LDT_trial.thisTrialN,LDT_trial.thisN,LDT_trial.thisIndex,ageTextbox.text,genderTextbox.text,race,raceResp,LDTunderstand,stim,word_type,corr_key,stim_location,LDTpracKey.keys,LDTpracKey.corr,LDTpracKey.rt,PMunderstand,cueTextbox.text,intentionTextbox.text,block_type,role,block_desc,LDTResp.keys,LDTResp.corr,LDTResp.rt,PM_accuracy,pressedQ,postQ1,Q2Textbox.text,Q3Textbox.text,Q4,Q5,Q6Key.keys,Q6Key.rt,postQ7_correct,postQ7,Q8Textbox.text,education,medTextbox.text,health,healthLimit,psych,participant,date,expName,psychopyVersion,frameRate,
0,0,0,0,,,,,,,,,,,,,,,,,,,,,,,,,"
18", female,American Indian or Alaska Native,n,,,,,,,,,,,,,,,,,,,,,,,,,,,,,,,,,,,331,2023-11-16_10h48.17.344,leap3,2022.2.5,59.99239310218387,
1,0,1,0,,,,,,,,,,,,,,,,,,,,,,,,,,,Asian,y,,,,,,,,,,,,,,,,,,,,,,,,,,,,,,,,,,,331,2023-11-16_10h48.17.344,leap3,2022.2.5,59.99239310218387,
2,0,2,0,,,,,,,,,,,,,,,,,,,,,,,,,,,Black or African American,n,,,,,,,,,,,,,,,,,,,,,,,,,,,,,,,,,,,331,2023-11-16_10h48.17.344,leap3,2022.2.5,59.99239310218387,
3,0,3,0,,,,,,,,,,,,,,,,,,,,,,,,,,,Native Hawaiian or other Pacific Islander,n,,,,,,,,,,,,,,,,,,,,,,,,,,,,,,,,,,,331,2023-11-16_10h48.17.344,leap3,2022.2.5,59.99239310218387,
4,0,4,0,,,,,,,,,,,,,,,,,,,,,,,,,,,White,n,,,,,,,,,,,,,,,,,,,,,,,,,,,,,,,,,,,331,2023-11-16_10h48.17.344,leap3,2022.2.5,59.99239310218387,
,,,,0,0,0,0,,,,,,,,,,,,,,,,,,,,,,,,,y,,,,,,,,,,,,,,,,,,,,,,,,,,,,,,,,,,331,2023-11-16_10h48.17.344,leap3,2022.2.5,59.99239310218387,
,,,,,,,,0,0,0,0,0,0,0,0,,,,,,,,,,,,,,,,,,hiring,w,g,lower,g,1,0.5964132593944669,,,,,,,,,,,,,,,,,,,,,,,,,,,331,2023-11-16_10h48.17.344,leap3,2022.2.5,59.99239310218387,
,,,,,,,,0,0,0,0,1,0,1,0,,,,,,,,,,,,,,,,,,summary,w,g,lower,g,1,0.48039972968399525,,,,,,,,,,,,,,,,,,,,,,,,,,,331,2023-11-16_10h48.17.344,leap3,2022.2.5,59.99239310218387,
,,,,,,,,0,0,0,0,2,0,2,0,,,,,,,,,,,,,,,,,,alolition,nw,h,lower,h,1,0.44355384167283773,,,,,,,,,,,,,,,,,,,,,,,,,,,331,2023-11-16_10h48.17.344,leap3,2022.2.5,59.99239310218387,
,,,,,,,,0,0,0,0,3,0,3,0,,,,,,,,,,,,,,,,,,lurshing,nw,h,lower,g,0,0.5048649972304702,,,,,,,,,,,,,,,,,,,,,,,,,,,331,2023-11-16_10h48.17.344,leap3,2022.2.5,59.99239310218387,
,,,,,,,,0,0,0,0,4,0,4,0,,,,,,,,,,,,,,,,,,grocus,nw,h,lower,h,1,0.5546616050414741,,,,,,,,,,,,,,,,,,,,,,,,,,,331,2023-11-16_10h48.17.344,leap3,2022.2.5,59.99239310218387,
,,,,,,,,0,0,0,0,5,0,5,0,,,,,,,,,,,,,,,,,,hasking,nw,h,lower,g,0,0.402948344592005,,,,,,,,,,,,,,,,,,,,,,,,,,,331,2023-11-16_10h48.17.344,leap3,2022.2.5,59.99239310218387,
,,,,,,,,0,0,0,0,6,0,6,0,,,,,,,,,,,,,,,,,,treeps,nw,h,lower,g,0,0.4641896444372833,,,,,,,,,,,,,,,,,,,,,,,,,,,331,2023-11-16_10h48.17.344,leap3,2022.2.5,59.99239310218387,
,,,,,,,,0,0,0,0,7,0,7,0,,,,,,,,,,,,,,,,,,grimace,w,g,lower,h,0,0.3888693447224796,,,,,,,,,,,,,,,,,,,,,,,,,,,331,2023-11-16_10h48.17.344,leap3,2022.2.5,59.99239310218387,
,,,,,,,,0,0,0,0,8,0,8,0,,,,,,,,,,,,,,,,,,revival,w,g,lower,g,1,0.5072632539086044,,,,,,,,,,,,,,,,,,,,,,,,,,,331,2023-11-16_10h48.17.344,leap3,2022.2.5,59.99239310218387,
,,,,,,,,0,0,0,0,9,0,9,0,,,,,,,,,,,,,,,,,,picture,w,g,lower,g,1,0.4855269808322191,,,,,,,,,,,,,,,,,,,,,,,,,,,331,2023-11-16_10h48.17.344,leap3,2022.2.5,59.99239310218387,
,,,,,,,,0,0,0,0,10,0,10,0,,,,,,,,,,,,,,,,,,turative,nw,h,lower,h,1,0.5042283530347049,,,,,,,,,,,,,,,,,,,,,,,,,,,331,2023-11-16_10h48.17.344,leap3,2022.2.5,59.99239310218387,
,,,,,,,,0,0,0,0,11,0,11,0,,,,,,,,,,,,,,,,,,umpire,w,g,lower,h,0,0.5382618182338774,,,,,,,,,,,,,,,,,,,,,,,,,,,331,2023-11-16_10h48.17.344,leap3,2022.2.5,59.99239310218387,
,,,,,,,,0,0,0,0,12,0,12,0,,,,,,,,,,,,,,,,,,slumber,w,g,lower,g,1,0.45126574067398906,,,,,,,,,,,,,,,,,,,,,,,,,,,331,2023-11-16_10h48.17.344,leap3,2022.2.5,59.99239310218387,
,,,,,,,,0,0,0,0,13,0,13,0,,,,,,,,,,,,,,,,,,curlecs,nw,h,lower,h,1,0.47171084862202406,,,,,,,,,,,,,,,,,,,,,,,,,,,331,2023-11-16_10h48.17.344,leap3,2022.2.5,59.99239310218387,
,,,,,,,,0,0,0,0,,,,,,,,,,,,,,,,,,,,,,,,,,,,,,,,,,,,,,,,,,,,,,,,,,,,,,,331,2023-11-16_10h48.17.344,leap3,2022.2.5,59.99239310218387,
,,,,,,,,1,0,1,0,0,0,0,0,,,,,,,,,,,,,,,,,,sponsor,w,g,upper,g,1,0.4829115429893136,,,,,,,,,,,,,,,,,,,,,,,,,,,331,2023-11-16_10h48.17.344,leap3,2022.2.5,59.99239310218387,
,,,,,,,,1,0,1,0,1,0,1,0,,,,,,,,,,,,,,,,,,infinity,w,g,upper,g,1,0.5243741753511131,,,,,,,,,,,,,,,,,,,,,,,,,,,331,2023-11-16_10h48.17.344,leap3,2022.2.5,59.99239310218387,
,,,,,,,,1,0,1,0,2,0,2,0,,,,,,,,,,,,,,,,,,trotch,nw,h,upper,h,1,0.4476193571463227,,,,,,,,,,,,,,,,,,,,,,,,,,,331,2023-11-16_10h48.17.344,leap3,2022.2.5,59.99239310218387,
,,,,,,,,1,0,1,0,3,0,3,0,,,,,,,,,,,,,,,,,,crinklo,nw,h,upper,h,1,0.37136974930763245,,,,,,,,,,,,,,,,,,,,,,,,,,,331,2023-11-16_10h48.17.344,leap3,2022.2.5,59.99239310218387,
,,,,,,,,1,0,1,0,4,0,4,0,,,,,,,,,,,,,,,,,,grutch,nw,h,upper,h,1,0.6667291349731386,,,,,,,,,,,,,,,,,,,,,,,,,,,331,2023-11-16_10h48.17.344,leap3,2022.2.5,59.99239310218387,
,,,,,,,,1,0,1,0,5,0,5,0,,,,,,,,,,,,,,,,,,latador,nw,h,upper,g,0,0.37422421807423234,,,,,,,,,,,,,,,,,,,,,,,,,,,331,2023-11-16_10h48.17.344,leap3,2022.2.5,59.99239310218387,
,,,,,,,,1,0,1,0,6,0,6,0,,,,,,,,,,,,,,,,,,lumbigo,nw,h,upper,h,1,0.5901206494309008,,,,,,,,,,,,,,,,,,,,,,,,,,,331,2023-11-16_10h48.17.344,leap3,2022.2.5,59.99239310218387,
,,,,,,,,1,0,1,0,7,0,7,0,,,,,,,,,,,,,,,,,,overshoot,w,g,upper,g,1,0.44481885293498635,,,,,,,,,,,,,,,,,,,,,,,,,,,331,2023-11-16_10h48.17.344,leap3,2022.2.5,59.99239310218387,
,,,,,,,,1,0,1,0,8,0,8,0,,,,,,,,,,,,,,,,,,unscrew,w,g,upper,g,1,0.5695570195093751,,,,,,,,,,,,,,,,,,,,,,,,,,,331,2023-11-16_10h48.17.344,leap3,2022.2.5,59.99239310218387,
,,,,,,,,1,0,1,0,9,0,9,0,,,,,,,,,,,,,,,,,,tricycle,w,g,upper,h,0,0.46397080831229687,,,,,,,,,,,,,,,,,,,,,,,,,,,331,2023-11-16_10h48.17.344,leap3,2022.2.5,59.99239310218387,
,,,,,,,,1,0,1,0,10,0,10,0,,,,,,,,,,,,,,,,,,julled,nw,h,upper,h,1,0.4518159758299589,,,,,,,,,,,,,,,,,,,,,,,,,,,331,2023-11-16_10h48.17.344,leap3,2022.2.5,59.99239310218387,
,,,,,,,,1,0,1,0,11,0,11,0,,,,,,,,,,,,,,,,,,reputable,w,g,upper,g,1,0.5200524129904807,,,,,,,,,,,,,,,,,,,,,,,,,,,331,2023-11-16_10h48.17.344,leap3,2022.2.5,59.99239310218387,
,,,,,,,,1,0,1,0,12,0,12,0,,,,,,,,,,,,,,,,,,busted,w,g,upper,g,1,0.5854327259585261,,,,,,,,,,,,,,,,,,,,,,,,,,,331,2023-11-16_10h48.17.344,leap3,2022.2.5,59.99239310218387,
,,,,,,,,1,0,1,0,13,0,13,0,,,,,,,,,,,,,,,,,,raestro,nw,h,upper,h,1,0.4401544346474111,,,,,,,,,,,,,,,,,,,,,,,,,,,331,2023-11-16_10h48.17.344,leap3,2022.2.5,59.99239310218387,
,,,,,,,,1,0,1,0,,,,,,,,,,,,,,,,,,,,,,,,,,,,,,,,,,,,,,,,,,,,,,,,,,,,,,,331,2023-11-16_10h48.17.344,leap3,2022.2.5,59.99239310218387,
,,,,,,,,,,,,,,,,0,0,0,0,,,,,,,,,,,,,,,,,,,,,y,,,,,,,,,,,,,,,,,,,,,,,,,,331,2023-11-16_10h48.17.344,leap3,2022.2.5,59.99239310218387,
,,,,,,,,,,,,,,,,,,,,0,0,0,0,0,0,0,0,,,,,,snorls,nw,h,lower,,,,,"animal
",q,1,nw,HiDemTar,q,0,0.723172266036272,,,,,,,,,,,,,,,,,,331,2023-11-16_10h48.17.344,leap3,2022.2.5,59.99239310218387,
,,,,,,,,,,,,,,,,,,,,0,0,0,0,1,0,1,0,,,,,,sweeping,w,g,lower,,,,,,,1,w,HiDemTar,g,1,0.6851322152651846,,,,,,,,,,,,,,,,,,331,2023-11-16_10h48.17.344,leap3,2022.2.5,59.99239310218387,
,,,,,,,,,,,,,,,,,,,,0,0,0,0,2,0,2,0,,,,,,ahead,w,g,lower,,,,,,,1,w,HiDemTar,g,1,0.64051020052284,,,,,,,,,,,,,,,,,,331,2023-11-16_10h48.17.344,leap3,2022.2.5,59.99239310218387,
,,,,,,,,,,,,,,,,,,,,0,0,0,0,3,0,3,0,,,,,,otiates,nw,h,lower,,,,,,,1,nw,HiDemTar,h,1,0.8850138918496668,,,,,,,,,,,,,,,,,,331,2023-11-16_10h48.17.344,leap3,2022.2.5,59.99239310218387,
,,,,,,,,,,,,,,,,,,,,0,0,0,0,4,0,4,0,,,,,,tablet,w,g,lower,,,,,,,1,w,HiDemTar,g,1,0.576342259068042,,,,,,,,,,,,,,,,,,331,2023-11-16_10h48.17.344,leap3,2022.2.5,59.99239310218387,
,,,,,,,,,,,,,,,,,,,,0,0,0,0,5,0,5,0,,,,,,endgume,nw,h,lower,,,,,,,1,nw,HiDemTar,h,1,0.904341644141823,,,,,,,,,,,,,,,,,,331,2023-11-16_10h48.17.344,leap3,2022.2.5,59.99239310218387,
,,,,,,,,,,,,,,,,,,,,0,0,0,0,6,0,6,0,,,,,,tinker,w,g,lower,,,,,,,1,w,HiDemTar,g,1,0.6190308360382915,,,,,,,,,,,,,,,,,,331,2023-11-16_10h48.17.344,leap3,2022.2.5,59.99239310218387,
,,,,,,,,,,,,,,,,,,,,0,0,0,0,7,0,7,0,,,,,,cartles,nw,h,lower,,,,,,,1,nw,HiDemTar,h,1,0.7210997794754803,,,,,,,,,,,,,,,,,,331,2023-11-16_10h48.17.344,leap3,2022.2.5,59.99239310218387,
,,,,,,,,,,,,,,,,,,,,0,0,0,0,8,0,8,0,,,,,,blerapies,nw,h,lower,,,,,,,1,nw,HiDemTar,h,1,0.6909841736778617,,,,,,,,,,,,,,,,,,331,2023-11-16_10h48.17.344,leap3,2022.2.5,59.99239310218387,
,,,,,,,,,,,,,,,,,,,,0,0,0,0,9,0,9,0,,,,,,stooping,w,g,lower,,,,,,,1,w,HiDemTar,g,1,0.6943570952862501,,,,,,,,,,,,,,,,,,331,2023-11-16_10h48.17.344,leap3,2022.2.5,59.99239310218387,
,,,,,,,,,,,,,,,,,,,,0,0,0,0,10,0,10,0,,,,,,oginous,nw,h,lower,,,,,,,1,nw,HiDemTar,h,1,0.5697669163346291,,,,,,,,,,,,,,,,,,331,2023-11-16_10h48.17.344,leap3,2022.2.5,59.99239310218387,
,,,,,,,,,,,,,,,,,,,,0,0,0,0,11,0,11,0,,,,,,perishing,w,g,lower,,,,,,,1,w,HiDemTar,g,1,0.72969033382833,,,,,,,,,,,,,,,,,,331,2023-11-16_10h48.17.344,leap3,2022.2.5,59.99239310218387,
,,,,,,,,,,,,,,,,,,,,0,0,0,0,12,0,12,0,,,,,,tragedy,w,g,lower,,,,,,,1,w,HiDemTar,g,1,0.6112947692163289,,,,,,,,,,,,,,,,,,331,2023-11-16_10h48.17.344,leap3,2022.2.5,59.99239310218387,
,,,,,,,,,,,,,,,,,,,,0,0,0,0,13,0,13,0,,,,,,insertion,w,g,lower,,,,,,,1,w,HiDemTar,g,1,0.5766461794264615,,,,,,,,,,,,,,,,,,331,2023-11-16_10h48.17.344,leap3,2022.2.5,59.99239310218387,
,,,,,,,,,,,,,,,,,,,,0,0,0,0,14,0,14,0,,,,,,expired,w,g,lower,,,,,,,1,w,HiDemTar,g,1,0.567846059333533,,,,,,,,,,,,,,,,,,331,2023-11-16_10h48.17.344,leap3,2022.2.5,59.99239310218387,
,,,,,,,,,,,,,,,,,,,,0,0,0,0,15,0,15,0,,,,,,trewl,nw,h,lower,,,,,,,1,nw,HiDemTar,h,1,0.5615428546443582,,,,,,,,,,,,,,,,,,331,2023-11-16_10h48.17.344,leap3,2022.2.5,59.99239310218387,
,,,,,,,,,,,,,,,,,,,,0,0,0,0,16,0,16,0,,,,,,absent,w,g,lower,,,,,,,1,w,HiDemTar,g,1,0.5543235847726464,,,,,,,,,,,,,,,,,,331,2023-11-16_10h48.17.344,leap3,2022.2.5,59.99239310218387,
,,,,,,,,,,,,,,,,,,,,0,0,0,0,17,0,17,0,,,,,,adok,nw,h,lower,,,,,,,1,nw,HiDemTar,h,1,0.5309236948378384,,,,,,,,,,,,,,,,,,331,2023-11-16_10h48.17.344,leap3,2022.2.5,59.99239310218387,
,,,,,,,,,,,,,,,,,,,,0,0,0,0,18,0,18,0,,,,,,neliefs,nw,h,lower,,,,,,,1,nw,HiDemTar,h,1,0.6531288595870137,,,,,,,,,,,,,,,,,,331,2023-11-16_10h48.17.344,leap3,2022.2.5,59.99239310218387,
,,,,,,,,,,,,,,,,,,,,0,0,0,0,19,0,19,0,,,,,,lonnote,nw,h,lower,,,,,,,1,nw,HiDemTar,h,1,0.5857240655459464,,,,,,,,,,,,,,,,,,331,2023-11-16_10h48.17.344,leap3,2022.2.5,59.99239310218387,
,,,,,,,,,,,,,,,,,,,,0,0,0,0,20,0,20,0,,,,,,inversion,w,g,lower,,,,,,,1,w,HiDemTar,g,1,0.513152954634279,,,,,,,,,,,,,,,,,,331,2023-11-16_10h48.17.344,leap3,2022.2.5,59.99239310218387,
,,,,,,,,,,,,,,,,,,,,0,0,0,0,21,0,21,0,,,,,,affluent,w,g,lower,,,,,,,1,w,HiDemTar,h,0,0.9798264852724969,,,,,,,,,,,,,,,,,,331,2023-11-16_10h48.17.344,leap3,2022.2.5,59.99239310218387,
,,,,,,,,,,,,,,,,,,,,0,0,0,0,22,0,22,0,,,,,,elpired,nw,h,lower,,,,,,,1,nw,HiDemTar,h,1,0.683080917224288,,,,,,,,,,,,,,,,,,331,2023-11-16_10h48.17.344,leap3,2022.2.5,59.99239310218387,
,,,,,,,,,,,,,,,,,,,,0,0,0,0,23,0,23,0,,,,,,create,w,g,lower,,,,,,,1,w,HiDemTar,g,1,0.47090602200478315,,,,,,,,,,,,,,,,,,331,2023-11-16_10h48.17.344,leap3,2022.2.5,59.99239310218387,
,,,,,,,,,,,,,,,,,,,,0,0,0,0,24,0,24,0,,,,,,poars,nw,h,lower,,,,,,,1,nw,HiDemTar,h,1,0.9229413787834346,,,,,,,,,,,,,,,,,,331,2023-11-16_10h48.17.344,leap3,2022.2.5,59.99239310218387,
,,,,,,,,,,,,,,,,,,,,0,0,0,0,25,0,25,0,,,,,,harfing,nw,h,lower,,,,,,,1,nw,HiDemTar,h,1,0.6609887462109327,,,,,,,,,,,,,,,,,,331,2023-11-16_10h48.17.344,leap3,2022.2.5,59.99239310218387,
,,,,,,,,,,,,,,,,,,,,0,0,0,0,26,0,26,0,,,,,,gontracts,nw,h,lower,,,,,,,1,nw,HiDemTar,h,1,0.6180250509642065,,,,,,,,,,,,,,,,,,331,2023-11-16_10h48.17.344,leap3,2022.2.5,59.99239310218387,
,,,,,,,,,,,,,,,,,,,,0,0,0,0,27,0,27,0,,,,,,kangaroo,target,q,lower,,,,,,,1,target,HiDemTar,g,0,0.5357652339152992,,,,,,,,,,,,,,,,,,331,2023-11-16_10h48.17.344,leap3,2022.2.5,59.99239310218387,
,,,,,,,,,,,,,,,,,,,,0,0,0,0,28,0,28,0,,,,,,statute,w,g,lower,,,,,,,1,aftertar1,HiDemTar,h,0,1.0091567975468934,,,,,,,,,,,,,,,,,,331,2023-11-16_10h48.17.344,leap3,2022.2.5,59.99239310218387,
,,,,,,,,,,,,,,,,,,,,0,0,0,0,29,0,29,0,,,,,,twarfs,nw,h,lower,,,,,,,1,aftertar2,HiDemTar,h,1,0.7920642173849046,,,,,,,,,,,,,,,,,,331,2023-11-16_10h48.17.344,leap3,2022.2.5,59.99239310218387,
,,,,,,,,,,,,,,,,,,,,0,0,0,0,,,,,,,,,,,,,,,,,,,,,,,,,,0,,,,,,,,,,,,,,,,,331,2023-11-16_10h48.17.344,leap3,2022.2.5,59.99239310218387,
,,,,,,,,,,,,,,,,,,,,1,0,1,0,0,0,0,0,,,,,,ulcer,w,g,lower,,,,,,,2,w,HiDemNoTar,h,0,0.6543164006434381,,,,,,,,,,,,,,,,,,331,2023-11-16_10h48.17.344,leap3,2022.2.5,59.99239310218387,
,,,,,,,,,,,,,,,,,,,,1,0,1,0,1,0,1,0,,,,,,porghum,nw,h,lower,,,,,,,2,nw,HiDemNoTar,h,1,0.6991883716545999,,,,,,,,,,,,,,,,,,331,2023-11-16_10h48.17.344,leap3,2022.2.5,59.99239310218387,
,,,,,,,,,,,,,,,,,,,,1,0,1,0,2,0,2,0,,,,,,eightiech,nw,h,lower,,,,,,,2,nw,HiDemNoTar,h,1,0.7023096811026335,,,,,,,,,,,,,,,,,,331,2023-11-16_10h48.17.344,leap3,2022.2.5,59.99239310218387,
,,,,,,,,,,,,,,,,,,,,1,0,1,0,3,0,3,0,,,,,,frigs,nw,h,lower,,,,,,,2,nw,HiDemNoTar,h,1,0.8172048632986844,,,,,,,,,,,,,,,,,,331,2023-11-16_10h48.17.344,leap3,2022.2.5,59.99239310218387,
,,,,,,,,,,,,,,,,,,,,1,0,1,0,4,0,4,0,,,,,,deadly,w,g,lower,,,,,,,2,w,HiDemNoTar,g,1,0.5910413493402302,,,,,,,,,,,,,,,,,,331,2023-11-16_10h48.17.344,leap3,2022.2.5,59.99239310218387,
,,,,,,,,,,,,,,,,,,,,1,0,1,0,5,0,5,0,,,,,,fudden,nw,h,lower,,,,,,,2,nw,HiDemNoTar,h,1,0.65434884512797,,,,,,,,,,,,,,,,,,331,2023-11-16_10h48.17.344,leap3,2022.2.5,59.99239310218387,
,,,,,,,,,,,,,,,,,,,,1,0,1,0,6,0,6,0,,,,,,advantage,w,g,lower,,,,,,,2,w,HiDemNoTar,g,1,0.6733071263879538,,,,,,,,,,,,,,,,,,331,2023-11-16_10h48.17.344,leap3,2022.2.5,59.99239310218387,
,,,,,,,,,,,,,,,,,,,,1,0,1,0,7,0,7,0,,,,,,diatonic,w,g,lower,,,,,,,2,w,HiDemNoTar,h,0,0.8862063982523978,,,,,,,,,,,,,,,,,,331,2023-11-16_10h48.17.344,leap3,2022.2.5,59.99239310218387,
,,,,,,,,,,,,,,,,,,,,1,0,1,0,8,0,8,0,,,,,,frogmy,nw,h,lower,,,,,,,2,nw,HiDemNoTar,h,1,0.6095675867982209,,,,,,,,,,,,,,,,,,331,2023-11-16_10h48.17.344,leap3,2022.2.5,59.99239310218387,
,,,,,,,,,,,,,,,,,,,,1,0,1,0,9,0,9,0,,,,,,maunches,nw,h,lower,,,,,,,2,nw,HiDemNoTar,h,1,0.7122526480816305,,,,,,,,,,,,,,,,,,331,2023-11-16_10h48.17.344,leap3,2022.2.5,59.99239310218387,
,,,,,,,,,,,,,,,,,,,,1,0,1,0,10,0,10,0,,,,,,trises,nw,h,lower,,,,,,,2,nw,HiDemNoTar,h,1,0.6509481142275035,,,,,,,,,,,,,,,,,,331,2023-11-16_10h48.17.344,leap3,2022.2.5,59.99239310218387,
,,,,,,,,,,,,,,,,,,,,1,0,1,0,11,0,11,0,,,,,,grieving,w,g,lower,,,,,,,2,w,HiDemNoTar,g,1,0.6157403509132564,,,,,,,,,,,,,,,,,,331,2023-11-16_10h48.17.344,leap3,2022.2.5,59.99239310218387,
,,,,,,,,,,,,,,,,,,,,1,0,1,0,12,0,12,0,,,,,,system,w,g,lower,,,,,,,2,w,HiDemNoTar,g,1,0.5665545626543462,,,,,,,,,,,,,,,,,,331,2023-11-16_10h48.17.344,leap3,2022.2.5,59.99239310218387,
,,,,,,,,,,,,,,,,,,,,1,0,1,0,13,0,13,0,,,,,,divider,w,g,lower,,,,,,,2,w,HiDemNoTar,g,1,0.6390889249742031,,,,,,,,,,,,,,,,,,331,2023-11-16_10h48.17.344,leap3,2022.2.5,59.99239310218387,
,,,,,,,,,,,,,,,,,,,,1,0,1,0,14,0,14,0,,,,,,paying,w,g,lower,,,,,,,2,w,HiDemNoTar,g,1,0.6044698008336127,,,,,,,,,,,,,,,,,,331,2023-11-16_10h48.17.344,leap3,2022.2.5,59.99239310218387,
,,,,,,,,,,,,,,,,,,,,1,0,1,0,15,0,15,0,,,,,,entropy,w,g,lower,,,,,,,2,w,HiDemNoTar,h,0,0.6982084098272026,,,,,,,,,,,,,,,,,,331,2023-11-16_10h48.17.344,leap3,2022.2.5,59.99239310218387,
,,,,,,,,,,,,,,,,,,,,1,0,1,0,16,0,16,0,,,,,,vergas,nw,h,lower,,,,,,,2,nw,HiDemNoTar,h,1,0.6215409943833947,,,,,,,,,,,,,,,,,,331,2023-11-16_10h48.17.344,leap3,2022.2.5,59.99239310218387,
,,,,,,,,,,,,,,,,,,,,1,0,1,0,17,0,17,0,,,,,,sorping,nw,h,lower,,,,,,,2,nw,HiDemNoTar,h,1,0.6035881666466594,,,,,,,,,,,,,,,,,,331,2023-11-16_10h48.17.344,leap3,2022.2.5,59.99239310218387,
,,,,,,,,,,,,,,,,,,,,1,0,1,0,18,0,18,0,,,,,,maiden,w,g,lower,,,,,,,2,w,HiDemNoTar,g,1,0.6423016097396612,,,,,,,,,,,,,,,,,,331,2023-11-16_10h48.17.344,leap3,2022.2.5,59.99239310218387,
,,,,,,,,,,,,,,,,,,,,1,0,1,0,19,0,19,0,,,,,,trooper,w,g,lower,,,,,,,2,w,HiDemNoTar,g,1,0.7118652984499931,,,,,,,,,,,,,,,,,,331,2023-11-16_10h48.17.344,leap3,2022.2.5,59.99239310218387,
,,,,,,,,,,,,,,,,,,,,1,0,1,0,20,0,20,0,,,,,,rocket,w,g,lower,,,,,,,2,w,HiDemNoTar,g,1,0.5863878568634391,,,,,,,,,,,,,,,,,,331,2023-11-16_10h48.17.344,leap3,2022.2.5,59.99239310218387,
,,,,,,,,,,,,,,,,,,,,1,0,1,0,21,0,21,0,,,,,,anonymous,w,g,lower,,,,,,,2,w,HiDemNoTar,g,1,0.7859990503638983,,,,,,,,,,,,,,,,,,331,2023-11-16_10h48.17.344,leap3,2022.2.5,59.99239310218387,
,,,,,,,,,,,,,,,,,,,,1,0,1,0,22,0,22,0,,,,,,dazid,nw,h,lower,,,,,,,2,nw,HiDemNoTar,h,1,0.8139421874657273,,,,,,,,,,,,,,,,,,331,2023-11-16_10h48.17.344,leap3,2022.2.5,59.99239310218387,
,,,,,,,,,,,,,,,,,,,,1,0,1,0,23,0,23,0,,,,,,catgup,nw,h,lower,,,,,,,2,nw,HiDemNoTar,h,1,0.6471338793635368,,,,,,,,,,,,,,,,,,331,2023-11-16_10h48.17.344,leap3,2022.2.5,59.99239310218387,
,,,,,,,,,,,,,,,,,,,,1,0,1,0,24,0,24,0,,,,,,fravity,nw,h,lower,,,,,,,2,nw,HiDemNoTar,h,1,0.7315804013051093,,,,,,,,,,,,,,,,,,331,2023-11-16_10h48.17.344,leap3,2022.2.5,59.99239310218387,
,,,,,,,,,,,,,,,,,,,,1,0,1,0,25,0,25,0,,,,,,pracking,nw,h,lower,,,,,,,2,nw,HiDemNoTar,h,1,0.7175166304223239,,,,,,,,,,,,,,,,,,331,2023-11-16_10h48.17.344,leap3,2022.2.5,59.99239310218387,
,,,,,,,,,,,,,,,,,,,,1,0,1,0,26,0,26,0,,,,,,ralliep,nw,h,lower,,,,,,,2,nw,HiDemNoTar,h,1,0.6956747462972999,,,,,,,,,,,,,,,,,,331,2023-11-16_10h48.17.344,leap3,2022.2.5,59.99239310218387,
,,,,,,,,,,,,,,,,,,,,1,0,1,0,27,0,27,0,,,,,,reprint,w,g,lower,,,,,,,2,w,HiDemNoTar,h,0,0.7147469148039818,,,,,,,,,,,,,,,,,,331,2023-11-16_10h48.17.344,leap3,2022.2.5,59.99239310218387,
,,,,,,,,,,,,,,,,,,,,1,0,1,0,28,0,28,0,,,,,,retain,w,g,lower,,,,,,,2,w,HiDemNoTar,g,1,0.5655186511576176,,,,,,,,,,,,,,,,,,331,2023-11-16_10h48.17.344,leap3,2022.2.5,59.99239310218387,
,,,,,,,,,,,,,,,,,,,,1,0,1,0,29,0,29,0,,,,,,filny,nw,h,lower,,,,,,,2,nw,HiDemNoTar,h,1,0.6701527098193765,,,,,,,,,,,,,,,,,,331,2023-11-16_10h48.17.344,leap3,2022.2.5,59.99239310218387,
,,,,,,,,,,,,,,,,,,,,1,0,1,0,,,,,,,,,,,,,,,,,,,,,,,,,,NA,,,,,,,,,,,,,,,,,331,2023-11-16_10h48.17.344,leap3,2022.2.5,59.99239310218387,
,,,,,,,,,,,,,,,,,,,,2,0,2,0,0,0,0,0,,,,,,thrapping,nw,h,upper,,,,,,,4,nw,LoDemTar,h,1,0.6819672044366598,,,,,,,,,,,,,,,,,,331,2023-11-16_10h48.17.344,leap3,2022.2.5,59.99239310218387,
,,,,,,,,,,,,,,,,,,,,2,0,2,0,1,0,1,0,,,,,,dests,nw,h,upper,,,,,,,4,nw,LoDemTar,h,1,0.742076251655817,,,,,,,,,,,,,,,,,,331,2023-11-16_10h48.17.344,leap3,2022.2.5,59.99239310218387,
,,,,,,,,,,,,,,,,,,,,2,0,2,0,2,0,2,0,,,,,,outflow,w,g,upper,,,,,,,4,w,LoDemTar,g,1,0.5834939908236265,,,,,,,,,,,,,,,,,,331,2023-11-16_10h48.17.344,leap3,2022.2.5,59.99239310218387,
,,,,,,,,,,,,,,,,,,,,2,0,2,0,3,0,3,0,,,,,,cookbook,w,g,upper,,,,,,,4,w,LoDemTar,g,1,0.695412871427834,,,,,,,,,,,,,,,,,,331,2023-11-16_10h48.17.344,leap3,2022.2.5,59.99239310218387,
,,,,,,,,,,,,,,,,,,,,2,0,2,0,4,0,4,0,,,,,,aefated,nw,h,upper,,,,,,,4,nw,LoDemTar,h,1,0.714838289655745,,,,,,,,,,,,,,,,,,331,2023-11-16_10h48.17.344,leap3,2022.2.5,59.99239310218387,
,,,,,,,,,,,,,,,,,,,,2,0,2,0,5,0,5,0,,,,,,hostade,nw,h,upper,,,,,,,4,nw,LoDemTar,h,1,0.8054473125375807,,,,,,,,,,,,,,,,,,331,2023-11-16_10h48.17.344,leap3,2022.2.5,59.99239310218387,
,,,,,,,,,,,,,,,,,,,,2,0,2,0,6,0,6,0,,,,,,rootsie,nw,h,upper,,,,,,,4,nw,LoDemTar,h,1,0.6761562982574105,,,,,,,,,,,,,,,,,,331,2023-11-16_10h48.17.344,leap3,2022.2.5,59.99239310218387,
,,,,,,,,,,,,,,,,,,,,2,0,2,0,7,0,7,0,,,,,,fonducts,nw,h,upper,,,,,,,4,nw,LoDemTar,h,1,0.584176984615624,,,,,,,,,,,,,,,,,,331,2023-11-16_10h48.17.344,leap3,2022.2.5,59.99239310218387,
,,,,,,,,,,,,,,,,,,,,2,0,2,0,8,0,8,0,,,,,,forecast,w,g,upper,,,,,,,4,w,LoDemTar,g,1,0.6395759265869856,,,,,,,,,,,,,,,,,,331,2023-11-16_10h48.17.344,leap3,2022.2.5,59.99239310218387,
,,,,,,,,,,,,,,,,,,,,2,0,2,0,9,0,9,0,,,,,,earnest,w,g,upper,,,,,,,4,w,LoDemTar,g,1,0.6680063954554498,,,,,,,,,,,,,,,,,,331,2023-11-16_10h48.17.344,leap3,2022.2.5,59.99239310218387,
,,,,,,,,,,,,,,,,,,,,2,0,2,0,10,0,10,0,,,,,,stuggard,nw,h,upper,,,,,,,4,nw,LoDemTar,h,1,0.6800499893724918,,,,,,,,,,,,,,,,,,331,2023-11-16_10h48.17.344,leap3,2022.2.5,59.99239310218387,
,,,,,,,,,,,,,,,,,,,,2,0,2,0,11,0,11,0,,,,,,geborn,nw,h,upper,,,,,,,4,nw,LoDemTar,h,1,0.6199919264763594,,,,,,,,,,,,,,,,,,331,2023-11-16_10h48.17.344,leap3,2022.2.5,59.99239310218387,
,,,,,,,,,,,,,,,,,,,,2,0,2,0,12,0,12,0,,,,,,monkey,target,q,upper,,,,,,,4,target,LoDemTar,q,1,0.698223639279604,,1,,,,,,,,,,,,,,,,331,2023-11-16_10h48.17.344,leap3,2022.2.5,59.99239310218387,
,,,,,,,,,,,,,,,,,,,,2,0,2,0,13,0,13,0,,,,,,withep,nw,h,upper,,,,,,,4,aftertar1,LoDemTar,h,1,0.7014528773725033,,,,,,,,,,,,,,,,,,331,2023-11-16_10h48.17.344,leap3,2022.2.5,59.99239310218387,
,,,,,,,,,,,,,,,,,,,,2,0,2,0,14,0,14,0,,,,,,aicline,nw,h,upper,,,,,,,4,aftertar2,LoDemTar,h,1,0.7920738183893263,,,,,,,,,,,,,,,,,,331,2023-11-16_10h48.17.344,leap3,2022.2.5,59.99239310218387,
,,,,,,,,,,,,,,,,,,,,2,0,2,0,15,0,15,0,,,,,,etuip,nw,h,upper,,,,,,,4,aftertar3,LoDemTar,h,1,0.5996703072451055,,,,,,,,,,,,,,,,,,331,2023-11-16_10h48.17.344,leap3,2022.2.5,59.99239310218387,
,,,,,,,,,,,,,,,,,,,,2,0,2,0,16,0,16,0,,,,,,monopoly,w,g,upper,,,,,,,4,nw,LoDemTar,g,1,0.6467650695703924,,,,,,,,,,,,,,,,,,331,2023-11-16_10h48.17.344,leap3,2022.2.5,59.99239310218387,
,,,,,,,,,,,,,,,,,,,,2,0,2,0,17,0,17,0,,,,,,rodeo,w,g,upper,,,,,,,4,w,LoDemTar,g,1,0.6601759740151465,,,,,,,,,,,,,,,,,,331,2023-11-16_10h48.17.344,leap3,2022.2.5,59.99239310218387,
,,,,,,,,,,,,,,,,,,,,2,0,2,0,18,0,18,0,,,,,,agony,w,g,upper,,,,,,,4,w,LoDemTar,g,1,0.7118712575174868,,,,,,,,,,,,,,,,,,331,2023-11-16_10h48.17.344,leap3,2022.2.5,59.99239310218387,
,,,,,,,,,,,,,,,,,,,,2,0,2,0,19,0,19,0,,,,,,tapling,nw,h,upper,,,,,,,4,w,LoDemTar,h,1,0.6424423139542341,,,,,,,,,,,,,,,,,,331,2023-11-16_10h48.17.344,leap3,2022.2.5,59.99239310218387,
,,,,,,,,,,,,,,,,,,,,2,0,2,0,20,0,20,0,,,,,,volition,w,g,upper,,,,,,,4,nw,LoDemTar,h,0,0.8231640881858766,,,,,,,,,,,,,,,,,,331,2023-11-16_10h48.17.344,leap3,2022.2.5,59.99239310218387,
,,,,,,,,,,,,,,,,,,,,2,0,2,0,21,0,21,0,,,,,,surround,w,g,upper,,,,,,,4,w,LoDemTar,g,1,0.613889018073678,,,,,,,,,,,,,,,,,,331,2023-11-16_10h48.17.344,leap3,2022.2.5,59.99239310218387,
,,,,,,,,,,,,,,,,,,,,2,0,2,0,22,0,22,0,,,,,,spaceship,w,g,upper,,,,,,,4,w,LoDemTar,g,1,0.5725806634873152,,,,,,,,,,,,,,,,,,331,2023-11-16_10h48.17.344,leap3,2022.2.5,59.99239310218387,
,,,,,,,,,,,,,,,,,,,,2,0,2,0,23,0,23,0,,,,,,purport,w,g,upper,,,,,,,4,w,LoDemTar,h,0,0.6686297971755266,,,,,,,,,,,,,,,,,,331,2023-11-16_10h48.17.344,leap3,2022.2.5,59.99239310218387,
,,,,,,,,,,,,,,,,,,,,2,0,2,0,24,0,24,0,,,,,,inforl,nw,h,upper,,,,,,,4,w,LoDemTar,h,1,0.601001531817019,,,,,,,,,,,,,,,,,,331,2023-11-16_10h48.17.344,leap3,2022.2.5,59.99239310218387,
,,,,,,,,,,,,,,,,,,,,2,0,2,0,25,0,25,0,,,,,,heaviest,w,g,upper,,,,,,,4,nw,LoDemTar,g,1,0.6158995945006609,,,,,,,,,,,,,,,,,,331,2023-11-16_10h48.17.344,leap3,2022.2.5,59.99239310218387,
,,,,,,,,,,,,,,,,,,,,2,0,2,0,26,0,26,0,,,,,,nearsipe,nw,h,upper,,,,,,,4,w,LoDemTar,h,1,0.6233645169995725,,,,,,,,,,,,,,,,,,331,2023-11-16_10h48.17.344,leap3,2022.2.5,59.99239310218387,
,,,,,,,,,,,,,,,,,,,,2,0,2,0,27,0,27,0,,,,,,yellep,nw,h,upper,,,,,,,4,nw,LoDemTar,h,1,0.5724426084198058,,,,,,,,,,,,,,,,,,331,2023-11-16_10h48.17.344,leap3,2022.2.5,59.99239310218387,
,,,,,,,,,,,,,,,,,,,,2,0,2,0,28,0,28,0,,,,,,module,w,g,upper,,,,,,,4,nw,LoDemTar,g,1,0.620477934833616,,,,,,,,,,,,,,,,,,331,2023-11-16_10h48.17.344,leap3,2022.2.5,59.99239310218387,
,,,,,,,,,,,,,,,,,,,,2,0,2,0,29,0,29,0,,,,,,ignoble,w,g,upper,,,,,,,4,w,LoDemTar,h,0,0.6025423225946724,,,,,,,,,,,,,,,,,,331,2023-11-16_10h48.17.344,leap3,2022.2.5,59.99239310218387,
,,,,,,,,,,,,,,,,,,,,2,0,2,0,,,,,,,,,,,,,,,,,,,,,,,,,,1,,,,,,,,,,,,,,,,,331,2023-11-16_10h48.17.344,leap3,2022.2.5,59.99239310218387,
,,,,,,,,,,,,,,,,,,,,3,0,3,0,0,0,0,0,,,,,,arrival,w,g,upper,,,,,,,3,w,LoDemNoTar,g,1,0.6013859021477401,,,,,,,,,,,,,,,,,,331,2023-11-16_10h48.17.344,leap3,2022.2.5,59.99239310218387,
,,,,,,,,,,,,,,,,,,,,3,0,3,0,1,0,1,0,,,,,,pregs,nw,h,upper,,,,,,,3,nw,LoDemNoTar,h,1,0.6000884459353983,,,,,,,,,,,,,,,,,,331,2023-11-16_10h48.17.344,leap3,2022.2.5,59.99239310218387,
,,,,,,,,,,,,,,,,,,,,3,0,3,0,2,0,2,0,,,,,,noblin,nw,h,upper,,,,,,,3,nw,LoDemNoTar,h,1,0.6224759304895997,,,,,,,,,,,,,,,,,,331,2023-11-16_10h48.17.344,leap3,2022.2.5,59.99239310218387,
,,,,,,,,,,,,,,,,,,,,3,0,3,0,3,0,3,0,,,,,,dominion,w,g,upper,,,,,,,3,w,LoDemNoTar,g,1,0.9327307306230068,,,,,,,,,,,,,,,,,,331,2023-11-16_10h48.17.344,leap3,2022.2.5,59.99239310218387,
,,,,,,,,,,,,,,,,,,,,3,0,3,0,4,0,4,0,,,,,,latpin,nw,h,upper,,,,,,,3,nw,LoDemNoTar,h,1,0.7265544570982456,,,,,,,,,,,,,,,,,,331,2023-11-16_10h48.17.344,leap3,2022.2.5,59.99239310218387,
,,,,,,,,,,,,,,,,,,,,3,0,3,0,5,0,5,0,,,,,,regards,w,g,upper,,,,,,,3,w,LoDemNoTar,g,1,0.5525338309817016,,,,,,,,,,,,,,,,,,331,2023-11-16_10h48.17.344,leap3,2022.2.5,59.99239310218387,
,,,,,,,,,,,,,,,,,,,,3,0,3,0,6,0,6,0,,,,,,sporidic,nw,h,upper,,,,,,,3,nw,LoDemNoTar,h,1,0.5853363848291337,,,,,,,,,,,,,,,,,,331,2023-11-16_10h48.17.344,leap3,2022.2.5,59.99239310218387,
,,,,,,,,,,,,,,,,,,,,3,0,3,0,7,0,7,0,,,,,,atch,nw,h,upper,,,,,,,3,nw,LoDemNoTar,h,1,0.576625322457403,,,,,,,,,,,,,,,,,,331,2023-11-16_10h48.17.344,leap3,2022.2.5,59.99239310218387,
,,,,,,,,,,,,,,,,,,,,3,0,3,0,8,0,8,0,,,,,,decant,w,g,upper,,,,,,,3,w,LoDemNoTar,h,0,0.7047248231247067,,,,,,,,,,,,,,,,,,331,2023-11-16_10h48.17.344,leap3,2022.2.5,59.99239310218387,
,,,,,,,,,,,,,,,,,,,,3,0,3,0,9,0,9,0,,,,,,fission,w,g,upper,,,,,,,3,w,LoDemNoTar,h,0,0.5633859108202159,,,,,,,,,,,,,,,,,,331,2023-11-16_10h48.17.344,leap3,2022.2.5,59.99239310218387,
,,,,,,,,,,,,,,,,,,,,3,0,3,0,10,0,10,0,,,,,,describe,w,g,upper,,,,,,,3,w,LoDemNoTar,g,1,0.5560504356399179,,,,,,,,,,,,,,,,,,331,2023-11-16_10h48.17.344,leap3,2022.2.5,59.99239310218387,
,,,,,,,,,,,,,,,,,,,,3,0,3,0,11,0,11,0,,,,,,optional,w,g,upper,,,,,,,3,w,LoDemNoTar,g,1,0.5557289686985314,,,,,,,,,,,,,,,,,,331,2023-11-16_10h48.17.344,leap3,2022.2.5,59.99239310218387,
,,,,,,,,,,,,,,,,,,,,3,0,3,0,12,0,12,0,,,,,,quittint,nw,h,upper,,,,,,,3,nw,LoDemNoTar,h,1,0.6019940739497542,,,,,,,,,,,,,,,,,,331,2023-11-16_10h48.17.344,leap3,2022.2.5,59.99239310218387,
,,,,,,,,,,,,,,,,,,,,3,0,3,0,13,0,13,0,,,,,,plartly,nw,h,upper,,,,,,,3,nw,LoDemNoTar,h,1,0.7310543339699507,,,,,,,,,,,,,,,,,,331,2023-11-16_10h48.17.344,leap3,2022.2.5,59.99239310218387,
,,,,,,,,,,,,,,,,,,,,3,0,3,0,14,0,14,0,,,,,,company,w,g,upper,,,,,,,3,w,LoDemNoTar,g,1,0.6211049775592983,,,,,,,,,,,,,,,,,,331,2023-11-16_10h48.17.344,leap3,2022.2.5,59.99239310218387,
,,,,,,,,,,,,,,,,,,,,3,0,3,0,15,0,15,0,,,,,,hatred,w,g,upper,,,,,,,3,w,LoDemNoTar,h,0,0.667283674236387,,,,,,,,,,,,,,,,,,331,2023-11-16_10h48.17.344,leap3,2022.2.5,59.99239310218387,
,,,,,,,,,,,,,,,,,,,,3,0,3,0,16,0,16,0,,,,,,neuran,nw,h,upper,,,,,,,3,nw,LoDemNoTar,h,1,0.5911522572860122,,,,,,,,,,,,,,,,,,331,2023-11-16_10h48.17.344,leap3,2022.2.5,59.99239310218387,
,,,,,,,,,,,,,,,,,,,,3,0,3,0,17,0,17,0,,,,,,trembla,nw,h,upper,,,,,,,3,nw,LoDemNoTar,h,1,0.6060857442207634,,,,,,,,,,,,,,,,,,331,2023-11-16_10h48.17.344,leap3,2022.2.5,59.99239310218387,
,,,,,,,,,,,,,,,,,,,,3,0,3,0,18,0,18,0,,,,,,plymie,nw,h,upper,,,,,,,3,nw,LoDemNoTar,h,1,0.5811890955083072,,,,,,,,,,,,,,,,,,331,2023-11-16_10h48.17.344,leap3,2022.2.5,59.99239310218387,
,,,,,,,,,,,,,,,,,,,,3,0,3,0,19,0,19,0,,,,,,finstrel,nw,h,upper,,,,,,,3,nw,LoDemNoTar,h,1,0.4932084218598902,,,,,,,,,,,,,,,,,,331,2023-11-16_10h48.17.344,leap3,2022.2.5,59.99239310218387,
,,,,,,,,,,,,,,,,,,,,3,0,3,0,20,0,20,0,,,,,,presence,w,g,upper,,,,,,,3,w,LoDemNoTar,g,1,0.6086386097595096,,,,,,,,,,,,,,,,,,331,2023-11-16_10h48.17.344,leap3,2022.2.5,59.99239310218387,
,,,,,,,,,,,,,,,,,,,,3,0,3,0,21,0,21,0,,,,,,ounside,nw,h,upper,,,,,,,3,nw,LoDemNoTar,h,1,0.6543733440339565,,,,,,,,,,,,,,,,,,331,2023-11-16_10h48.17.344,leap3,2022.2.5,59.99239310218387,
,,,,,,,,,,,,,,,,,,,,3,0,3,0,22,0,22,0,,,,,,assent,w,g,upper,,,,,,,3,w,LoDemNoTar,h,0,0.595058860257268,,,,,,,,,,,,,,,,,,331,2023-11-16_10h48.17.344,leap3,2022.2.5,59.99239310218387,
,,,,,,,,,,,,,,,,,,,,3,0,3,0,23,0,23,0,,,,,,ergonomic,w,g,upper,,,,,,,3,w,LoDemNoTar,h,0,0.7464096015319228,,,,,,,,,,,,,,,,,,331,2023-11-16_10h48.17.344,leap3,2022.2.5,59.99239310218387,
,,,,,,,,,,,,,,,,,,,,3,0,3,0,24,0,24,0,,,,,,pimorous,nw,h,upper,,,,,,,3,nw,LoDemNoTar,h,1,0.5477591673843563,,,,,,,,,,,,,,,,,,331,2023-11-16_10h48.17.344,leap3,2022.2.5,59.99239310218387,
,,,,,,,,,,,,,,,,,,,,3,0,3,0,25,0,25,0,,,,,,prame,nw,h,upper,,,,,,,3,nw,LoDemNoTar,h,1,0.6050660545006394,,,,,,,,,,,,,,,,,,331,2023-11-16_10h48.17.344,leap3,2022.2.5,59.99239310218387,
,,,,,,,,,,,,,,,,,,,,3,0,3,0,26,0,26,0,,,,,,roughly,w,g,upper,,,,,,,3,w,LoDemNoTar,g,1,0.5717702088877559,,,,,,,,,,,,,,,,,,331,2023-11-16_10h48.17.344,leap3,2022.2.5,59.99239310218387,
,,,,,,,,,,,,,,,,,,,,3,0,3,0,27,0,27,0,,,,,,mosary,nw,h,upper,,,,,,,3,nw,LoDemNoTar,h,1,0.5316980630159378,,,,,,,,,,,,,,,,,,331,2023-11-16_10h48.17.344,leap3,2022.2.5,59.99239310218387,
,,,,,,,,,,,,,,,,,,,,3,0,3,0,28,0,28,0,,,,,,usage,w,g,upper,,,,,,,3,w,LoDemNoTar,g,1,0.5577309373766184,,,,,,,,,,,,,,,,,,331,2023-11-16_10h48.17.344,leap3,2022.2.5,59.99239310218387,
,,,,,,,,,,,,,,,,,,,,3,0,3,0,29,0,29,0,,,,,,maximized,w,g,upper,,,,,,,3,w,LoDemNoTar,g,1,0.5743995513767004,,,,,,,,,,,,,,,,,,331,2023-11-16_10h48.17.344,leap3,2022.2.5,59.99239310218387,
,,,,,,,,,,,,,,,,,,,,3,0,3,0,,,,,,,,,,,,,,,,,,,,,,,,,,NA,,,,,,,,,,,,,,,,,331,2023-11-16_10h48.17.344,leap3,2022.2.5,59.99239310218387,
,,,,,,,,,,,,,,,,,,,,4,0,4,0,0,0,0,0,,,,,,upstairs,w,g,upper,,,,,,,3,w,LoDemNoTar,g,1,0.5813735001720488,,,,,,,,,,,,,,,,,,331,2023-11-16_10h48.17.344,leap3,2022.2.5,59.99239310218387,
,,,,,,,,,,,,,,,,,,,,4,0,4,0,1,0,1,0,,,,,,sefraud,nw,h,upper,,,,,,,3,nw,LoDemNoTar,h,1,0.6614237693138421,,,,,,,,,,,,,,,,,,331,2023-11-16_10h48.17.344,leap3,2022.2.5,59.99239310218387,
,,,,,,,,,,,,,,,,,,,,4,0,4,0,2,0,2,0,,,,,,amms,nw,h,upper,,,,,,,3,nw,LoDemNoTar,h,1,0.5383389568887651,,,,,,,,,,,,,,,,,,331,2023-11-16_10h48.17.344,leap3,2022.2.5,59.99239310218387,
,,,,,,,,,,,,,,,,,,,,4,0,4,0,3,0,3,0,,,,,,podges,nw,h,upper,,,,,,,3,nw,LoDemNoTar,h,1,0.5475009339861572,,,,,,,,,,,,,,,,,,331,2023-11-16_10h48.17.344,leap3,2022.2.5,59.99239310218387,
,,,,,,,,,,,,,,,,,,,,4,0,4,0,4,0,4,0,,,,,,blassed,nw,h,upper,,,,,,,3,nw,LoDemNoTar,h,1,0.6610652231611311,,,,,,,,,,,,,,,,,,331,2023-11-16_10h48.17.344,leap3,2022.2.5,59.99239310218387,
,,,,,,,,,,,,,,,,,,,,4,0,4,0,5,0,5,0,,,,,,distrust,w,g,upper,,,,,,,3,w,LoDemNoTar,g,1,0.6894718552939594,,,,,,,,,,,,,,,,,,331,2023-11-16_10h48.17.344,leap3,2022.2.5,59.99239310218387,
,,,,,,,,,,,,,,,,,,,,4,0,4,0,6,0,6,0,,,,,,boutique,w,g,upper,,,,,,,3,w,LoDemNoTar,g,1,0.6512146242894232,,,,,,,,,,,,,,,,,,331,2023-11-16_10h48.17.344,leap3,2022.2.5,59.99239310218387,
,,,,,,,,,,,,,,,,,,,,4,0,4,0,7,0,7,0,,,,,,cayward,nw,h,upper,,,,,,,3,nw,LoDemNoTar,h,1,0.6717415051534772,,,,,,,,,,,,,,,,,,331,2023-11-16_10h48.17.344,leap3,2022.2.5,59.99239310218387,
,,,,,,,,,,,,,,,,,,,,4,0,4,0,8,0,8,0,,,,,,lecked,nw,h,upper,,,,,,,3,nw,LoDemNoTar,h,1,0.7078279233537614,,,,,,,,,,,,,,,,,,331,2023-11-16_10h48.17.344,leap3,2022.2.5,59.99239310218387,
,,,,,,,,,,,,,,,,,,,,4,0,4,0,9,0,9,0,,,,,,surface,w,g,upper,,,,,,,3,w,LoDemNoTar,g,1,0.5336718908511102,,,,,,,,,,,,,,,,,,331,2023-11-16_10h48.17.344,leap3,2022.2.5,59.99239310218387,
,,,,,,,,,,,,,,,,,,,,4,0,4,0,10,0,10,0,,,,,,mustled,nw,h,upper,,,,,,,3,nw,LoDemNoTar,h,1,0.6006721192970872,,,,,,,,,,,,,,,,,,331,2023-11-16_10h48.17.344,leap3,2022.2.5,59.99239310218387,
,,,,,,,,,,,,,,,,,,,,4,0,4,0,11,0,11,0,,,,,,triplet,w,g,upper,,,,,,,3,w,LoDemNoTar,g,1,0.6479416852816939,,,,,,,,,,,,,,,,,,331,2023-11-16_10h48.17.344,leap3,2022.2.5,59.99239310218387,
,,,,,,,,,,,,,,,,,,,,4,0,4,0,12,0,12,0,,,,,,emotion,w,g,upper,,,,,,,3,w,LoDemNoTar,g,1,0.6374686784110963,,,,,,,,,,,,,,,,,,331,2023-11-16_10h48.17.344,leap3,2022.2.5,59.99239310218387,
,,,,,,,,,,,,,,,,,,,,4,0,4,0,13,0,13,0,,,,,,topefuls,nw,h,upper,,,,,,,3,nw,LoDemNoTar,h,1,0.6586537230759859,,,,,,,,,,,,,,,,,,331,2023-11-16_10h48.17.344,leap3,2022.2.5,59.99239310218387,
,,,,,,,,,,,,,,,,,,,,4,0,4,0,14,0,14,0,,,,,,aqueduct,w,g,upper,,,,,,,3,w,LoDemNoTar,h,0,0.9834285057149827,,,,,,,,,,,,,,,,,,331,2023-11-16_10h48.17.344,leap3,2022.2.5,59.99239310218387,
,,,,,,,,,,,,,,,,,,,,4,0,4,0,15,0,15,0,,,,,,buaint,nw,h,upper,,,,,,,3,nw,LoDemNoTar,h,1,0.6144240237772465,,,,,,,,,,,,,,,,,,331,2023-11-16_10h48.17.344,leap3,2022.2.5,59.99239310218387,
,,,,,,,,,,,,,,,,,,,,4,0,4,0,16,0,16,0,,,,,,cills,nw,h,upper,,,,,,,3,nw,LoDemNoTar,h,1,0.7091280282475054,,,,,,,,,,,,,,,,,,331,2023-11-16_10h48.17.344,leap3,2022.2.5,59.99239310218387,
,,,,,,,,,,,,,,,,,,,,4,0,4,0,17,0,17,0,,,,,,courier,w,g,upper,,,,,,,3,w,LoDemNoTar,h,0,0.672107997816056,,,,,,,,,,,,,,,,,,331,2023-11-16_10h48.17.344,leap3,2022.2.5,59.99239310218387,
,,,,,,,,,,,,,,,,,,,,4,0,4,0,18,0,18,0,,,,,,levels,w,g,upper,,,,,,,3,w,LoDemNoTar,g,1,0.5078502371907234,,,,,,,,,,,,,,,,,,331,2023-11-16_10h48.17.344,leap3,2022.2.5,59.99239310218387,
,,,,,,,,,,,,,,,,,,,,4,0,4,0,19,0,19,0,,,,,,personify,w,g,upper,,,,,,,3,w,LoDemNoTar,h,0,0.6945881810970604,,,,,,,,,,,,,,,,,,331,2023-11-16_10h48.17.344,leap3,2022.2.5,59.99239310218387,
,,,,,,,,,,,,,,,,,,,,4,0,4,0,20,0,20,0,,,,,,dariner,nw,h,upper,,,,,,,3,nw,LoDemNoTar,h,1,0.7220271015539765,,,,,,,,,,,,,,,,,,331,2023-11-16_10h48.17.344,leap3,2022.2.5,59.99239310218387,
,,,,,,,,,,,,,,,,,,,,4,0,4,0,21,0,21,0,,,,,,innocent,w,g,upper,,,,,,,3,w,LoDemNoTar,g,1,0.5640483777970076,,,,,,,,,,,,,,,,,,331,2023-11-16_10h48.17.344,leap3,2022.2.5,59.99239310218387,
,,,,,,,,,,,,,,,,,,,,4,0,4,0,22,0,22,0,,,,,,corg,nw,h,upper,,,,,,,3,nw,LoDemNoTar,h,1,0.6926365350373089,,,,,,,,,,,,,,,,,,331,2023-11-16_10h48.17.344,leap3,2022.2.5,59.99239310218387,
,,,,,,,,,,,,,,,,,,,,4,0,4,0,23,0,23,0,,,,,,markot,nw,h,upper,,,,,,,3,nw,LoDemNoTar,h,1,0.6161048565991223,,,,,,,,,,,,,,,,,,331,2023-11-16_10h48.17.344,leap3,2022.2.5,59.99239310218387,
,,,,,,,,,,,,,,,,,,,,4,0,4,0,24,0,24,0,,,,,,olerates,nw,h,upper,,,,,,,3,nw,LoDemNoTar,h,1,0.7017495138570666,,,,,,,,,,,,,,,,,,331,2023-11-16_10h48.17.344,leap3,2022.2.5,59.99239310218387,
,,,,,,,,,,,,,,,,,,,,4,0,4,0,25,0,25,0,,,,,,phonology,w,g,upper,,,,,,,3,w,LoDemNoTar,g,1,0.9204219509847462,,,,,,,,,,,,,,,,,,331,2023-11-16_10h48.17.344,leap3,2022.2.5,59.99239310218387,
,,,,,,,,,,,,,,,,,,,,4,0,4,0,26,0,26,0,,,,,,parent,w,g,upper,,,,,,,3,w,LoDemNoTar,g,1,0.5144259110093117,,,,,,,,,,,,,,,,,,331,2023-11-16_10h48.17.344,leap3,2022.2.5,59.99239310218387,
,,,,,,,,,,,,,,,,,,,,4,0,4,0,27,0,27,0,,,,,,ignore,w,g,upper,,,,,,,3,w,LoDemNoTar,g,1,0.5731746000237763,,,,,,,,,,,,,,,,,,331,2023-11-16_10h48.17.344,leap3,2022.2.5,59.99239310218387,
,,,,,,,,,,,,,,,,,,,,4,0,4,0,28,0,28,0,,,,,,blueberry,w,g,upper,,,,,,,3,w,LoDemNoTar,g,1,0.8852002825587988,,,,,,,,,,,,,,,,,,331,2023-11-16_10h48.17.344,leap3,2022.2.5,59.99239310218387,
,,,,,,,,,,,,,,,,,,,,4,0,4,0,29,0,29,0,,,,,,troven,nw,h,upper,,,,,,,3,nw,LoDemNoTar,h,1,0.6725751347839832,,,,,,,,,,,,,,,,,,331,2023-11-16_10h48.17.344,leap3,2022.2.5,59.99239310218387,
,,,,,,,,,,,,,,,,,,,,4,0,4,0,,,,,,,,,,,,,,,,,,,,,,,,,,NA,,,,,,,,,,,,,,,,,331,2023-11-16_10h48.17.344,leap3,2022.2.5,59.99239310218387,
,,,,,,,,,,,,,,,,,,,,5,0,5,0,0,0,0,0,,,,,,rasuals,nw,h,lower,,,,,,,1,nw,HiDemTar,h,1,0.7396419085562229,,,,,,,,,,,,,,,,,,331,2023-11-16_10h48.17.344,leap3,2022.2.5,59.99239310218387,
,,,,,,,,,,,,,,,,,,,,5,0,5,0,1,0,1,0,,,,,,facienda,nw,h,lower,,,,,,,1,nw,HiDemTar,h,1,0.5561507493257523,,,,,,,,,,,,,,,,,,331,2023-11-16_10h48.17.344,leap3,2022.2.5,59.99239310218387,
,,,,,,,,,,,,,,,,,,,,5,0,5,0,2,0,2,0,,,,,,acroad,nw,h,lower,,,,,,,1,nw,HiDemTar,h,1,0.5657520540989935,,,,,,,,,,,,,,,,,,331,2023-11-16_10h48.17.344,leap3,2022.2.5,59.99239310218387,
,,,,,,,,,,,,,,,,,,,,5,0,5,0,3,0,3,0,,,,,,pastnoss,nw,h,lower,,,,,,,1,nw,HiDemTar,h,1,0.6543885734863579,,,,,,,,,,,,,,,,,,331,2023-11-16_10h48.17.344,leap3,2022.2.5,59.99239310218387,
,,,,,,,,,,,,,,,,,,,,5,0,5,0,4,0,4,0,,,,,,amaze,w,g,lower,,,,,,,1,w,HiDemTar,g,1,0.5627893256023526,,,,,,,,,,,,,,,,,,331,2023-11-16_10h48.17.344,leap3,2022.2.5,59.99239310218387,
,,,,,,,,,,,,,,,,,,,,5,0,5,0,5,0,5,0,,,,,,detrabe,nw,h,lower,,,,,,,1,nw,HiDemTar,h,1,0.7958632232621312,,,,,,,,,,,,,,,,,,331,2023-11-16_10h48.17.344,leap3,2022.2.5,59.99239310218387,
,,,,,,,,,,,,,,,,,,,,5,0,5,0,6,0,6,0,,,,,,failure,w,g,lower,,,,,,,1,w,HiDemTar,g,1,0.5713100247085094,,,,,,,,,,,,,,,,,,331,2023-11-16_10h48.17.344,leap3,2022.2.5,59.99239310218387,
,,,,,,,,,,,,,,,,,,,,5,0,5,0,7,0,7,0,,,,,,duries,nw,h,lower,,,,,,,1,nw,HiDemTar,h,1,0.6192801301367581,,,,,,,,,,,,,,,,,,331,2023-11-16_10h48.17.344,leap3,2022.2.5,59.99239310218387,
,,,,,,,,,,,,,,,,,,,,5,0,5,0,8,0,8,0,,,,,,decency,w,g,lower,,,,,,,1,w,HiDemTar,g,1,0.649396067019552,,,,,,,,,,,,,,,,,,331,2023-11-16_10h48.17.344,leap3,2022.2.5,59.99239310218387,
,,,,,,,,,,,,,,,,,,,,5,0,5,0,9,0,9,0,,,,,,giraffe,target,q,lower,,,,,,,1,target,HiDemTar,q,1,0.8376638758927584,,1,,,,,,,,,,,,,,,,331,2023-11-16_10h48.17.344,leap3,2022.2.5,59.99239310218387,
,,,,,,,,,,,,,,,,,,,,5,0,5,0,10,0,10,0,,,,,,nostril,w,g,lower,,,,,,,1,aftertar1,HiDemTar,g,1,0.7150402409024537,,,,,,,,,,,,,,,,,,331,2023-11-16_10h48.17.344,leap3,2022.2.5,59.99239310218387,
,,,,,,,,,,,,,,,,,,,,5,0,5,0,11,0,11,0,,,,,,balign,nw,h,lower,,,,,,,1,aftertar2,HiDemTar,h,1,0.9338080259039998,,,,,,,,,,,,,,,,,,331,2023-11-16_10h48.17.344,leap3,2022.2.5,59.99239310218387,
,,,,,,,,,,,,,,,,,,,,5,0,5,0,12,0,12,0,,,,,,flougy,nw,h,lower,,,,,,,1,aftertar3,HiDemTar,h,1,0.6557250949554145,,,,,,,,,,,,,,,,,,331,2023-11-16_10h48.17.344,leap3,2022.2.5,59.99239310218387,
,,,,,,,,,,,,,,,,,,,,5,0,5,0,13,0,13,0,,,,,,boulder,w,g,lower,,,,,,,1,nw,HiDemTar,g,1,0.8764230064116418,,,,,,,,,,,,,,,,,,331,2023-11-16_10h48.17.344,leap3,2022.2.5,59.99239310218387,
,,,,,,,,,,,,,,,,,,,,5,0,5,0,14,0,14,0,,,,,,meteoroid,w,g,lower,,,,,,,1,w,HiDemTar,g,1,0.9854188868775964,,,,,,,,,,,,,,,,,,331,2023-11-16_10h48.17.344,leap3,2022.2.5,59.99239310218387,
,,,,,,,,,,,,,,,,,,,,5,0,5,0,15,0,15,0,,,,,,rainfall,w,g,lower,,,,,,,1,w,HiDemTar,g,1,0.5839326563291252,,,,,,,,,,,,,,,,,,331,2023-11-16_10h48.17.344,leap3,2022.2.5,59.99239310218387,
,,,,,,,,,,,,,,,,,,,,5,0,5,0,16,0,16,0,,,,,,prison,w,g,lower,,,,,,,1,w,HiDemTar,g,1,0.5672749667428434,,,,,,,,,,,,,,,,,,331,2023-11-16_10h48.17.344,leap3,2022.2.5,59.99239310218387,
,,,,,,,,,,,,,,,,,,,,5,0,5,0,17,0,17,0,,,,,,frequency,w,g,lower,,,,,,,1,w,HiDemTar,g,1,0.5912221125327051,,,,,,,,,,,,,,,,,,331,2023-11-16_10h48.17.344,leap3,2022.2.5,59.99239310218387,
,,,,,,,,,,,,,,,,,,,,5,0,5,0,18,0,18,0,,,,,,hustle,w,g,lower,,,,,,,1,w,HiDemTar,g,1,0.5895495568402112,,,,,,,,,,,,,,,,,,331,2023-11-16_10h48.17.344,leap3,2022.2.5,59.99239310218387,
,,,,,,,,,,,,,,,,,,,,5,0,5,0,19,0,19,0,,,,,,intersect,w,g,lower,,,,,,,1,w,HiDemTar,g,1,0.6769253690727055,,,,,,,,,,,,,,,,,,331,2023-11-16_10h48.17.344,leap3,2022.2.5,59.99239310218387,
,,,,,,,,,,,,,,,,,,,,5,0,5,0,20,0,20,0,,,,,,metebing,nw,h,lower,,,,,,,1,w,HiDemTar,h,1,0.6809693654067814,,,,,,,,,,,,,,,,,,331,2023-11-16_10h48.17.344,leap3,2022.2.5,59.99239310218387,
,,,,,,,,,,,,,,,,,,,,5,0,5,0,21,0,21,0,,,,,,cobalt,w,g,lower,,,,,,,1,nw,HiDemTar,g,1,0.7330682212486863,,,,,,,,,,,,,,,,,,331,2023-11-16_10h48.17.344,leap3,2022.2.5,59.99239310218387,
,,,,,,,,,,,,,,,,,,,,5,0,5,0,22,0,22,0,,,,,,rualify,nw,h,lower,,,,,,,1,w,HiDemTar,h,1,0.6309228003956378,,,,,,,,,,,,,,,,,,331,2023-11-16_10h48.17.344,leap3,2022.2.5,59.99239310218387,
,,,,,,,,,,,,,,,,,,,,5,0,5,0,23,0,23,0,,,,,,moyeur,nw,h,lower,,,,,,,1,nw,HiDemTar,h,1,0.5968747683800757,,,,,,,,,,,,,,,,,,331,2023-11-16_10h48.17.344,leap3,2022.2.5,59.99239310218387,
,,,,,,,,,,,,,,,,,,,,5,0,5,0,24,0,24,0,,,,,,buzzer,w,g,lower,,,,,,,1,nw,HiDemTar,g,1,0.6682692640461028,,,,,,,,,,,,,,,,,,331,2023-11-16_10h48.17.344,leap3,2022.2.5,59.99239310218387,
,,,,,,,,,,,,,,,,,,,,5,0,5,0,25,0,25,0,,,,,,remover,w,g,lower,,,,,,,1,w,HiDemTar,g,1,0.6402132324874401,,,,,,,,,,,,,,,,,,331,2023-11-16_10h48.17.344,leap3,2022.2.5,59.99239310218387,
,,,,,,,,,,,,,,,,,,,,5,0,5,0,26,0,26,0,,,,,,eugenifs,nw,h,lower,,,,,,,1,w,HiDemTar,h,1,0.6136470073834062,,,,,,,,,,,,,,,,,,331,2023-11-16_10h48.17.344,leap3,2022.2.5,59.99239310218387,
,,,,,,,,,,,,,,,,,,,,5,0,5,0,27,0,27,0,,,,,,audience,w,g,lower,,,,,,,1,nw,HiDemTar,g,1,0.6265874644741416,,,,,,,,,,,,,,,,,,331,2023-11-16_10h48.17.344,leap3,2022.2.5,59.99239310218387,
,,,,,,,,,,,,,,,,,,,,5,0,5,0,28,0,28,0,,,,,,draze,nw,h,lower,,,,,,,1,w,HiDemTar,g,0,0.5593488668091595,,,,,,,,,,,,,,,,,,331,2023-11-16_10h48.17.344,leap3,2022.2.5,59.99239310218387,
,,,,,,,,,,,,,,,,,,,,5,0,5,0,29,0,29,0,,,,,,doxing,nw,h,lower,,,,,,,1,nw,HiDemTar,h,1,0.7700071390718222,,,,,,,,,,,,,,,,,,331,2023-11-16_10h48.17.344,leap3,2022.2.5,59.99239310218387,
,,,,,,,,,,,,,,,,,,,,5,0,5,0,,,,,,,,,,,,,,,,,,,,,,,,,,1,,,,,,,,,,,,,,,,,331,2023-11-16_10h48.17.344,leap3,2022.2.5,59.99239310218387,
,,,,,,,,,,,,,,,,,,,,6,0,6,0,0,0,0,0,,,,,,slears,nw,h,upper,,,,,,,3,nw,LoDemNoTar,h,1,0.7780491132289171,,,,,,,,,,,,,,,,,,331,2023-11-16_10h48.17.344,leap3,2022.2.5,59.99239310218387,
,,,,,,,,,,,,,,,,,,,,6,0,6,0,1,0,1,0,,,,,,shimble,nw,h,upper,,,,,,,3,nw,LoDemNoTar,h,1,0.7220631875097752,,,,,,,,,,,,,,,,,,331,2023-11-16_10h48.17.344,leap3,2022.2.5,59.99239310218387,
,,,,,,,,,,,,,,,,,,,,6,0,6,0,2,0,2,0,,,,,,supplier,w,g,upper,,,,,,,3,w,LoDemNoTar,g,1,0.6590990093536675,,,,,,,,,,,,,,,,,,331,2023-11-16_10h48.17.344,leap3,2022.2.5,59.99239310218387,
,,,,,,,,,,,,,,,,,,,,6,0,6,0,3,0,3,0,,,,,,dislokes,nw,h,upper,,,,,,,3,nw,LoDemNoTar,h,1,0.6957955863326788,,,,,,,,,,,,,,,,,,331,2023-11-16_10h48.17.344,leap3,2022.2.5,59.99239310218387,
,,,,,,,,,,,,,,,,,,,,6,0,6,0,4,0,4,0,,,,,,minister,w,g,upper,,,,,,,3,w,LoDemNoTar,g,1,0.7150564631447196,,,,,,,,,,,,,,,,,,331,2023-11-16_10h48.17.344,leap3,2022.2.5,59.99239310218387,
,,,,,,,,,,,,,,,,,,,,6,0,6,0,5,0,5,0,,,,,,summon,w,g,upper,,,,,,,3,w,LoDemNoTar,g,1,0.7897500516846776,,,,,,,,,,,,,,,,,,331,2023-11-16_10h48.17.344,leap3,2022.2.5,59.99239310218387,
,,,,,,,,,,,,,,,,,,,,6,0,6,0,6,0,6,0,,,,,,engineer,w,g,upper,,,,,,,3,w,LoDemNoTar,g,1,0.5010676463134587,,,,,,,,,,,,,,,,,,331,2023-11-16_10h48.17.344,leap3,2022.2.5,59.99239310218387,
,,,,,,,,,,,,,,,,,,,,6,0,6,0,7,0,7,0,,,,,,asclibed,nw,h,upper,,,,,,,3,nw,LoDemNoTar,h,1,0.6317792739719152,,,,,,,,,,,,,,,,,,331,2023-11-16_10h48.17.344,leap3,2022.2.5,59.99239310218387,
,,,,,,,,,,,,,,,,,,,,6,0,6,0,8,0,8,0,,,,,,erithets,nw,h,upper,,,,,,,3,nw,LoDemNoTar,h,1,0.6458754893392324,,,,,,,,,,,,,,,,,,331,2023-11-16_10h48.17.344,leap3,2022.2.5,59.99239310218387,
,,,,,,,,,,,,,,,,,,,,6,0,6,0,9,0,9,0,,,,,,figure,w,g,upper,,,,,,,3,w,LoDemNoTar,g,1,0.5392775344662368,,,,,,,,,,,,,,,,,,331,2023-11-16_10h48.17.344,leap3,2022.2.5,59.99239310218387,
,,,,,,,,,,,,,,,,,,,,6,0,6,0,10,0,10,0,,,,,,horks,nw,h,upper,,,,,,,3,nw,LoDemNoTar,h,1,0.6286059864796698,,,,,,,,,,,,,,,,,,331,2023-11-16_10h48.17.344,leap3,2022.2.5,59.99239310218387,
,,,,,,,,,,,,,,,,,,,,6,0,6,0,11,0,11,0,,,,,,marvel,w,g,upper,,,,,,,3,w,LoDemNoTar,g,1,0.4897153228521347,,,,,,,,,,,,,,,,,,331,2023-11-16_10h48.17.344,leap3,2022.2.5,59.99239310218387,
,,,,,,,,,,,,,,,,,,,,6,0,6,0,12,0,12,0,,,,,,tunneg,nw,h,upper,,,,,,,3,nw,LoDemNoTar,h,1,0.508609707467258,,,,,,,,,,,,,,,,,,331,2023-11-16_10h48.17.344,leap3,2022.2.5,59.99239310218387,
,,,,,,,,,,,,,,,,,,,,6,0,6,0,13,0,13,0,,,,,,gradielts,nw,h,upper,,,,,,,3,nw,LoDemNoTar,h,1,0.5515949218533933,,,,,,,,,,,,,,,,,,331,2023-11-16_10h48.17.344,leap3,2022.2.5,59.99239310218387,
,,,,,,,,,,,,,,,,,,,,6,0,6,0,14,0,14,0,,,,,,daining,nw,h,upper,,,,,,,3,nw,LoDemNoTar,g,0,0.4803560287691653,,,,,,,,,,,,,,,,,,331,2023-11-16_10h48.17.344,leap3,2022.2.5,59.99239310218387,
,,,,,,,,,,,,,,,,,,,,6,0,6,0,15,0,15,0,,,,,,afternoon,w,g,upper,,,,,,,3,w,LoDemNoTar,g,1,0.852354358881712,,,,,,,,,,,,,,,,,,331,2023-11-16_10h48.17.344,leap3,2022.2.5,59.99239310218387,
,,,,,,,,,,,,,,,,,,,,6,0,6,0,16,0,16,0,,,,,,lindo,nw,h,upper,,,,,,,3,nw,LoDemNoTar,h,1,0.6571026691235602,,,,,,,,,,,,,,,,,,331,2023-11-16_10h48.17.344,leap3,2022.2.5,59.99239310218387,
,,,,,,,,,,,,,,,,,,,,6,0,6,0,17,0,17,0,,,,,,publish,w,g,upper,,,,,,,3,w,LoDemNoTar,g,1,0.5977944754995406,,,,,,,,,,,,,,,,,,331,2023-11-16_10h48.17.344,leap3,2022.2.5,59.99239310218387,
,,,,,,,,,,,,,,,,,,,,6,0,6,0,18,0,18,0,,,,,,bookend,w,g,upper,,,,,,,3,w,LoDemNoTar,h,0,0.5571350143291056,,,,,,,,,,,,,,,,,,331,2023-11-16_10h48.17.344,leap3,2022.2.5,59.99239310218387,
,,,,,,,,,,,,,,,,,,,,6,0,6,0,19,0,19,0,,,,,,digest,w,g,upper,,,,,,,3,w,LoDemNoTar,g,1,0.5737708532251418,,,,,,,,,,,,,,,,,,331,2023-11-16_10h48.17.344,leap3,2022.2.5,59.99239310218387,
,,,,,,,,,,,,,,,,,,,,6,0,6,0,20,0,20,0,,,,,,border,w,g,upper,,,,,,,3,w,LoDemNoTar,g,1,0.4698658064007759,,,,,,,,,,,,,,,,,,331,2023-11-16_10h48.17.344,leap3,2022.2.5,59.99239310218387,
,,,,,,,,,,,,,,,,,,,,6,0,6,0,21,0,21,0,,,,,,hinsome,nw,h,upper,,,,,,,3,nw,LoDemNoTar,h,1,0.6409316500648856,,,,,,,,,,,,,,,,,,331,2023-11-16_10h48.17.344,leap3,2022.2.5,59.99239310218387,
,,,,,,,,,,,,,,,,,,,,6,0,6,0,22,0,22,0,,,,,,leuter,nw,h,upper,,,,,,,3,nw,LoDemNoTar,h,1,0.5662513044662774,,,,,,,,,,,,,,,,,,331,2023-11-16_10h48.17.344,leap3,2022.2.5,59.99239310218387,
,,,,,,,,,,,,,,,,,,,,6,0,6,0,23,0,23,0,,,,,,lavilion,nw,h,upper,,,,,,,3,nw,LoDemNoTar,h,1,0.5669240346178412,,,,,,,,,,,,,,,,,,331,2023-11-16_10h48.17.344,leap3,2022.2.5,59.99239310218387,
,,,,,,,,,,,,,,,,,,,,6,0,6,0,24,0,24,0,,,,,,orange,w,g,upper,,,,,,,3,w,LoDemNoTar,g,1,0.7515706215053797,,,,,,,,,,,,,,,,,,331,2023-11-16_10h48.17.344,leap3,2022.2.5,59.99239310218387,
,,,,,,,,,,,,,,,,,,,,6,0,6,0,25,0,25,0,,,,,,pariah,w,g,upper,,,,,,,3,w,LoDemNoTar,q,0,0.9123028377071023,,,,,,,,,,,,,,,,,,331,2023-11-16_10h48.17.344,leap3,2022.2.5,59.99239310218387,
,,,,,,,,,,,,,,,,,,,,6,0,6,0,26,0,26,0,,,,,,cogantly,nw,h,upper,,,,,,,3,nw,LoDemNoTar,h,1,0.7543608630076051,,,,,,,,,,,,,,,,,,331,2023-11-16_10h48.17.344,leap3,2022.2.5,59.99239310218387,
,,,,,,,,,,,,,,,,,,,,6,0,6,0,27,0,27,0,,,,,,sunhess,nw,h,upper,,,,,,,3,nw,LoDemNoTar,h,1,0.6270546019077301,,,,,,,,,,,,,,,,,,331,2023-11-16_10h48.17.344,leap3,2022.2.5,59.99239310218387,
,,,,,,,,,,,,,,,,,,,,6,0,6,0,28,0,28,0,,,,,,emergence,w,g,upper,,,,,,,3,w,LoDemNoTar,g,1,0.6970308008603752,,,,,,,,,,,,,,,,,,331,2023-11-16_10h48.17.344,leap3,2022.2.5,59.99239310218387,
,,,,,,,,,,,,,,,,,,,,6,0,6,0,29,0,29,0,,,,,,whirlpool,w,g,upper,,,,,,,3,w,LoDemNoTar,g,1,0.6284066834487021,,,,,,,,,,,,,,,,,,331,2023-11-16_10h48.17.344,leap3,2022.2.5,59.99239310218387,
,,,,,,,,,,,,,,,,,,,,6,0,6,0,,,,,,,,,,,,,,,,,,,,,,,,,,NA,,,,,,,,,,,,,,,,,331,2023-11-16_10h48.17.344,leap3,2022.2.5,59.99239310218387,
,,,,,,,,,,,,,,,,,,,,7,0,7,0,0,0,0,0,,,,,,abhorrent,w,g,lower,,,,,,,1,w,HiDemTar,h,0,0.6739192712120712,,,,,,,,,,,,,,,,,,331,2023-11-16_10h48.17.344,leap3,2022.2.5,59.99239310218387,
,,,,,,,,,,,,,,,,,,,,7,0,7,0,1,0,1,0,,,,,,erony,nw,h,lower,,,,,,,1,nw,HiDemTar,h,1,0.8930469267070293,,,,,,,,,,,,,,,,,,331,2023-11-16_10h48.17.344,leap3,2022.2.5,59.99239310218387,
,,,,,,,,,,,,,,,,,,,,7,0,7,0,2,0,2,0,,,,,,addma,nw,h,lower,,,,,,,1,nw,HiDemTar,h,1,0.592447726521641,,,,,,,,,,,,,,,,,,331,2023-11-16_10h48.17.344,leap3,2022.2.5,59.99239310218387,
,,,,,,,,,,,,,,,,,,,,7,0,7,0,3,0,3,0,,,,,,flicking,w,g,lower,,,,,,,1,w,HiDemTar,g,1,0.8000409710220993,,,,,,,,,,,,,,,,,,331,2023-11-16_10h48.17.344,leap3,2022.2.5,59.99239310218387,
,,,,,,,,,,,,,,,,,,,,7,0,7,0,4,0,4,0,,,,,,brimitive,nw,h,lower,,,,,,,1,nw,HiDemTar,h,1,0.5744088212959468,,,,,,,,,,,,,,,,,,331,2023-11-16_10h48.17.344,leap3,2022.2.5,59.99239310218387,
,,,,,,,,,,,,,,,,,,,,7,0,7,0,5,0,5,0,,,,,,splatter,w,g,lower,,,,,,,1,w,HiDemTar,g,1,0.7893713098019361,,,,,,,,,,,,,,,,,,331,2023-11-16_10h48.17.344,leap3,2022.2.5,59.99239310218387,
,,,,,,,,,,,,,,,,,,,,7,0,7,0,6,0,6,0,,,,,,currowing,nw,h,lower,,,,,,,1,nw,HiDemTar,h,1,0.6041844203136861,,,,,,,,,,,,,,,,,,331,2023-11-16_10h48.17.344,leap3,2022.2.5,59.99239310218387,
,,,,,,,,,,,,,,,,,,,,7,0,7,0,7,0,7,0,,,,,,nollow,nw,h,lower,,,,,,,1,nw,HiDemTar,h,1,0.6426634667441249,,,,,,,,,,,,,,,,,,331,2023-11-16_10h48.17.344,leap3,2022.2.5,59.99239310218387,
,,,,,,,,,,,,,,,,,,,,7,0,7,0,8,0,8,0,,,,,,integral,w,g,lower,,,,,,,1,w,HiDemTar,g,1,0.719340484123677,,,,,,,,,,,,,,,,,,331,2023-11-16_10h48.17.344,leap3,2022.2.5,59.99239310218387,
,,,,,,,,,,,,,,,,,,,,7,0,7,0,9,0,9,0,,,,,,column,w,g,lower,,,,,,,1,w,HiDemTar,g,1,0.5693352036178112,,,,,,,,,,,,,,,,,,331,2023-11-16_10h48.17.344,leap3,2022.2.5,59.99239310218387,
,,,,,,,,,,,,,,,,,,,,7,0,7,0,10,0,10,0,,,,,,lentils,w,g,lower,,,,,,,1,w,HiDemTar,h,0,0.6494900900870562,,,,,,,,,,,,,,,,,,331,2023-11-16_10h48.17.344,leap3,2022.2.5,59.99239310218387,
,,,,,,,,,,,,,,,,,,,,7,0,7,0,11,0,11,0,,,,,,sonnet,w,g,lower,,,,,,,1,w,HiDemTar,g,1,0.9182190238498151,,,,,,,,,,,,,,,,,,331,2023-11-16_10h48.17.344,leap3,2022.2.5,59.99239310218387,
,,,,,,,,,,,,,,,,,,,,7,0,7,0,12,0,12,0,,,,,,befriend,w,g,lower,,,,,,,1,w,HiDemTar,g,1,0.6803446398116648,,,,,,,,,,,,,,,,,,331,2023-11-16_10h48.17.344,leap3,2022.2.5,59.99239310218387,
,,,,,,,,,,,,,,,,,,,,7,0,7,0,13,0,13,0,,,,,,chicken,target,q,lower,,,,,,,1,target,HiDemTar,g,0,0.6762446933425963,,,,,,,,,,,,,,,,,,331,2023-11-16_10h48.17.344,leap3,2022.2.5,59.99239310218387,
,,,,,,,,,,,,,,,,,,,,7,0,7,0,14,0,14,0,,,,,,number,w,g,lower,,,,,,,1,aftertar1,HiDemTar,g,1,0.6071256292052567,,,,,,,,,,,,,,,,,,331,2023-11-16_10h48.17.344,leap3,2022.2.5,59.99239310218387,
,,,,,,,,,,,,,,,,,,,,7,0,7,0,15,0,15,0,,,,,,numbled,nw,h,lower,,,,,,,1,aftertar2,HiDemTar,h,1,1.317337787244469,,,,,,,,,,,,,,,,,,331,2023-11-16_10h48.17.344,leap3,2022.2.5,59.99239310218387,
,,,,,,,,,,,,,,,,,,,,7,0,7,0,16,0,16,0,,,,,,farochial,nw,h,lower,,,,,,,1,aftertar3,HiDemTar,h,1,0.5914399554021657,,,,,,,,,,,,,,,,,,331,2023-11-16_10h48.17.344,leap3,2022.2.5,59.99239310218387,
,,,,,,,,,,,,,,,,,,,,7,0,7,0,17,0,17,0,,,,,,spigat,nw,h,lower,,,,,,,1,nw,HiDemTar,h,1,0.6381606105715036,,,,,,,,,,,,,,,,,,331,2023-11-16_10h48.17.344,leap3,2022.2.5,59.99239310218387,
,,,,,,,,,,,,,,,,,,,,7,0,7,0,18,0,18,0,,,,,,offonents,nw,h,lower,,,,,,,1,nw,HiDemTar,h,1,0.7388314539566636,,,,,,,,,,,,,,,,,,331,2023-11-16_10h48.17.344,leap3,2022.2.5,59.99239310218387,
,,,,,,,,,,,,,,,,,,,,7,0,7,0,19,0,19,0,,,,,,gackpedal,nw,h,lower,,,,,,,1,nw,HiDemTar,h,1,0.7161473329178989,,,,,,,,,,,,,,,,,,331,2023-11-16_10h48.17.344,leap3,2022.2.5,59.99239310218387,
,,,,,,,,,,,,,,,,,,,,7,0,7,0,20,0,20,0,,,,,,walsams,nw,h,lower,,,,,,,1,nw,HiDemTar,h,1,0.6060883924365044,,,,,,,,,,,,,,,,,,331,2023-11-16_10h48.17.344,leap3,2022.2.5,59.99239310218387,
,,,,,,,,,,,,,,,,,,,,7,0,7,0,21,0,21,0,,,,,,relaying,w,g,lower,,,,,,,1,nw,HiDemTar,g,1,0.5961338384076953,,,,,,,,,,,,,,,,,,331,2023-11-16_10h48.17.344,leap3,2022.2.5,59.99239310218387,
,,,,,,,,,,,,,,,,,,,,7,0,7,0,22,0,22,0,,,,,,fictional,w,g,lower,,,,,,,1,w,HiDemTar,g,1,0.5549330813810229,,,,,,,,,,,,,,,,,,331,2023-11-16_10h48.17.344,leap3,2022.2.5,59.99239310218387,
,,,,,,,,,,,,,,,,,,,,7,0,7,0,23,0,23,0,,,,,,neally,nw,h,lower,,,,,,,1,w,HiDemTar,h,1,0.7222181274555624,,,,,,,,,,,,,,,,,,331,2023-11-16_10h48.17.344,leap3,2022.2.5,59.99239310218387,
,,,,,,,,,,,,,,,,,,,,7,0,7,0,24,0,24,0,,,,,,inverted,w,g,lower,,,,,,,1,nw,HiDemTar,g,1,0.6679189936257899,,,,,,,,,,,,,,,,,,331,2023-11-16_10h48.17.344,leap3,2022.2.5,59.99239310218387,
,,,,,,,,,,,,,,,,,,,,7,0,7,0,25,0,25,0,,,,,,command,w,g,lower,,,,,,,1,w,HiDemTar,g,1,0.6799900657497346,,,,,,,,,,,,,,,,,,331,2023-11-16_10h48.17.344,leap3,2022.2.5,59.99239310218387,
,,,,,,,,,,,,,,,,,,,,7,0,7,0,26,0,26,0,,,,,,urgency,w,g,lower,,,,,,,1,w,HiDemTar,g,1,0.6113510504364967,,,,,,,,,,,,,,,,,,331,2023-11-16_10h48.17.344,leap3,2022.2.5,59.99239310218387,
,,,,,,,,,,,,,,,,,,,,7,0,7,0,27,0,27,0,,,,,,ebciting,nw,h,lower,,,,,,,1,w,HiDemTar,h,1,0.9294025027193129,,,,,,,,,,,,,,,,,,331,2023-11-16_10h48.17.344,leap3,2022.2.5,59.99239310218387,
,,,,,,,,,,,,,,,,,,,,7,0,7,0,28,0,28,0,,,,,,treason,w,g,lower,,,,,,,1,nw,HiDemTar,g,1,0.6587272202596068,,,,,,,,,,,,,,,,,,331,2023-11-16_10h48.17.344,leap3,2022.2.5,59.99239310218387,
,,,,,,,,,,,,,,,,,,,,7,0,7,0,29,0,29,0,,,,,,alomalous,nw,h,lower,,,,,,,1,w,HiDemTar,h,1,0.7034167726524174,,,,,,,,,,,,,,,,,,331,2023-11-16_10h48.17.344,leap3,2022.2.5,59.99239310218387,
,,,,,,,,,,,,,,,,,,,,7,0,7,0,,,,,,,,,,,,,,,,,,,,,,,,,,0,,,,,,,,,,,,,,,,,331,2023-11-16_10h48.17.344,leap3,2022.2.5,59.99239310218387,
,,,,,,,,,,,,,,,,,,,,8,0,8,0,0,0,0,0,,,,,,hecture,nw,h,lower,,,,,,,1,nw,HiDemTar,h,1,0.6569550130516291,,,,,,,,,,,,,,,,,,331,2023-11-16_10h48.17.344,leap3,2022.2.5,59.99239310218387,
,,,,,,,,,,,,,,,,,,,,8,0,8,0,1,0,1,0,,,,,,incorrect,w,g,lower,,,,,,,1,w,HiDemTar,g,1,0.5250386283732951,,,,,,,,,,,,,,,,,,331,2023-11-16_10h48.17.344,leap3,2022.2.5,59.99239310218387,
,,,,,,,,,,,,,,,,,,,,8,0,8,0,2,0,2,0,,,,,,sheerio,nw,h,lower,,,,,,,1,nw,HiDemTar,h,1,0.5903553767129779,,,,,,,,,,,,,,,,,,331,2023-11-16_10h48.17.344,leap3,2022.2.5,59.99239310218387,
,,,,,,,,,,,,,,,,,,,,8,0,8,0,3,0,3,0,,,,,,whirling,w,g,lower,,,,,,,1,w,HiDemTar,g,1,0.5170079111121595,,,,,,,,,,,,,,,,,,331,2023-11-16_10h48.17.344,leap3,2022.2.5,59.99239310218387,
,,,,,,,,,,,,,,,,,,,,8,0,8,0,4,0,4,0,,,,,,fards,nw,h,lower,,,,,,,1,nw,HiDemTar,h,1,0.6070802728645504,,,,,,,,,,,,,,,,,,331,2023-11-16_10h48.17.344,leap3,2022.2.5,59.99239310218387,
,,,,,,,,,,,,,,,,,,,,8,0,8,0,5,0,5,0,,,,,,obviously,w,g,lower,,,,,,,1,w,HiDemTar,g,1,0.5412586461752653,,,,,,,,,,,,,,,,,,331,2023-11-16_10h48.17.344,leap3,2022.2.5,59.99239310218387,
,,,,,,,,,,,,,,,,,,,,8,0,8,0,6,0,6,0,,,,,,garment,w,g,lower,,,,,,,1,w,HiDemTar,h,0,0.4784477520734072,,,,,,,,,,,,,,,,,,331,2023-11-16_10h48.17.344,leap3,2022.2.5,59.99239310218387,
,,,,,,,,,,,,,,,,,,,,8,0,8,0,7,0,7,0,,,,,,persona,w,g,lower,,,,,,,1,w,HiDemTar,g,1,0.6968834758736193,,,,,,,,,,,,,,,,,,331,2023-11-16_10h48.17.344,leap3,2022.2.5,59.99239310218387,
,,,,,,,,,,,,,,,,,,,,8,0,8,0,8,0,8,0,,,,,,postal,w,g,lower,,,,,,,1,w,HiDemTar,g,1,0.5075026163831353,,,,,,,,,,,,,,,,,,331,2023-11-16_10h48.17.344,leap3,2022.2.5,59.99239310218387,
,,,,,,,,,,,,,,,,,,,,8,0,8,0,9,0,9,0,,,,,,slowning,nw,h,lower,,,,,,,1,nw,HiDemTar,h,1,0.7496808851137757,,,,,,,,,,,,,,,,,,331,2023-11-16_10h48.17.344,leap3,2022.2.5,59.99239310218387,
,,,,,,,,,,,,,,,,,,,,8,0,8,0,10,0,10,0,,,,,,midday,w,g,lower,,,,,,,1,w,HiDemTar,g,1,0.6863084998913109,,,,,,,,,,,,,,,,,,331,2023-11-16_10h48.17.344,leap3,2022.2.5,59.99239310218387,
,,,,,,,,,,,,,,,,,,,,8,0,8,0,11,0,11,0,,,,,,ganter,nw,h,lower,,,,,,,1,nw,HiDemTar,h,1,0.6409303257241845,,,,,,,,,,,,,,,,,,331,2023-11-16_10h48.17.344,leap3,2022.2.5,59.99239310218387,
,,,,,,,,,,,,,,,,,,,,8,0,8,0,12,0,12,0,,,,,,goblet,w,g,lower,,,,,,,1,w,HiDemTar,h,0,0.9019390833564103,,,,,,,,,,,,,,,,,,331,2023-11-16_10h48.17.344,leap3,2022.2.5,59.99239310218387,
,,,,,,,,,,,,,,,,,,,,8,0,8,0,13,0,13,0,,,,,,scrib,nw,h,lower,,,,,,,1,nw,HiDemTar,h,1,0.5450384500436485,,,,,,,,,,,,,,,,,,331,2023-11-16_10h48.17.344,leap3,2022.2.5,59.99239310218387,
,,,,,,,,,,,,,,,,,,,,8,0,8,0,14,0,14,0,,,,,,century,w,g,lower,,,,,,,1,w,HiDemTar,g,1,0.529786144848913,,,,,,,,,,,,,,,,,,331,2023-11-16_10h48.17.344,leap3,2022.2.5,59.99239310218387,
,,,,,,,,,,,,,,,,,,,,8,0,8,0,15,0,15,0,,,,,,caterpillar,target,q,lower,,,,,,,1,target,HiDemTar,g,0,0.5950770694762468,,,,,,,,,,,,,,,,,,331,2023-11-16_10h48.17.344,leap3,2022.2.5,59.99239310218387,
,,,,,,,,,,,,,,,,,,,,8,0,8,0,16,0,16,0,,,,,,painter,w,g,lower,,,,,,,1,aftertar1,HiDemTar,g,1,0.5618063849397004,,,,,,,,,,,,,,,,,,331,2023-11-16_10h48.17.344,leap3,2022.2.5,59.99239310218387,
,,,,,,,,,,,,,,,,,,,,8,0,8,0,17,0,17,0,,,,,,lasprey,nw,h,lower,,,,,,,1,aftertar2,HiDemTar,h,1,0.8332037273794413,,,,,,,,,,,,,,,,,,331,2023-11-16_10h48.17.344,leap3,2022.2.5,59.99239310218387,
,,,,,,,,,,,,,,,,,,,,8,0,8,0,18,0,18,0,,,,,,triangle,w,g,lower,,,,,,,1,aftertar3,HiDemTar,g,1,0.7102271737530828,,,,,,,,,,,,,,,,,,331,2023-11-16_10h48.17.344,leap3,2022.2.5,59.99239310218387,
,,,,,,,,,,,,,,,,,,,,8,0,8,0,19,0,19,0,,,,,,expounded,w,g,lower,,,,,,,1,w,HiDemTar,h,0,0.8002608004026115,,,,,,,,,,,,,,,,,,331,2023-11-16_10h48.17.344,leap3,2022.2.5,59.99239310218387,
,,,,,,,,,,,,,,,,,,,,8,0,8,0,20,0,20,0,,,,,,flooted,nw,h,lower,,,,,,,1,w,HiDemTar,h,1,0.6869782502762973,,,,,,,,,,,,,,,,,,331,2023-11-16_10h48.17.344,leap3,2022.2.5,59.99239310218387,
,,,,,,,,,,,,,,,,,,,,8,0,8,0,21,0,21,0,,,,,,haurded,nw,h,lower,,,,,,,1,nw,HiDemTar,h,1,0.5616785925813019,,,,,,,,,,,,,,,,,,331,2023-11-16_10h48.17.344,leap3,2022.2.5,59.99239310218387,
,,,,,,,,,,,,,,,,,,,,8,0,8,0,22,0,22,0,,,,,,clypaper,nw,h,lower,,,,,,,1,nw,HiDemTar,h,1,0.7777041406370699,,,,,,,,,,,,,,,,,,331,2023-11-16_10h48.17.344,leap3,2022.2.5,59.99239310218387,
,,,,,,,,,,,,,,,,,,,,8,0,8,0,23,0,23,0,,,,,,landing,w,g,lower,,,,,,,1,nw,HiDemTar,g,1,0.6730578318238258,,,,,,,,,,,,,,,,,,331,2023-11-16_10h48.17.344,leap3,2022.2.5,59.99239310218387,
,,,,,,,,,,,,,,,,,,,,8,0,8,0,24,0,24,0,,,,,,veclors,nw,h,lower,,,,,,,1,w,HiDemTar,h,1,0.5644320859573781,,,,,,,,,,,,,,,,,,331,2023-11-16_10h48.17.344,leap3,2022.2.5,59.99239310218387,
,,,,,,,,,,,,,,,,,,,,8,0,8,0,25,0,25,0,,,,,,unwose,nw,h,lower,,,,,,,1,nw,HiDemTar,h,1,0.5484113711863756,,,,,,,,,,,,,,,,,,331,2023-11-16_10h48.17.344,leap3,2022.2.5,59.99239310218387,
,,,,,,,,,,,,,,,,,,,,8,0,8,0,26,0,26,0,,,,,,scarlet,w,g,lower,,,,,,,1,nw,HiDemTar,g,1,0.9640898276120424,,,,,,,,,,,,,,,,,,331,2023-11-16_10h48.17.344,leap3,2022.2.5,59.99239310218387,
,,,,,,,,,,,,,,,,,,,,8,0,8,0,27,0,27,0,,,,,,prama,nw,h,lower,,,,,,,1,w,HiDemTar,h,1,0.62080999603495,,,,,,,,,,,,,,,,,,331,2023-11-16_10h48.17.344,leap3,2022.2.5,59.99239310218387,
,,,,,,,,,,,,,,,,,,,,8,0,8,0,28,0,28,0,,,,,,gepealed,nw,h,lower,,,,,,,1,nw,HiDemTar,h,1,0.6660984507761896,,,,,,,,,,,,,,,,,,331,2023-11-16_10h48.17.344,leap3,2022.2.5,59.99239310218387,
,,,,,,,,,,,,,,,,,,,,8,0,8,0,29,0,29,0,,,,,,seeming,w,g,lower,,,,,,,1,nw,HiDemTar,g,1,0.8219278804026544,,,,,,,,,,,,,,,,,,331,2023-11-16_10h48.17.344,leap3,2022.2.5,59.99239310218387,
,,,,,,,,,,,,,,,,,,,,8,0,8,0,,,,,,,,,,,,,,,,,,,,,,,,,,0,,,,,,,,,,,,,,,,,331,2023-11-16_10h48.17.344,leap3,2022.2.5,59.99239310218387,
,,,,,,,,,,,,,,,,,,,,9,0,9,0,0,0,0,0,,,,,,tasher,nw,h,upper,,,,,,,3,nw,LoDemNoTar,h,1,0.6588056832551956,,,,,,,,,,,,,,,,,,331,2023-11-16_10h48.17.344,leap3,2022.2.5,59.99239310218387,
,,,,,,,,,,,,,,,,,,,,9,0,9,0,1,0,1,0,,,,,,decantel,nw,h,upper,,,,,,,3,nw,LoDemNoTar,h,1,0.590783778578043,,,,,,,,,,,,,,,,,,331,2023-11-16_10h48.17.344,leap3,2022.2.5,59.99239310218387,
,,,,,,,,,,,,,,,,,,,,9,0,9,0,2,0,2,0,,,,,,student,w,g,upper,,,,,,,3,w,LoDemNoTar,g,1,0.605408709961921,,,,,,,,,,,,,,,,,,331,2023-11-16_10h48.17.344,leap3,2022.2.5,59.99239310218387,
,,,,,,,,,,,,,,,,,,,,9,0,9,0,3,0,3,0,,,,,,hangar,w,g,upper,,,,,,,3,w,LoDemNoTar,h,0,0.7634192160330713,,,,,,,,,,,,,,,,,,331,2023-11-16_10h48.17.344,leap3,2022.2.5,59.99239310218387,
,,,,,,,,,,,,,,,,,,,,9,0,9,0,4,0,4,0,,,,,,harmful,w,g,upper,,,,,,,3,w,LoDemNoTar,g,1,0.5474294237792492,,,,,,,,,,,,,,,,,,331,2023-11-16_10h48.17.344,leap3,2022.2.5,59.99239310218387,
,,,,,,,,,,,,,,,,,,,,9,0,9,0,5,0,5,0,,,,,,manage,w,g,upper,,,,,,,3,w,LoDemNoTar,g,1,0.5162524138577282,,,,,,,,,,,,,,,,,,331,2023-11-16_10h48.17.344,leap3,2022.2.5,59.99239310218387,
,,,,,,,,,,,,,,,,,,,,9,0,9,0,6,0,6,0,,,,,,bingu,nw,h,upper,,,,,,,3,nw,LoDemNoTar,h,1,0.5902229491621256,,,,,,,,,,,,,,,,,,331,2023-11-16_10h48.17.344,leap3,2022.2.5,59.99239310218387,
,,,,,,,,,,,,,,,,,,,,9,0,9,0,7,0,7,0,,,,,,gunrunker,nw,h,upper,,,,,,,3,nw,LoDemNoTar,h,1,0.7409208244644105,,,,,,,,,,,,,,,,,,331,2023-11-16_10h48.17.344,leap3,2022.2.5,59.99239310218387,
,,,,,,,,,,,,,,,,,,,,9,0,9,0,8,0,8,0,,,,,,deserve,w,g,upper,,,,,,,3,w,LoDemNoTar,g,1,0.6056212559342384,,,,,,,,,,,,,,,,,,331,2023-11-16_10h48.17.344,leap3,2022.2.5,59.99239310218387,
,,,,,,,,,,,,,,,,,,,,9,0,9,0,9,0,9,0,,,,,,compose,w,g,upper,,,,,,,3,w,LoDemNoTar,g,1,0.5227112201973796,,,,,,,,,,,,,,,,,,331,2023-11-16_10h48.17.344,leap3,2022.2.5,59.99239310218387,
,,,,,,,,,,,,,,,,,,,,9,0,9,0,10,0,10,0,,,,,,threaded,w,g,upper,,,,,,,3,w,LoDemNoTar,h,0,0.6361242113634944,,,,,,,,,,,,,,,,,,331,2023-11-16_10h48.17.344,leap3,2022.2.5,59.99239310218387,
,,,,,,,,,,,,,,,,,,,,9,0,9,0,11,0,11,0,,,,,,pranny,nw,h,upper,,,,,,,3,nw,LoDemNoTar,h,1,0.6887166891247034,,,,,,,,,,,,,,,,,,331,2023-11-16_10h48.17.344,leap3,2022.2.5,59.99239310218387,
,,,,,,,,,,,,,,,,,,,,9,0,9,0,12,0,12,0,,,,,,armada,w,g,upper,,,,,,,3,w,LoDemNoTar,h,0,0.7313698423095047,,,,,,,,,,,,,,,,,,331,2023-11-16_10h48.17.344,leap3,2022.2.5,59.99239310218387,
,,,,,,,,,,,,,,,,,,,,9,0,9,0,13,0,13,0,,,,,,grested,nw,h,upper,,,,,,,3,nw,LoDemNoTar,h,1,0.6927163223735988,,,,,,,,,,,,,,,,,,331,2023-11-16_10h48.17.344,leap3,2022.2.5,59.99239310218387,
,,,,,,,,,,,,,,,,,,,,9,0,9,0,14,0,14,0,,,,,,chone,nw,h,upper,,,,,,,3,nw,LoDemNoTar,h,1,0.6394385332241654,,,,,,,,,,,,,,,,,,331,2023-11-16_10h48.17.344,leap3,2022.2.5,59.99239310218387,
,,,,,,,,,,,,,,,,,,,,9,0,9,0,15,0,15,0,,,,,,hutting,nw,h,upper,,,,,,,3,nw,LoDemNoTar,h,1,0.476168017834425,,,,,,,,,,,,,,,,,,331,2023-11-16_10h48.17.344,leap3,2022.2.5,59.99239310218387,
,,,,,,,,,,,,,,,,,,,,9,0,9,0,16,0,16,0,,,,,,desert,w,g,upper,,,,,,,3,w,LoDemNoTar,g,1,0.5114234550856054,,,,,,,,,,,,,,,,,,331,2023-11-16_10h48.17.344,leap3,2022.2.5,59.99239310218387,
,,,,,,,,,,,,,,,,,,,,9,0,9,0,17,0,17,0,,,,,,runabouk,nw,h,upper,,,,,,,3,nw,LoDemNoTar,h,1,0.521396217867732,,,,,,,,,,,,,,,,,,331,2023-11-16_10h48.17.344,leap3,2022.2.5,59.99239310218387,
,,,,,,,,,,,,,,,,,,,,9,0,9,0,18,0,18,0,,,,,,nores,nw,h,upper,,,,,,,3,nw,LoDemNoTar,h,1,0.5225758138112724,,,,,,,,,,,,,,,,,,331,2023-11-16_10h48.17.344,leap3,2022.2.5,59.99239310218387,
,,,,,,,,,,,,,,,,,,,,9,0,9,0,19,0,19,0,,,,,,overcoat,w,g,upper,,,,,,,3,w,LoDemNoTar,g,1,0.5959587031975389,,,,,,,,,,,,,,,,,,331,2023-11-16_10h48.17.344,leap3,2022.2.5,59.99239310218387,
,,,,,,,,,,,,,,,,,,,,9,0,9,0,20,0,20,0,,,,,,aggepting,nw,h,upper,,,,,,,3,nw,LoDemNoTar,h,1,0.7537238881923258,,,,,,,,,,,,,,,,,,331,2023-11-16_10h48.17.344,leap3,2022.2.5,59.99239310218387,
,,,,,,,,,,,,,,,,,,,,9,0,9,0,21,0,21,0,,,,,,stalemate,w,g,upper,,,,,,,3,w,LoDemNoTar,h,0,0.7618767698295414,,,,,,,,,,,,,,,,,,331,2023-11-16_10h48.17.344,leap3,2022.2.5,59.99239310218387,
,,,,,,,,,,,,,,,,,,,,9,0,9,0,22,0,22,0,,,,,,nauling,nw,h,upper,,,,,,,3,nw,LoDemNoTar,h,1,0.570344630163163,,,,,,,,,,,,,,,,,,331,2023-11-16_10h48.17.344,leap3,2022.2.5,59.99239310218387,
,,,,,,,,,,,,,,,,,,,,9,0,9,0,23,0,23,0,,,,,,germeated,nw,h,upper,,,,,,,3,nw,LoDemNoTar,h,1,0.5857869684696198,,,,,,,,,,,,,,,,,,331,2023-11-16_10h48.17.344,leap3,2022.2.5,59.99239310218387,
,,,,,,,,,,,,,,,,,,,,9,0,9,0,24,0,24,0,,,,,,gablus,nw,h,upper,,,,,,,3,nw,LoDemNoTar,h,1,0.5930757629685104,,,,,,,,,,,,,,,,,,331,2023-11-16_10h48.17.344,leap3,2022.2.5,59.99239310218387,
,,,,,,,,,,,,,,,,,,,,9,0,9,0,25,0,25,0,,,,,,afford,w,g,upper,,,,,,,3,w,LoDemNoTar,g,1,0.6878095623105764,,,,,,,,,,,,,,,,,,331,2023-11-16_10h48.17.344,leap3,2022.2.5,59.99239310218387,
,,,,,,,,,,,,,,,,,,,,9,0,9,0,26,0,26,0,,,,,,emission,w,g,upper,,,,,,,3,w,LoDemNoTar,g,1,0.5226056100800633,,,,,,,,,,,,,,,,,,331,2023-11-16_10h48.17.344,leap3,2022.2.5,59.99239310218387,
,,,,,,,,,,,,,,,,,,,,9,0,9,0,27,0,27,0,,,,,,handle,w,g,upper,,,,,,,3,w,LoDemNoTar,g,1,0.5078972494229674,,,,,,,,,,,,,,,,,,331,2023-11-16_10h48.17.344,leap3,2022.2.5,59.99239310218387,
,,,,,,,,,,,,,,,,,,,,9,0,9,0,28,0,28,0,,,,,,erlighten,nw,h,upper,,,,,,,3,nw,LoDemNoTar,h,1,0.6060324423015118,,,,,,,,,,,,,,,,,,331,2023-11-16_10h48.17.344,leap3,2022.2.5,59.99239310218387,
,,,,,,,,,,,,,,,,,,,,9,0,9,0,29,0,29,0,,,,,,exit,w,g,upper,,,,,,,3,w,LoDemNoTar,g,1,0.6189623051322997,,,,,,,,,,,,,,,,,,331,2023-11-16_10h48.17.344,leap3,2022.2.5,59.99239310218387,
,,,,,,,,,,,,,,,,,,,,9,0,9,0,,,,,,,,,,,,,,,,,,,,,,,,,,NA,,,,,,,,,,,,,,,,,331,2023-11-16_10h48.17.344,leap3,2022.2.5,59.99239310218387,
,,,,,,,,,,,,,,,,,,,,10,0,10,0,0,0,0,0,,,,,,tyena,nw,h,lower,,,,,,,1,nw,HiDemTar,h,1,1.0172020820900798,,,,,,,,,,,,,,,,,,331,2023-11-16_10h48.17.344,leap3,2022.2.5,59.99239310218387,
,,,,,,,,,,,,,,,,,,,,10,0,10,0,1,0,1,0,,,,,,unlined,w,g,lower,,,,,,,1,w,HiDemTar,g,1,0.7112452080473304,,,,,,,,,,,,,,,,,,331,2023-11-16_10h48.17.344,leap3,2022.2.5,59.99239310218387,
,,,,,,,,,,,,,,,,,,,,10,0,10,0,2,0,2,0,,,,,,portify,nw,h,lower,,,,,,,1,nw,HiDemTar,h,1,0.6972072604112327,,,,,,,,,,,,,,,,,,331,2023-11-16_10h48.17.344,leap3,2022.2.5,59.99239310218387,
,,,,,,,,,,,,,,,,,,,,10,0,10,0,3,0,3,0,,,,,,breiled,nw,h,lower,,,,,,,1,nw,HiDemTar,h,1,0.5718397335149348,,,,,,,,,,,,,,,,,,331,2023-11-16_10h48.17.344,leap3,2022.2.5,59.99239310218387,
,,,,,,,,,,,,,,,,,,,,10,0,10,0,4,0,4,0,,,,,,crudios,nw,h,lower,,,,,,,1,nw,HiDemTar,h,1,0.5940471165813506,,,,,,,,,,,,,,,,,,331,2023-11-16_10h48.17.344,leap3,2022.2.5,59.99239310218387,
,,,,,,,,,,,,,,,,,,,,10,0,10,0,5,0,5,0,,,,,,vivid,w,g,lower,,,,,,,1,w,HiDemTar,g,1,0.5926589481532574,,,,,,,,,,,,,,,,,,331,2023-11-16_10h48.17.344,leap3,2022.2.5,59.99239310218387,
,,,,,,,,,,,,,,,,,,,,10,0,10,0,6,0,6,0,,,,,,fomes,nw,h,lower,,,,,,,1,nw,HiDemTar,h,1,0.6393630495294929,,,,,,,,,,,,,,,,,,331,2023-11-16_10h48.17.344,leap3,2022.2.5,59.99239310218387,
,,,,,,,,,,,,,,,,,,,,10,0,10,0,7,0,7,0,,,,,,ludictous,nw,h,lower,,,,,,,1,nw,HiDemTar,h,1,0.7638820493593812,,,,,,,,,,,,,,,,,,331,2023-11-16_10h48.17.344,leap3,2022.2.5,59.99239310218387,
,,,,,,,,,,,,,,,,,,,,10,0,10,0,8,0,8,0,,,,,,gelfry,nw,h,lower,,,,,,,1,nw,HiDemTar,h,1,0.6679415064863861,,,,,,,,,,,,,,,,,,331,2023-11-16_10h48.17.344,leap3,2022.2.5,59.99239310218387,
,,,,,,,,,,,,,,,,,,,,10,0,10,0,9,0,9,0,,,,,,oppose,w,g,lower,,,,,,,1,w,HiDemTar,g,1,0.5519789610989392,,,,,,,,,,,,,,,,,,331,2023-11-16_10h48.17.344,leap3,2022.2.5,59.99239310218387,
,,,,,,,,,,,,,,,,,,,,10,0,10,0,10,0,10,0,,,,,,condensed,w,g,lower,,,,,,,1,w,HiDemTar,g,1,0.6566183166578412,,,,,,,,,,,,,,,,,,331,2023-11-16_10h48.17.344,leap3,2022.2.5,59.99239310218387,
,,,,,,,,,,,,,,,,,,,,10,0,10,0,11,0,11,0,,,,,,welayed,nw,h,lower,,,,,,,1,nw,HiDemTar,h,1,0.612675653770566,,,,,,,,,,,,,,,,,,331,2023-11-16_10h48.17.344,leap3,2022.2.5,59.99239310218387,
,,,,,,,,,,,,,,,,,,,,10,0,10,0,12,0,12,0,,,,,,crazy,w,g,lower,,,,,,,1,w,HiDemTar,g,1,0.5854198141023517,,,,,,,,,,,,,,,,,,331,2023-11-16_10h48.17.344,leap3,2022.2.5,59.99239310218387,
,,,,,,,,,,,,,,,,,,,,10,0,10,0,13,0,13,0,,,,,,joadbed,nw,h,lower,,,,,,,1,nw,HiDemTar,h,1,0.8567423345521092,,,,,,,,,,,,,,,,,,331,2023-11-16_10h48.17.344,leap3,2022.2.5,59.99239310218387,
,,,,,,,,,,,,,,,,,,,,10,0,10,0,14,0,14,0,,,,,,maroon,w,g,lower,,,,,,,1,w,HiDemTar,g,1,0.6371336374431849,,,,,,,,,,,,,,,,,,331,2023-11-16_10h48.17.344,leap3,2022.2.5,59.99239310218387,
,,,,,,,,,,,,,,,,,,,,10,0,10,0,15,0,15,0,,,,,,mestowal,nw,h,lower,,,,,,,1,nw,HiDemTar,h,1,0.6817208896391094,,,,,,,,,,,,,,,,,,331,2023-11-16_10h48.17.344,leap3,2022.2.5,59.99239310218387,
,,,,,,,,,,,,,,,,,,,,10,0,10,0,16,0,16,0,,,,,,elormity,nw,h,lower,,,,,,,1,nw,HiDemTar,h,1,0.6540455869399011,,,,,,,,,,,,,,,,,,331,2023-11-16_10h48.17.344,leap3,2022.2.5,59.99239310218387,
,,,,,,,,,,,,,,,,,,,,10,0,10,0,17,0,17,0,,,,,,serving,w,g,lower,,,,,,,1,w,HiDemTar,g,1,0.5459406105801463,,,,,,,,,,,,,,,,,,331,2023-11-16_10h48.17.344,leap3,2022.2.5,59.99239310218387,
,,,,,,,,,,,,,,,,,,,,10,0,10,0,18,0,18,0,,,,,,computer,w,g,lower,,,,,,,1,w,HiDemTar,g,1,0.4827807708643377,,,,,,,,,,,,,,,,,,331,2023-11-16_10h48.17.344,leap3,2022.2.5,59.99239310218387,
,,,,,,,,,,,,,,,,,,,,10,0,10,0,19,0,19,0,,,,,,miability,nw,h,lower,,,,,,,1,nw,HiDemTar,h,1,0.5900494693778455,,,,,,,,,,,,,,,,,,331,2023-11-16_10h48.17.344,leap3,2022.2.5,59.99239310218387,
,,,,,,,,,,,,,,,,,,,,10,0,10,0,20,0,20,0,,,,,,butterfly,target,q,lower,,,,,,,1,target,HiDemTar,g,0,0.45276249945163727,,,,,,,,,,,,,,,,,,331,2023-11-16_10h48.17.344,leap3,2022.2.5,59.99239310218387,
,,,,,,,,,,,,,,,,,,,,10,0,10,0,21,0,21,0,,,,,,potter,w,g,lower,,,,,,,1,aftertar1,HiDemTar,g,1,0.5927999834530056,,,,,,,,,,,,,,,,,,331,2023-11-16_10h48.17.344,leap3,2022.2.5,59.99239310218387,
,,,,,,,,,,,,,,,,,,,,10,0,10,0,22,0,22,0,,,,,,foster,w,g,lower,,,,,,,1,aftertar2,HiDemTar,g,1,0.5825620349496603,,,,,,,,,,,,,,,,,,331,2023-11-16_10h48.17.344,leap3,2022.2.5,59.99239310218387,
,,,,,,,,,,,,,,,,,,,,10,0,10,0,23,0,23,0,,,,,,pretzel,w,g,lower,,,,,,,1,aftertar3,HiDemTar,g,1,0.5096999146044254,,,,,,,,,,,,,,,,,,331,2023-11-16_10h48.17.344,leap3,2022.2.5,59.99239310218387,
,,,,,,,,,,,,,,,,,,,,10,0,10,0,24,0,24,0,,,,,,lifetime,w,g,lower,,,,,,,1,w,HiDemTar,g,1,0.5837052124552429,,,,,,,,,,,,,,,,,,331,2023-11-16_10h48.17.344,leap3,2022.2.5,59.99239310218387,
,,,,,,,,,,,,,,,,,,,,10,0,10,0,25,0,25,0,,,,,,repayment,w,g,lower,,,,,,,1,w,HiDemTar,g,1,0.559063486289233,,,,,,,,,,,,,,,,,,331,2023-11-16_10h48.17.344,leap3,2022.2.5,59.99239310218387,
,,,,,,,,,,,,,,,,,,,,10,0,10,0,26,0,26,0,,,,,,baladroit,nw,h,lower,,,,,,,1,w,HiDemTar,h,1,0.6870911447331309,,,,,,,,,,,,,,,,,,331,2023-11-16_10h48.17.344,leap3,2022.2.5,59.99239310218387,
,,,,,,,,,,,,,,,,,,,,10,0,10,0,27,0,27,0,,,,,,hodels,nw,h,lower,,,,,,,1,nw,HiDemTar,h,1,0.5695547019131482,,,,,,,,,,,,,,,,,,331,2023-11-16_10h48.17.344,leap3,2022.2.5,59.99239310218387,
,,,,,,,,,,,,,,,,,,,,10,0,10,0,28,0,28,0,,,,,,potent,w,g,lower,,,,,,,1,nw,HiDemTar,g,1,0.8729914859868586,,,,,,,,,,,,,,,,,,331,2023-11-16_10h48.17.344,leap3,2022.2.5,59.99239310218387,
,,,,,,,,,,,,,,,,,,,,10,0,10,0,29,0,29,0,,,,,,tenpince,nw,h,lower,,,,,,,1,w,HiDemTar,h,1,0.7002981118857861,,,,,,,,,,,,,,,,,,331,2023-11-16_10h48.17.344,leap3,2022.2.5,59.99239310218387,
,,,,,,,,,,,,,,,,,,,,10,0,10,0,,,,,,,,,,,,,,,,,,,,,,,,,,0,,,,,,,,,,,,,,,,,331,2023-11-16_10h48.17.344,leap3,2022.2.5,59.99239310218387,
,,,,,,,,,,,,,,,,,,,,11,0,11,0,0,0,0,0,,,,,,beggarlan,nw,h,lower,,,,,,,2,nw,HiDemNoTar,h,1,0.702679815236479,,,,,,,,,,,,,,,,,,331,2023-11-16_10h48.17.344,leap3,2022.2.5,59.99239310218387,
,,,,,,,,,,,,,,,,,,,,11,0,11,0,1,0,1,0,,,,,,huffle,nw,h,lower,,,,,,,2,nw,HiDemNoTar,h,1,0.7206607833504677,,,,,,,,,,,,,,,,,,331,2023-11-16_10h48.17.344,leap3,2022.2.5,59.99239310218387,
,,,,,,,,,,,,,,,,,,,,11,0,11,0,2,0,2,0,,,,,,gallon,w,g,lower,,,,,,,2,w,HiDemNoTar,g,1,0.7061219299212098,,,,,,,,,,,,,,,,,,331,2023-11-16_10h48.17.344,leap3,2022.2.5,59.99239310218387,
,,,,,,,,,,,,,,,,,,,,11,0,11,0,3,0,3,0,,,,,,single,w,g,lower,,,,,,,2,w,HiDemNoTar,g,1,0.6680332124233246,,,,,,,,,,,,,,,,,,331,2023-11-16_10h48.17.344,leap3,2022.2.5,59.99239310218387,
,,,,,,,,,,,,,,,,,,,,11,0,11,0,4,0,4,0,,,,,,efficient,w,g,lower,,,,,,,2,w,HiDemNoTar,g,1,0.5912429699674249,,,,,,,,,,,,,,,,,,331,2023-11-16_10h48.17.344,leap3,2022.2.5,59.99239310218387,
,,,,,,,,,,,,,,,,,,,,11,0,11,0,5,0,5,0,,,,,,mamps,nw,h,lower,,,,,,,2,nw,HiDemNoTar,h,1,0.6789005207829177,,,,,,,,,,,,,,,,,,331,2023-11-16_10h48.17.344,leap3,2022.2.5,59.99239310218387,
,,,,,,,,,,,,,,,,,,,,11,0,11,0,6,0,6,0,,,,,,vintnel,nw,h,lower,,,,,,,2,nw,HiDemNoTar,h,1,0.7772959335707128,,,,,,,,,,,,,,,,,,331,2023-11-16_10h48.17.344,leap3,2022.2.5,59.99239310218387,
,,,,,,,,,,,,,,,,,,,,11,0,11,0,7,0,7,0,,,,,,hotplate,w,g,lower,,,,,,,2,w,HiDemNoTar,g,1,0.7445430397056043,,,,,,,,,,,,,,,,,,331,2023-11-16_10h48.17.344,leap3,2022.2.5,59.99239310218387,
,,,,,,,,,,,,,,,,,,,,11,0,11,0,8,0,8,0,,,,,,schinter,nw,h,lower,,,,,,,2,nw,HiDemNoTar,h,1,0.7373472754843533,,,,,,,,,,,,,,,,,,331,2023-11-16_10h48.17.344,leap3,2022.2.5,59.99239310218387,
,,,,,,,,,,,,,,,,,,,,11,0,11,0,9,0,9,0,,,,,,pakened,nw,h,lower,,,,,,,2,nw,HiDemNoTar,h,1,0.6342215626500547,,,,,,,,,,,,,,,,,,331,2023-11-16_10h48.17.344,leap3,2022.2.5,59.99239310218387,
,,,,,,,,,,,,,,,,,,,,11,0,11,0,10,0,10,0,,,,,,fallacy,w,g,lower,,,,,,,2,w,HiDemNoTar,g,1,0.5997265889309347,,,,,,,,,,,,,,,,,,331,2023-11-16_10h48.17.344,leap3,2022.2.5,59.99239310218387,
,,,,,,,,,,,,,,,,,,,,11,0,11,0,11,0,11,0,,,,,,butled,nw,h,lower,,,,,,,2,nw,HiDemNoTar,g,0,0.9980868748389184,,,,,,,,,,,,,,,,,,331,2023-11-16_10h48.17.344,leap3,2022.2.5,59.99239310218387,
,,,,,,,,,,,,,,,,,,,,11,0,11,0,12,0,12,0,,,,,,quickel,nw,h,lower,,,,,,,2,nw,HiDemNoTar,h,1,0.8207757635973394,,,,,,,,,,,,,,,,,,331,2023-11-16_10h48.17.344,leap3,2022.2.5,59.99239310218387,
,,,,,,,,,,,,,,,,,,,,11,0,11,0,13,0,13,0,,,,,,matter,w,g,lower,,,,,,,2,w,HiDemNoTar,g,1,0.6020467141643167,,,,,,,,,,,,,,,,,,331,2023-11-16_10h48.17.344,leap3,2022.2.5,59.99239310218387,
,,,,,,,,,,,,,,,,,,,,11,0,11,0,14,0,14,0,,,,,,female,w,g,lower,,,,,,,2,w,HiDemNoTar,g,1,0.5447586975060403,,,,,,,,,,,,,,,,,,331,2023-11-16_10h48.17.344,leap3,2022.2.5,59.99239310218387,
,,,,,,,,,,,,,,,,,,,,11,0,11,0,15,0,15,0,,,,,,potatoes,w,g,lower,,,,,,,2,w,HiDemNoTar,g,1,0.7045215466059744,,,,,,,,,,,,,,,,,,331,2023-11-16_10h48.17.344,leap3,2022.2.5,59.99239310218387,
,,,,,,,,,,,,,,,,,,,,11,0,11,0,16,0,16,0,,,,,,ausht,nw,h,lower,,,,,,,2,nw,HiDemNoTar,h,1,0.6506081074476242,,,,,,,,,,,,,,,,,,331,2023-11-16_10h48.17.344,leap3,2022.2.5,59.99239310218387,
,,,,,,,,,,,,,,,,,,,,11,0,11,0,17,0,17,0,,,,,,entitle,w,g,lower,,,,,,,2,w,HiDemNoTar,g,1,0.7752366904169321,,,,,,,,,,,,,,,,,,331,2023-11-16_10h48.17.344,leap3,2022.2.5,59.99239310218387,
,,,,,,,,,,,,,,,,,,,,11,0,11,0,18,0,18,0,,,,,,sodent,nw,h,lower,,,,,,,2,nw,HiDemNoTar,h,1,0.5985397095791996,,,,,,,,,,,,,,,,,,331,2023-11-16_10h48.17.344,leap3,2022.2.5,59.99239310218387,
,,,,,,,,,,,,,,,,,,,,11,0,11,0,19,0,19,0,,,,,,butler,w,g,lower,,,,,,,2,w,HiDemNoTar,g,1,0.6452881749719381,,,,,,,,,,,,,,,,,,331,2023-11-16_10h48.17.344,leap3,2022.2.5,59.99239310218387,
,,,,,,,,,,,,,,,,,,,,11,0,11,0,20,0,20,0,,,,,,drine,nw,h,lower,,,,,,,2,nw,HiDemNoTar,h,1,0.6099916850216687,,,,,,,,,,,,,,,,,,331,2023-11-16_10h48.17.344,leap3,2022.2.5,59.99239310218387,
,,,,,,,,,,,,,,,,,,,,11,0,11,0,21,0,21,0,,,,,,brials,nw,h,lower,,,,,,,2,nw,HiDemNoTar,h,1,0.6800499893724918,,,,,,,,,,,,,,,,,,331,2023-11-16_10h48.17.344,leap3,2022.2.5,59.99239310218387,
,,,,,,,,,,,,,,,,,,,,11,0,11,0,22,0,22,0,,,,,,demon,w,g,lower,,,,,,,2,w,HiDemNoTar,g,1,0.7474600807763636,,,,,,,,,,,,,,,,,,331,2023-11-16_10h48.17.344,leap3,2022.2.5,59.99239310218387,
,,,,,,,,,,,,,,,,,,,,11,0,11,0,23,0,23,0,,,,,,infested,w,g,lower,,,,,,,2,w,HiDemNoTar,g,1,0.5881349029950798,,,,,,,,,,,,,,,,,,331,2023-11-16_10h48.17.344,leap3,2022.2.5,59.99239310218387,
,,,,,,,,,,,,,,,,,,,,11,0,11,0,24,0,24,0,,,,,,release,w,g,lower,,,,,,,2,w,HiDemNoTar,g,1,0.5952803450636566,,,,,,,,,,,,,,,,,,331,2023-11-16_10h48.17.344,leap3,2022.2.5,59.99239310218387,
,,,,,,,,,,,,,,,,,,,,11,0,11,0,25,0,25,0,,,,,,serfume,nw,h,lower,,,,,,,2,nw,HiDemNoTar,h,1,0.9530520183034241,,,,,,,,,,,,,,,,,,331,2023-11-16_10h48.17.344,leap3,2022.2.5,59.99239310218387,
,,,,,,,,,,,,,,,,,,,,11,0,11,0,26,0,26,0,,,,,,shockwave,w,g,lower,,,,,,,2,w,HiDemNoTar,g,1,0.8169926488772035,,,,,,,,,,,,,,,,,,331,2023-11-16_10h48.17.344,leap3,2022.2.5,59.99239310218387,
,,,,,,,,,,,,,,,,,,,,11,0,11,0,27,0,27,0,,,,,,stretches,w,g,lower,,,,,,,2,w,HiDemNoTar,g,1,0.5349693461321294,,,,,,,,,,,,,,,,,,331,2023-11-16_10h48.17.344,leap3,2022.2.5,59.99239310218387,
,,,,,,,,,,,,,,,,,,,,11,0,11,0,28,0,28,0,,,,,,egect,nw,h,lower,,,,,,,2,nw,HiDemNoTar,h,1,0.6315531539730728,,,,,,,,,,,,,,,,,,331,2023-11-16_10h48.17.344,leap3,2022.2.5,59.99239310218387,
,,,,,,,,,,,,,,,,,,,,11,0,11,0,29,0,29,0,,,,,,dusmy,nw,h,lower,,,,,,,2,nw,HiDemNoTar,h,1,0.9331190730445087,,,,,,,,,,,,,,,,,,331,2023-11-16_10h48.17.344,leap3,2022.2.5,59.99239310218387,
,,,,,,,,,,,,,,,,,,,,11,0,11,0,,,,,,,,,,,,,,,,,,,,,,,,,,NA,,,,,,,,,,,,,,,,,331,2023-11-16_10h48.17.344,leap3,2022.2.5,59.99239310218387,
,,,,,,,,,,,,,,,,,,,,12,0,12,0,0,0,0,0,,,,,,coupling,w,g,upper,,,,,,,4,w,LoDemTar,h,0,0.9174913363531232,,,,,,,,,,,,,,,,,,331,2023-11-16_10h48.17.344,leap3,2022.2.5,59.99239310218387,
,,,,,,,,,,,,,,,,,,,,12,0,12,0,1,0,1,0,,,,,,surdens,nw,h,upper,,,,,,,4,nw,LoDemTar,h,1,0.631563086528331,,,,,,,,,,,,,,,,,,331,2023-11-16_10h48.17.344,leap3,2022.2.5,59.99239310218387,
,,,,,,,,,,,,,,,,,,,,12,0,12,0,2,0,2,0,,,,,,dentures,w,g,upper,,,,,,,4,w,LoDemTar,g,1,0.7010463252663612,,,,,,,,,,,,,,,,,,331,2023-11-16_10h48.17.344,leap3,2022.2.5,59.99239310218387,
,,,,,,,,,,,,,,,,,,,,12,0,12,0,3,0,3,0,,,,,,fraft,nw,h,upper,,,,,,,4,nw,LoDemTar,h,1,0.6229728637263179,,,,,,,,,,,,,,,,,,331,2023-11-16_10h48.17.344,leap3,2022.2.5,59.99239310218387,
,,,,,,,,,,,,,,,,,,,,12,0,12,0,4,0,4,0,,,,,,shamrock,w,g,upper,,,,,,,4,w,LoDemTar,g,1,0.5883398340083659,,,,,,,,,,,,,,,,,,331,2023-11-16_10h48.17.344,leap3,2022.2.5,59.99239310218387,
,,,,,,,,,,,,,,,,,,,,12,0,12,0,5,0,5,0,,,,,,pepperoni,w,g,upper,,,,,,,4,w,LoDemTar,g,1,0.5628813626244664,,,,,,,,,,,,,,,,,,331,2023-11-16_10h48.17.344,leap3,2022.2.5,59.99239310218387,
,,,,,,,,,,,,,,,,,,,,12,0,12,0,6,0,6,0,,,,,,passet,nw,h,upper,,,,,,,4,nw,LoDemTar,h,1,0.6749028745107353,,,,,,,,,,,,,,,,,,331,2023-11-16_10h48.17.344,leap3,2022.2.5,59.99239310218387,
,,,,,,,,,,,,,,,,,,,,12,0,12,0,7,0,7,0,,,,,,unamufed,nw,h,upper,,,,,,,4,nw,LoDemTar,h,1,0.6783032743260264,,,,,,,,,,,,,,,,,,331,2023-11-16_10h48.17.344,leap3,2022.2.5,59.99239310218387,
,,,,,,,,,,,,,,,,,,,,12,0,12,0,8,0,8,0,,,,,,ronic,nw,h,upper,,,,,,,4,nw,LoDemTar,h,1,0.6007012533955276,,,,,,,,,,,,,,,,,,331,2023-11-16_10h48.17.344,leap3,2022.2.5,59.99239310218387,
,,,,,,,,,,,,,,,,,,,,12,0,12,0,9,0,9,0,,,,,,arrigns,nw,h,upper,,,,,,,4,nw,LoDemTar,h,1,0.7347036972641945,,,,,,,,,,,,,,,,,,331,2023-11-16_10h48.17.344,leap3,2022.2.5,59.99239310218387,
,,,,,,,,,,,,,,,,,,,,12,0,12,0,10,0,10,0,,,,,,hivinity,nw,h,upper,,,,,,,4,nw,LoDemTar,h,1,0.5280500235967338,,,,,,,,,,,,,,,,,,331,2023-11-16_10h48.17.344,leap3,2022.2.5,59.99239310218387,
,,,,,,,,,,,,,,,,,,,,12,0,12,0,11,0,11,0,,,,,,euphoric,w,g,upper,,,,,,,4,w,LoDemTar,g,1,0.6414342117495835,,,,,,,,,,,,,,,,,,331,2023-11-16_10h48.17.344,leap3,2022.2.5,59.99239310218387,
,,,,,,,,,,,,,,,,,,,,12,0,12,0,12,0,12,0,,,,,,antwers,nw,h,upper,,,,,,,4,nw,LoDemTar,h,1,0.5820866208523512,,,,,,,,,,,,,,,,,,331,2023-11-16_10h48.17.344,leap3,2022.2.5,59.99239310218387,
,,,,,,,,,,,,,,,,,,,,12,0,12,0,13,0,13,0,,,,,,greakable,nw,h,upper,,,,,,,4,nw,LoDemTar,h,1,0.6535099186003208,,,,,,,,,,,,,,,,,,331,2023-11-16_10h48.17.344,leap3,2022.2.5,59.99239310218387,
,,,,,,,,,,,,,,,,,,,,12,0,12,0,14,0,14,0,,,,,,pegend,nw,h,upper,,,,,,,4,nw,LoDemTar,h,1,0.521520699840039,,,,,,,,,,,,,,,,,,331,2023-11-16_10h48.17.344,leap3,2022.2.5,59.99239310218387,
,,,,,,,,,,,,,,,,,,,,12,0,12,0,15,0,15,0,,,,,,venturous,w,g,upper,,,,,,,4,w,LoDemTar,h,0,0.4587905867956579,,,,,,,,,,,,,,,,,,331,2023-11-16_10h48.17.344,leap3,2022.2.5,59.99239310218387,
,,,,,,,,,,,,,,,,,,,,12,0,12,0,16,0,16,0,,,,,,become,w,g,upper,,,,,,,4,w,LoDemTar,g,1,0.5269518713466823,,,,,,,,,,,,,,,,,,331,2023-11-16_10h48.17.344,leap3,2022.2.5,59.99239310218387,
,,,,,,,,,,,,,,,,,,,,12,0,12,0,17,0,17,0,,,,,,rational,w,g,upper,,,,,,,4,w,LoDemTar,g,1,0.5600921143777668,,,,,,,,,,,,,,,,,,331,2023-11-16_10h48.17.344,leap3,2022.2.5,59.99239310218387,
,,,,,,,,,,,,,,,,,,,,12,0,12,0,18,0,18,0,,,,,,hackal,nw,h,upper,,,,,,,4,nw,LoDemTar,h,1,0.7031724448315799,,,,,,,,,,,,,,,,,,331,2023-11-16_10h48.17.344,leap3,2022.2.5,59.99239310218387,
,,,,,,,,,,,,,,,,,,,,12,0,12,0,19,0,19,0,,,,,,humanize,w,g,upper,,,,,,,4,w,LoDemTar,g,1,0.5692862053401768,,,,,,,,,,,,,,,,,,331,2023-11-16_10h48.17.344,leap3,2022.2.5,59.99239310218387,
,,,,,,,,,,,,,,,,,,,,12,0,12,0,20,0,20,0,,,,,,preclude,w,g,upper,,,,,,,4,w,LoDemTar,h,0,0.6730753788724542,,,,,,,,,,,,,,,,,,331,2023-11-16_10h48.17.344,leap3,2022.2.5,59.99239310218387,
,,,,,,,,,,,,,,,,,,,,12,0,12,0,21,0,21,0,,,,,,ghists,nw,h,upper,,,,,,,4,nw,LoDemTar,h,1,0.5720701566897333,,,,,,,,,,,,,,,,,,331,2023-11-16_10h48.17.344,leap3,2022.2.5,59.99239310218387,
,,,,,,,,,,,,,,,,,,,,12,0,12,0,22,0,22,0,,,,,,flamingo,target,q,upper,,,,,,,4,target,LoDemTar,g,0,0.6358606806024909,,,,,,,,,,,,,,,,,,331,2023-11-16_10h48.17.344,leap3,2022.2.5,59.99239310218387,
,,,,,,,,,,,,,,,,,,,,12,0,12,0,23,0,23,0,,,,,,unspoken,w,g,upper,,,,,,,4,aftertar1,LoDemTar,g,1,0.5605198545381427,,,,,,,,,,,,,,,,,,331,2023-11-16_10h48.17.344,leap3,2022.2.5,59.99239310218387,
,,,,,,,,,,,,,,,,,,,,12,0,12,0,24,0,24,0,,,,,,tracing,w,g,upper,,,,,,,4,aftertar2,LoDemTar,g,1,0.5286310487426817,,,,,,,,,,,,,,,,,,331,2023-11-16_10h48.17.344,leap3,2022.2.5,59.99239310218387,
,,,,,,,,,,,,,,,,,,,,12,0,12,0,25,0,25,0,,,,,,party,w,g,upper,,,,,,,4,aftertar3,LoDemTar,g,1,0.48996693454682827,,,,,,,,,,,,,,,,,,331,2023-11-16_10h48.17.344,leap3,2022.2.5,59.99239310218387,
,,,,,,,,,,,,,,,,,,,,12,0,12,0,26,0,26,0,,,,,,demise,w,g,upper,,,,,,,4,w,LoDemTar,g,1,0.5406511360779405,,,,,,,,,,,,,,,,,,331,2023-11-16_10h48.17.344,leap3,2022.2.5,59.99239310218387,
,,,,,,,,,,,,,,,,,,,,12,0,12,0,27,0,27,0,,,,,,mogus,nw,h,upper,,,,,,,4,w,LoDemTar,h,1,0.7094160569831729,,,,,,,,,,,,,,,,,,331,2023-11-16_10h48.17.344,leap3,2022.2.5,59.99239310218387,
,,,,,,,,,,,,,,,,,,,,12,0,12,0,28,0,28,0,,,,,,stable,w,g,upper,,,,,,,4,nw,LoDemTar,g,1,0.6862717512995005,,,,,,,,,,,,,,,,,,331,2023-11-16_10h48.17.344,leap3,2022.2.5,59.99239310218387,
,,,,,,,,,,,,,,,,,,,,12,0,12,0,29,0,29,0,,,,,,seighing,nw,h,upper,,,,,,,4,w,LoDemTar,h,1,1.1610888941213489,,,,,,,,,,,,,,,,,,331,2023-11-16_10h48.17.344,leap3,2022.2.5,59.99239310218387,
,,,,,,,,,,,,,,,,,,,,12,0,12,0,,,,,,,,,,,,,,,,,,,,,,,,,,0,,,,,,,,,,,,,,,,,331,2023-11-16_10h48.17.344,leap3,2022.2.5,59.99239310218387,
,,,,,,,,,,,,,,,,,,,,13,0,13,0,0,0,0,0,,,,,,brighten,w,g,upper,,,,,,,3,w,LoDemNoTar,g,1,0.553772356826812,,,,,,,,,,,,,,,,,,331,2023-11-16_10h48.17.344,leap3,2022.2.5,59.99239310218387,
,,,,,,,,,,,,,,,,,,,,13,0,13,0,1,0,1,0,,,,,,peems,nw,h,upper,,,,,,,3,nw,LoDemNoTar,h,1,0.6016884981654584,,,,,,,,,,,,,,,,,,331,2023-11-16_10h48.17.344,leap3,2022.2.5,59.99239310218387,
,,,,,,,,,,,,,,,,,,,,13,0,13,0,2,0,2,0,,,,,,wrestle,w,g,upper,,,,,,,3,w,LoDemNoTar,g,1,0.5027670185081661,,,,,,,,,,,,,,,,,,331,2023-11-16_10h48.17.344,leap3,2022.2.5,59.99239310218387,
,,,,,,,,,,,,,,,,,,,,13,0,13,0,3,0,3,0,,,,,,chraps,nw,h,upper,,,,,,,3,nw,LoDemNoTar,h,1,0.6247076597064734,,,,,,,,,,,,,,,,,,331,2023-11-16_10h48.17.344,leap3,2022.2.5,59.99239310218387,
,,,,,,,,,,,,,,,,,,,,13,0,13,0,4,0,4,0,,,,,,egcused,nw,h,upper,,,,,,,3,nw,LoDemNoTar,h,1,0.6940978690981865,,,,,,,,,,,,,,,,,,331,2023-11-16_10h48.17.344,leap3,2022.2.5,59.99239310218387,
,,,,,,,,,,,,,,,,,,,,13,0,13,0,5,0,5,0,,,,,,halents,nw,h,upper,,,,,,,3,nw,LoDemNoTar,g,0,0.704779117833823,,,,,,,,,,,,,,,,,,331,2023-11-16_10h48.17.344,leap3,2022.2.5,59.99239310218387,
,,,,,,,,,,,,,,,,,,,,13,0,13,0,6,0,6,0,,,,,,greft,nw,h,upper,,,,,,,3,nw,LoDemNoTar,h,1,0.7628123685717583,,,,,,,,,,,,,,,,,,331,2023-11-16_10h48.17.344,leap3,2022.2.5,59.99239310218387,
,,,,,,,,,,,,,,,,,,,,13,0,13,0,7,0,7,0,,,,,,mitten,w,g,upper,,,,,,,3,w,LoDemNoTar,g,1,0.6667288043536246,,,,,,,,,,,,,,,,,,331,2023-11-16_10h48.17.344,leap3,2022.2.5,59.99239310218387,
,,,,,,,,,,,,,,,,,,,,13,0,13,0,8,0,8,0,,,,,,beartiset,nw,h,upper,,,,,,,3,nw,LoDemNoTar,h,1,0.8788219257257879,,,,,,,,,,,,,,,,,,331,2023-11-16_10h48.17.344,leap3,2022.2.5,59.99239310218387,
,,,,,,,,,,,,,,,,,,,,13,0,13,0,9,0,9,0,,,,,,comment,w,g,upper,,,,,,,3,w,LoDemNoTar,g,1,0.5941504095681012,,,,,,,,,,,,,,,,,,331,2023-11-16_10h48.17.344,leap3,2022.2.5,59.99239310218387,
,,,,,,,,,,,,,,,,,,,,13,0,13,0,10,0,10,0,,,,,,swatches,w,g,upper,,,,,,,3,w,LoDemNoTar,h,0,0.5288005550391972,,,,,,,,,,,,,,,,,,331,2023-11-16_10h48.17.344,leap3,2022.2.5,59.99239310218387,
,,,,,,,,,,,,,,,,,,,,13,0,13,0,11,0,11,0,,,,,,intended,w,g,upper,,,,,,,3,w,LoDemNoTar,h,0,0.5699556251056492,,,,,,,,,,,,,,,,,,331,2023-11-16_10h48.17.344,leap3,2022.2.5,59.99239310218387,
,,,,,,,,,,,,,,,,,,,,13,0,13,0,12,0,12,0,,,,,,culinary,w,g,upper,,,,,,,3,w,LoDemNoTar,g,1,0.6014064284972847,,,,,,,,,,,,,,,,,,331,2023-11-16_10h48.17.344,leap3,2022.2.5,59.99239310218387,
,,,,,,,,,,,,,,,,,,,,13,0,13,0,13,0,13,0,,,,,,cemoir,nw,h,upper,,,,,,,3,nw,LoDemNoTar,g,0,0.4560324586927891,,,,,,,,,,,,,,,,,,331,2023-11-16_10h48.17.344,leap3,2022.2.5,59.99239310218387,
,,,,,,,,,,,,,,,,,,,,13,0,13,0,14,0,14,0,,,,,,committed,w,g,upper,,,,,,,3,w,LoDemNoTar,g,1,0.5080703981220722,,,,,,,,,,,,,,,,,,331,2023-11-16_10h48.17.344,leap3,2022.2.5,59.99239310218387,
,,,,,,,,,,,,,,,,,,,,13,0,13,0,15,0,15,0,,,,,,treenery,nw,h,upper,,,,,,,3,nw,LoDemNoTar,h,1,0.7746718884445727,,,,,,,,,,,,,,,,,,331,2023-11-16_10h48.17.344,leap3,2022.2.5,59.99239310218387,
,,,,,,,,,,,,,,,,,,,,13,0,13,0,16,0,16,0,,,,,,stranded,w,g,upper,,,,,,,3,w,LoDemNoTar,g,1,0.6380599662661552,,,,,,,,,,,,,,,,,,331,2023-11-16_10h48.17.344,leap3,2022.2.5,59.99239310218387,
,,,,,,,,,,,,,,,,,,,,13,0,13,0,17,0,17,0,,,,,,clume,nw,h,upper,,,,,,,3,nw,LoDemNoTar,h,1,0.6908646584488451,,,,,,,,,,,,,,,,,,331,2023-11-16_10h48.17.344,leap3,2022.2.5,59.99239310218387,
,,,,,,,,,,,,,,,,,,,,13,0,13,0,18,0,18,0,,,,,,ringlat,nw,h,upper,,,,,,,3,nw,LoDemNoTar,h,1,0.6615955936722457,,,,,,,,,,,,,,,,,,331,2023-11-16_10h48.17.344,leap3,2022.2.5,59.99239310218387,
,,,,,,,,,,,,,,,,,,,,13,0,13,0,19,0,19,0,,,,,,befin,nw,h,upper,,,,,,,3,nw,LoDemNoTar,h,1,0.6095795053988695,,,,,,,,,,,,,,,,,,331,2023-11-16_10h48.17.344,leap3,2022.2.5,59.99239310218387,
,,,,,,,,,,,,,,,,,,,,13,0,13,0,20,0,20,0,,,,,,miurnal,nw,h,upper,,,,,,,3,nw,LoDemNoTar,h,1,0.5836201277561486,,,,,,,,,,,,,,,,,,331,2023-11-16_10h48.17.344,leap3,2022.2.5,59.99239310218387,
,,,,,,,,,,,,,,,,,,,,13,0,13,0,21,0,21,0,,,,,,ameld,nw,h,upper,,,,,,,3,nw,LoDemNoTar,h,1,0.5980616477318108,,,,,,,,,,,,,,,,,,331,2023-11-16_10h48.17.344,leap3,2022.2.5,59.99239310218387,
,,,,,,,,,,,,,,,,,,,,13,0,13,0,22,0,22,0,,,,,,resume,w,g,upper,,,,,,,3,w,LoDemNoTar,h,0,0.5646866769529879,,,,,,,,,,,,,,,,,,331,2023-11-16_10h48.17.344,leap3,2022.2.5,59.99239310218387,
,,,,,,,,,,,,,,,,,,,,13,0,13,0,23,0,23,0,,,,,,splinging,nw,h,upper,,,,,,,3,nw,LoDemNoTar,g,0,0.7567541543394327,,,,,,,,,,,,,,,,,,331,2023-11-16_10h48.17.344,leap3,2022.2.5,59.99239310218387,
,,,,,,,,,,,,,,,,,,,,13,0,13,0,24,0,24,0,,,,,,duplex,w,g,upper,,,,,,,3,w,LoDemNoTar,h,0,0.5168976653367281,,,,,,,,,,,,,,,,,,331,2023-11-16_10h48.17.344,leap3,2022.2.5,59.99239310218387,
,,,,,,,,,,,,,,,,,,,,13,0,13,0,25,0,25,0,,,,,,scack,nw,h,upper,,,,,,,3,nw,LoDemNoTar,h,1,0.7347957342863083,,,,,,,,,,,,,,,,,,331,2023-11-16_10h48.17.344,leap3,2022.2.5,59.99239310218387,
,,,,,,,,,,,,,,,,,,,,13,0,13,0,26,0,26,0,,,,,,previous,w,g,upper,,,,,,,3,w,LoDemNoTar,g,1,0.6001976989209652,,,,,,,,,,,,,,,,,,331,2023-11-16_10h48.17.344,leap3,2022.2.5,59.99239310218387,
,,,,,,,,,,,,,,,,,,,,13,0,13,0,27,0,27,0,,,,,,marinate,w,g,upper,,,,,,,3,w,LoDemNoTar,g,1,0.7269259155727923,,,,,,,,,,,,,,,,,,331,2023-11-16_10h48.17.344,leap3,2022.2.5,59.99239310218387,
,,,,,,,,,,,,,,,,,,,,13,0,13,0,28,0,28,0,,,,,,anemic,w,g,upper,,,,,,,3,w,LoDemNoTar,h,0,0.6242825691588223,,,,,,,,,,,,,,,,,,331,2023-11-16_10h48.17.344,leap3,2022.2.5,59.99239310218387,
,,,,,,,,,,,,,,,,,,,,13,0,13,0,29,0,29,0,,,,,,sequence,w,g,upper,,,,,,,3,w,LoDemNoTar,g,1,0.5976044428534806,,,,,,,,,,,,,,,,,,331,2023-11-16_10h48.17.344,leap3,2022.2.5,59.99239310218387,
,,,,,,,,,,,,,,,,,,,,13,0,13,0,,,,,,,,,,,,,,,,,,,,,,,,,,NA,,,,,,,,,,,,,,,,,331,2023-11-16_10h48.17.344,leap3,2022.2.5,59.99239310218387,
,,,,,,,,,,,,,,,,,,,,14,0,14,0,0,0,0,0,,,,,,except,w,g,upper,,,,,,,3,w,LoDemNoTar,g,1,0.5800485657528043,,,,,,,,,,,,,,,,,,331,2023-11-16_10h48.17.344,leap3,2022.2.5,59.99239310218387,
,,,,,,,,,,,,,,,,,,,,14,0,14,0,1,0,1,0,,,,,,misobeyed,nw,h,upper,,,,,,,3,nw,LoDemNoTar,g,0,0.6593933296389878,,,,,,,,,,,,,,,,,,331,2023-11-16_10h48.17.344,leap3,2022.2.5,59.99239310218387,
,,,,,,,,,,,,,,,,,,,,14,0,14,0,2,0,2,0,,,,,,intrude,w,g,upper,,,,,,,3,w,LoDemNoTar,g,1,0.6634710943326354,,,,,,,,,,,,,,,,,,331,2023-11-16_10h48.17.344,leap3,2022.2.5,59.99239310218387,
,,,,,,,,,,,,,,,,,,,,14,0,14,0,3,0,3,0,,,,,,tritical,nw,h,upper,,,,,,,3,nw,LoDemNoTar,h,1,0.6993638374842703,,,,,,,,,,,,,,,,,,331,2023-11-16_10h48.17.344,leap3,2022.2.5,59.99239310218387,
,,,,,,,,,,,,,,,,,,,,14,0,14,0,4,0,4,0,,,,,,argue,w,g,upper,,,,,,,3,w,LoDemNoTar,g,1,0.6384314242750406,,,,,,,,,,,,,,,,,,331,2023-11-16_10h48.17.344,leap3,2022.2.5,59.99239310218387,
,,,,,,,,,,,,,,,,,,,,14,0,14,0,5,0,5,0,,,,,,wienegs,nw,h,upper,,,,,,,3,nw,LoDemNoTar,h,1,0.6254383269697428,,,,,,,,,,,,,,,,,,331,2023-11-16_10h48.17.344,leap3,2022.2.5,59.99239310218387,
,,,,,,,,,,,,,,,,,,,,14,0,14,0,6,0,6,0,,,,,,tipoff,w,g,upper,,,,,,,3,w,LoDemNoTar,h,0,0.6711243945173919,,,,,,,,,,,,,,,,,,331,2023-11-16_10h48.17.344,leap3,2022.2.5,59.99239310218387,
,,,,,,,,,,,,,,,,,,,,14,0,14,0,7,0,7,0,,,,,,regional,w,g,upper,,,,,,,3,w,LoDemNoTar,g,1,0.5945331244729459,,,,,,,,,,,,,,,,,,331,2023-11-16_10h48.17.344,leap3,2022.2.5,59.99239310218387,
,,,,,,,,,,,,,,,,,,,,14,0,14,0,8,0,8,0,,,,,,soluced,nw,h,upper,,,,,,,3,nw,LoDemNoTar,h,1,0.6892126286402345,,,,,,,,,,,,,,,,,,331,2023-11-16_10h48.17.344,leap3,2022.2.5,59.99239310218387,
,,,,,,,,,,,,,,,,,,,,14,0,14,0,9,0,9,0,,,,,,mabit,nw,h,upper,,,,,,,3,nw,LoDemNoTar,h,1,0.7326997420750558,,,,,,,,,,,,,,,,,,331,2023-11-16_10h48.17.344,leap3,2022.2.5,59.99239310218387,
,,,,,,,,,,,,,,,,,,,,14,0,14,0,10,0,10,0,,,,,,puyer,nw,h,upper,,,,,,,3,nw,LoDemNoTar,h,1,0.5740684834308922,,,,,,,,,,,,,,,,,,331,2023-11-16_10h48.17.344,leap3,2022.2.5,59.99239310218387,
,,,,,,,,,,,,,,,,,,,,14,0,14,0,11,0,11,0,,,,,,paranoid,w,g,upper,,,,,,,3,w,LoDemNoTar,g,1,0.5734344883821905,,,,,,,,,,,,,,,,,,331,2023-11-16_10h48.17.344,leap3,2022.2.5,59.99239310218387,
,,,,,,,,,,,,,,,,,,,,14,0,14,0,12,0,12,0,,,,,,contusiok,nw,h,upper,,,,,,,3,nw,LoDemNoTar,h,1,0.6527769342064857,,,,,,,,,,,,,,,,,,331,2023-11-16_10h48.17.344,leap3,2022.2.5,59.99239310218387,
,,,,,,,,,,,,,,,,,,,,14,0,14,0,13,0,13,0,,,,,,throttle,w,g,upper,,,,,,,3,w,LoDemNoTar,h,0,0.5367577760480344,,,,,,,,,,,,,,,,,,331,2023-11-16_10h48.17.344,leap3,2022.2.5,59.99239310218387,
,,,,,,,,,,,,,,,,,,,,14,0,14,0,14,0,14,0,,,,,,geissue,nw,h,upper,,,,,,,3,nw,LoDemNoTar,h,1,0.5854605352506042,,,,,,,,,,,,,,,,,,331,2023-11-16_10h48.17.344,leap3,2022.2.5,59.99239310218387,
,,,,,,,,,,,,,,,,,,,,14,0,14,0,15,0,15,0,,,,,,incidonts,nw,h,upper,,,,,,,3,nw,LoDemNoTar,h,1,0.527198847848922,,,,,,,,,,,,,,,,,,331,2023-11-16_10h48.17.344,leap3,2022.2.5,59.99239310218387,
,,,,,,,,,,,,,,,,,,,,14,0,14,0,16,0,16,0,,,,,,chesume,nw,h,upper,,,,,,,3,nw,LoDemNoTar,h,1,0.49725241819396615,,,,,,,,,,,,,,,,,,331,2023-11-16_10h48.17.344,leap3,2022.2.5,59.99239310218387,
,,,,,,,,,,,,,,,,,,,,14,0,14,0,17,0,17,0,,,,,,skiing,w,g,upper,,,,,,,3,w,LoDemNoTar,g,1,0.6679408443160355,,,,,,,,,,,,,,,,,,331,2023-11-16_10h48.17.344,leap3,2022.2.5,59.99239310218387,
,,,,,,,,,,,,,,,,,,,,14,0,14,0,18,0,18,0,,,,,,truthful,w,g,upper,,,,,,,3,w,LoDemNoTar,g,1,0.599477294832468,,,,,,,,,,,,,,,,,,331,2023-11-16_10h48.17.344,leap3,2022.2.5,59.99239310218387,
,,,,,,,,,,,,,,,,,,,,14,0,14,0,19,0,19,0,,,,,,infusion,w,g,upper,,,,,,,3,w,LoDemNoTar,g,1,0.5339837563224137,,,,,,,,,,,,,,,,,,331,2023-11-16_10h48.17.344,leap3,2022.2.5,59.99239310218387,
,,,,,,,,,,,,,,,,,,,,14,0,14,0,20,0,20,0,,,,,,shests,nw,h,upper,,,,,,,3,nw,LoDemNoTar,h,1,0.7594083268195391,,,,,,,,,,,,,,,,,,331,2023-11-16_10h48.17.344,leap3,2022.2.5,59.99239310218387,
,,,,,,,,,,,,,,,,,,,,14,0,14,0,21,0,21,0,,,,,,rantho,nw,h,upper,,,,,,,3,nw,LoDemNoTar,h,1,0.5434734909795225,,,,,,,,,,,,,,,,,,331,2023-11-16_10h48.17.344,leap3,2022.2.5,59.99239310218387,
,,,,,,,,,,,,,,,,,,,,14,0,14,0,22,0,22,0,,,,,,defeat,w,g,upper,,,,,,,3,w,LoDemNoTar,g,1,0.7120990324765444,,,,,,,,,,,,,,,,,,331,2023-11-16_10h48.17.344,leap3,2022.2.5,59.99239310218387,
,,,,,,,,,,,,,,,,,,,,14,0,14,0,23,0,23,0,,,,,,igiom,nw,h,upper,,,,,,,3,nw,LoDemNoTar,h,1,0.6020672400481999,,,,,,,,,,,,,,,,,,331,2023-11-16_10h48.17.344,leap3,2022.2.5,59.99239310218387,
,,,,,,,,,,,,,,,,,,,,14,0,14,0,24,0,24,0,,,,,,resent,w,g,upper,,,,,,,3,w,LoDemNoTar,g,1,0.5992895793169737,,,,,,,,,,,,,,,,,,331,2023-11-16_10h48.17.344,leap3,2022.2.5,59.99239310218387,
,,,,,,,,,,,,,,,,,,,,14,0,14,0,25,0,25,0,,,,,,trocess,nw,h,upper,,,,,,,3,nw,LoDemNoTar,h,1,0.7177970451302826,,,,,,,,,,,,,,,,,,331,2023-11-16_10h48.17.344,leap3,2022.2.5,59.99239310218387,
,,,,,,,,,,,,,,,,,,,,14,0,14,0,26,0,26,0,,,,,,fuintets,nw,h,upper,,,,,,,3,nw,LoDemNoTar,h,1,0.6711217458359897,,,,,,,,,,,,,,,,,,331,2023-11-16_10h48.17.344,leap3,2022.2.5,59.99239310218387,
,,,,,,,,,,,,,,,,,,,,14,0,14,0,27,0,27,0,,,,,,trophy,w,g,upper,,,,,,,3,w,LoDemNoTar,g,1,0.5544894495978951,,,,,,,,,,,,,,,,,,331,2023-11-16_10h48.17.344,leap3,2022.2.5,59.99239310218387,
,,,,,,,,,,,,,,,,,,,,14,0,14,0,28,0,28,0,,,,,,hubris,w,g,upper,,,,,,,3,w,LoDemNoTar,h,0,0.5543682789430022,,,,,,,,,,,,,,,,,,331,2023-11-16_10h48.17.344,leap3,2022.2.5,59.99239310218387,
,,,,,,,,,,,,,,,,,,,,14,0,14,0,29,0,29,0,,,,,,companion,w,g,upper,,,,,,,3,w,LoDemNoTar,g,1,0.6353736794553697,,,,,,,,,,,,,,,,,,331,2023-11-16_10h48.17.344,leap3,2022.2.5,59.99239310218387,
,,,,,,,,,,,,,,,,,,,,14,0,14,0,,,,,,,,,,,,,,,,,,,,,,,,,,NA,,,,,,,,,,,,,,,,,331,2023-11-16_10h48.17.344,leap3,2022.2.5,59.99239310218387,
,,,,,,,,,,,,,,,,,,,,15,0,15,0,0,0,0,0,,,,,,snays,nw,h,lower,,,,,,,1,nw,HiDemTar,h,1,0.7510879244655371,,,,,,,,,,,,,,,,,,331,2023-11-16_10h48.17.344,leap3,2022.2.5,59.99239310218387,
,,,,,,,,,,,,,,,,,,,,15,0,15,0,1,0,1,0,,,,,,arrested,w,g,lower,,,,,,,1,w,HiDemTar,g,1,0.5110006812028587,,,,,,,,,,,,,,,,,,331,2023-11-16_10h48.17.344,leap3,2022.2.5,59.99239310218387,
,,,,,,,,,,,,,,,,,,,,15,0,15,0,2,0,2,0,,,,,,snocks,nw,h,lower,,,,,,,1,nw,HiDemTar,h,1,0.9931357526220381,,,,,,,,,,,,,,,,,,331,2023-11-16_10h48.17.344,leap3,2022.2.5,59.99239310218387,
,,,,,,,,,,,,,,,,,,,,15,0,15,0,3,0,3,0,,,,,,mitro,nw,h,lower,,,,,,,1,nw,HiDemTar,h,1,0.799850937910378,,,,,,,,,,,,,,,,,,331,2023-11-16_10h48.17.344,leap3,2022.2.5,59.99239310218387,
,,,,,,,,,,,,,,,,,,,,15,0,15,0,4,0,4,0,,,,,,puggers,nw,h,lower,,,,,,,1,nw,HiDemTar,h,1,0.8304770505055785,,,,,,,,,,,,,,,,,,331,2023-11-16_10h48.17.344,leap3,2022.2.5,59.99239310218387,
,,,,,,,,,,,,,,,,,,,,15,0,15,0,5,0,5,0,,,,,,aligning,w,g,lower,,,,,,,1,w,HiDemTar,g,1,0.6438407450914383,,,,,,,,,,,,,,,,,,331,2023-11-16_10h48.17.344,leap3,2022.2.5,59.99239310218387,
,,,,,,,,,,,,,,,,,,,,15,0,15,0,6,0,6,0,,,,,,ounwit,nw,h,lower,,,,,,,1,nw,HiDemTar,h,1,0.80847592279315,,,,,,,,,,,,,,,,,,331,2023-11-16_10h48.17.344,leap3,2022.2.5,59.99239310218387,
,,,,,,,,,,,,,,,,,,,,15,0,15,0,7,0,7,0,,,,,,plashed,nw,h,lower,,,,,,,1,nw,HiDemTar,h,1,0.6705175470560789,,,,,,,,,,,,,,,,,,331,2023-11-16_10h48.17.344,leap3,2022.2.5,59.99239310218387,
,,,,,,,,,,,,,,,,,,,,15,0,15,0,8,0,8,0,,,,,,gymnasium,w,g,lower,,,,,,,1,w,HiDemTar,g,1,0.6649820893071592,,,,,,,,,,,,,,,,,,331,2023-11-16_10h48.17.344,leap3,2022.2.5,59.99239310218387,
,,,,,,,,,,,,,,,,,,,,15,0,15,0,9,0,9,0,,,,,,practice,w,g,lower,,,,,,,1,w,HiDemTar,g,1,0.5250379666686058,,,,,,,,,,,,,,,,,,331,2023-11-16_10h48.17.344,leap3,2022.2.5,59.99239310218387,
,,,,,,,,,,,,,,,,,,,,15,0,15,0,10,0,10,0,,,,,,sequence,w,g,lower,,,,,,,1,w,HiDemTar,g,1,0.5822620871476829,,,,,,,,,,,,,,,,,,331,2023-11-16_10h48.17.344,leap3,2022.2.5,59.99239310218387,
,,,,,,,,,,,,,,,,,,,,15,0,15,0,11,0,11,0,,,,,,tiery,nw,h,lower,,,,,,,1,nw,HiDemTar,g,0,0.9099734430201352,,,,,,,,,,,,,,,,,,331,2023-11-16_10h48.17.344,leap3,2022.2.5,59.99239310218387,
,,,,,,,,,,,,,,,,,,,,15,0,15,0,12,0,12,0,,,,,,actual,w,g,lower,,,,,,,1,w,HiDemTar,g,1,0.48847977677360177,,,,,,,,,,,,,,,,,,331,2023-11-16_10h48.17.344,leap3,2022.2.5,59.99239310218387,
,,,,,,,,,,,,,,,,,,,,15,0,15,0,13,0,13,0,,,,,,protest,w,g,lower,,,,,,,1,w,HiDemTar,g,1,0.5630551734939218,,,,,,,,,,,,,,,,,,331,2023-11-16_10h48.17.344,leap3,2022.2.5,59.99239310218387,
,,,,,,,,,,,,,,,,,,,,15,0,15,0,14,0,14,0,,,,,,preserve,w,g,lower,,,,,,,1,w,HiDemTar,g,1,0.49106541834771633,,,,,,,,,,,,,,,,,,331,2023-11-16_10h48.17.344,leap3,2022.2.5,59.99239310218387,
,,,,,,,,,,,,,,,,,,,,15,0,15,0,15,0,15,0,,,,,,churnad,nw,h,lower,,,,,,,1,nw,HiDemTar,h,1,0.6777258915826678,,,,,,,,,,,,,,,,,,331,2023-11-16_10h48.17.344,leap3,2022.2.5,59.99239310218387,
,,,,,,,,,,,,,,,,,,,,15,0,15,0,16,0,16,0,,,,,,blocking,w,g,lower,,,,,,,1,w,HiDemTar,g,1,0.8730874960310757,,,,,,,,,,,,,,,,,,331,2023-11-16_10h48.17.344,leap3,2022.2.5,59.99239310218387,
,,,,,,,,,,,,,,,,,,,,15,0,15,0,17,0,17,0,,,,,,omners,nw,h,lower,,,,,,,1,nw,HiDemTar,h,1,0.6354481698945165,,,,,,,,,,,,,,,,,,331,2023-11-16_10h48.17.344,leap3,2022.2.5,59.99239310218387,
,,,,,,,,,,,,,,,,,,,,15,0,15,0,18,0,18,0,,,,,,curtail,w,g,lower,,,,,,,1,w,HiDemTar,g,1,0.959991536103189,,,,,,,,,,,,,,,,,,331,2023-11-16_10h48.17.344,leap3,2022.2.5,59.99239310218387,
,,,,,,,,,,,,,,,,,,,,15,0,15,0,19,0,19,0,,,,,,derisury,nw,h,lower,,,,,,,1,nw,HiDemTar,h,1,0.7599814054556191,,,,,,,,,,,,,,,,,,331,2023-11-16_10h48.17.344,leap3,2022.2.5,59.99239310218387,
,,,,,,,,,,,,,,,,,,,,15,0,15,0,20,0,20,0,,,,,,bellicove,nw,h,lower,,,,,,,1,nw,HiDemTar,h,1,0.7919940310530365,,,,,,,,,,,,,,,,,,331,2023-11-16_10h48.17.344,leap3,2022.2.5,59.99239310218387,
,,,,,,,,,,,,,,,,,,,,15,0,15,0,21,0,21,0,,,,,,saturate,w,g,lower,,,,,,,1,w,HiDemTar,g,1,0.8145626094192266,,,,,,,,,,,,,,,,,,331,2023-11-16_10h48.17.344,leap3,2022.2.5,59.99239310218387,
,,,,,,,,,,,,,,,,,,,,15,0,15,0,22,0,22,0,,,,,,ronvince,nw,h,lower,,,,,,,1,nw,HiDemTar,h,1,0.683629828505218,,,,,,,,,,,,,,,,,,331,2023-11-16_10h48.17.344,leap3,2022.2.5,59.99239310218387,
,,,,,,,,,,,,,,,,,,,,15,0,15,0,23,0,23,0,,,,,,squirrel,target,q,lower,,,,,,,1,target,HiDemTar,q,1,1.2304459963925183,,1,,,,,,,,,,,,,,,,331,2023-11-16_10h48.17.344,leap3,2022.2.5,59.99239310218387,
,,,,,,,,,,,,,,,,,,,,15,0,15,0,24,0,24,0,,,,,,ragtam,nw,h,lower,,,,,,,1,aftertar1,HiDemTar,h,1,0.5893154917284846,,,,,,,,,,,,,,,,,,331,2023-11-16_10h48.17.344,leap3,2022.2.5,59.99239310218387,
,,,,,,,,,,,,,,,,,,,,15,0,15,0,25,0,25,0,,,,,,seldom,w,g,lower,,,,,,,1,aftertar2,HiDemTar,g,1,0.7560585802420974,,,,,,,,,,,,,,,,,,331,2023-11-16_10h48.17.344,leap3,2022.2.5,59.99239310218387,
,,,,,,,,,,,,,,,,,,,,15,0,15,0,26,0,26,0,,,,,,attract,w,g,lower,,,,,,,1,aftertar3,HiDemTar,g,1,0.5229201246984303,,,,,,,,,,,,,,,,,,331,2023-11-16_10h48.17.344,leap3,2022.2.5,59.99239310218387,
,,,,,,,,,,,,,,,,,,,,15,0,15,0,27,0,27,0,,,,,,huests,nw,h,lower,,,,,,,1,w,HiDemTar,h,1,0.5409613470546901,,,,,,,,,,,,,,,,,,331,2023-11-16_10h48.17.344,leap3,2022.2.5,59.99239310218387,
,,,,,,,,,,,,,,,,,,,,15,0,15,0,28,0,28,0,,,,,,organize,w,g,lower,,,,,,,1,nw,HiDemTar,g,1,0.6216734214685857,,,,,,,,,,,,,,,,,,331,2023-11-16_10h48.17.344,leap3,2022.2.5,59.99239310218387,
,,,,,,,,,,,,,,,,,,,,15,0,15,0,29,0,29,0,,,,,,enabled,w,g,lower,,,,,,,1,w,HiDemTar,g,1,0.7791254157200456,,,,,,,,,,,,,,,,,,331,2023-11-16_10h48.17.344,leap3,2022.2.5,59.99239310218387,
,,,,,,,,,,,,,,,,,,,,15,0,15,0,,,,,,,,,,,,,,,,,,,,,,,,,,1,,,,,,,,,,,,,,,,,331,2023-11-16_10h48.17.344,leap3,2022.2.5,59.99239310218387,
,,,,,,,,,,,,,,,,,,,,16,0,16,0,0,0,0,0,,,,,,veranpah,nw,h,upper,,,,,,,3,nw,LoDemNoTar,h,1,0.8754245052114129,,,,,,,,,,,,,,,,,,331,2023-11-16_10h48.17.344,leap3,2022.2.5,59.99239310218387,
,,,,,,,,,,,,,,,,,,,,16,0,16,0,1,0,1,0,,,,,,leather,w,g,upper,,,,,,,3,w,LoDemNoTar,g,1,0.7575566633604467,,,,,,,,,,,,,,,,,,331,2023-11-16_10h48.17.344,leap3,2022.2.5,59.99239310218387,
,,,,,,,,,,,,,,,,,,,,16,0,16,0,2,0,2,0,,,,,,function,w,g,upper,,,,,,,3,w,LoDemNoTar,g,1,0.5666303774341941,,,,,,,,,,,,,,,,,,331,2023-11-16_10h48.17.344,leap3,2022.2.5,59.99239310218387,
,,,,,,,,,,,,,,,,,,,,16,0,16,0,3,0,3,0,,,,,,baults,nw,h,upper,,,,,,,3,nw,LoDemNoTar,h,1,0.8944463510997593,,,,,,,,,,,,,,,,,,331,2023-11-16_10h48.17.344,leap3,2022.2.5,59.99239310218387,
,,,,,,,,,,,,,,,,,,,,16,0,16,0,4,0,4,0,,,,,,prawls,nw,h,upper,,,,,,,3,nw,LoDemNoTar,h,1,0.5931270779110491,,,,,,,,,,,,,,,,,,331,2023-11-16_10h48.17.344,leap3,2022.2.5,59.99239310218387,
,,,,,,,,,,,,,,,,,,,,16,0,16,0,5,0,5,0,,,,,,warden,w,g,upper,,,,,,,3,w,LoDemNoTar,h,0,0.9118641726672649,,,,,,,,,,,,,,,,,,331,2023-11-16_10h48.17.344,leap3,2022.2.5,59.99239310218387,
,,,,,,,,,,,,,,,,,,,,16,0,16,0,6,0,6,0,,,,,,combat,w,g,upper,,,,,,,3,w,LoDemNoTar,g,1,0.5458909501321614,,,,,,,,,,,,,,,,,,331,2023-11-16_10h48.17.344,leap3,2022.2.5,59.99239310218387,
,,,,,,,,,,,,,,,,,,,,16,0,16,0,7,0,7,0,,,,,,colored,w,g,upper,,,,,,,3,w,LoDemNoTar,g,1,0.5786719848401845,,,,,,,,,,,,,,,,,,331,2023-11-16_10h48.17.344,leap3,2022.2.5,59.99239310218387,
,,,,,,,,,,,,,,,,,,,,16,0,16,0,8,0,8,0,,,,,,oppose,w,g,upper,,,,,,,3,w,LoDemNoTar,g,1,1.154030192643404,,,,,,,,,,,,,,,,,,331,2023-11-16_10h48.17.344,leap3,2022.2.5,59.99239310218387,
,,,,,,,,,,,,,,,,,,,,16,0,16,0,9,0,9,0,,,,,,congraks,nw,h,upper,,,,,,,3,nw,LoDemNoTar,h,1,0.6170232398435473,,,,,,,,,,,,,,,,,,331,2023-11-16_10h48.17.344,leap3,2022.2.5,59.99239310218387,
,,,,,,,,,,,,,,,,,,,,16,0,16,0,10,0,10,0,,,,,,elpousal,nw,h,upper,,,,,,,3,nw,LoDemNoTar,h,1,0.534993845038116,,,,,,,,,,,,,,,,,,331,2023-11-16_10h48.17.344,leap3,2022.2.5,59.99239310218387,
