demoRace_loop.thisRepN,demoRace_loop.thisTrialN,demoRace_loop.thisN,demoRace_loop.thisIndex,LDTunderstand.thisRepN,LDTunderstand.thisTrialN,LDTunderstand.thisN,LDTunderstand.thisIndex,pracBlocks.thisRepN,pracBlocks.thisTrialN,pracBlocks.thisN,pracBlocks.thisIndex,pracTrial.thisRepN,pracTrial.thisTrialN,pracTrial.thisN,pracTrial.thisIndex,PMunderstand.thisRepN,PMunderstand.thisTrialN,PMunderstand.thisN,PMunderstand.thisIndex,LDT_block.thisRepN,LDT_block.thisTrialN,LDT_block.thisN,LDT_block.thisIndex,LDT_trial.thisRepN,LDT_trial.thisTrialN,LDT_trial.thisN,LDT_trial.thisIndex,ageTextbox.text,genderTextbox.text,race,raceResp,LDTunderstand,stim,word_type,corr_key,stim_location,LDTpracKey.keys,LDTpracKey.corr,LDTpracKey.rt,PMunderstand,cueTextbox.text,intentionTextbox.text,block_type,role,block_desc,LDTResp.keys,LDTResp.corr,LDTResp.rt,pressedQ,pressedQ_blank,PM_accuracy,postQ1,Q2Textbox.text,Q3Textbox.text,Q4,Q5,Q6Key.keys,Q6Key.rt,postQ7_correct,postQ7,Q8Textbox.text,education,medTextbox.text,health,healthLimit,psych,participant,date,expName,psychopyVersion,frameRate,
0,0,0,0,,,,,,,,,,,,,,,,,,,,,,,,,"
20 ",Female,American Indian or Alaska Native,n,,,,,,,,,,,,,,,,,,,,,,,,,,,,,,,,,,,,332,2023-11-17_11h25.40.071,leap3,2022.2.5,60.00653603816614,
1,0,1,0,,,,,,,,,,,,,,,,,,,,,,,,,,,Asian,y,,,,,,,,,,,,,,,,,,,,,,,,,,,,,,,,,,,,332,2023-11-17_11h25.40.071,leap3,2022.2.5,60.00653603816614,
2,0,2,0,,,,,,,,,,,,,,,,,,,,,,,,,,,Black or African American,n,,,,,,,,,,,,,,,,,,,,,,,,,,,,,,,,,,,,332,2023-11-17_11h25.40.071,leap3,2022.2.5,60.00653603816614,
3,0,3,0,,,,,,,,,,,,,,,,,,,,,,,,,,,Native Hawaiian or other Pacific Islander,n,,,,,,,,,,,,,,,,,,,,,,,,,,,,,,,,,,,,332,2023-11-17_11h25.40.071,leap3,2022.2.5,60.00653603816614,
4,0,4,0,,,,,,,,,,,,,,,,,,,,,,,,,,,White,y,,,,,,,,,,,,,,,,,,,,,,,,,,,,,,,,,,,,332,2023-11-17_11h25.40.071,leap3,2022.2.5,60.00653603816614,
,,,,0,0,0,0,,,,,,,,,,,,,,,,,,,,,,,,,y,,,,,,,,,,,,,,,,,,,,,,,,,,,,,,,,,,,332,2023-11-17_11h25.40.071,leap3,2022.2.5,60.00653603816614,
,,,,,,,,0,0,0,0,0,0,0,0,,,,,,,,,,,,,,,,,,grutch,nw,h,upper,g,0,0.4716297256818507,,,,,,,,,,,,,,,,,,,,,,,,,,,,332,2023-11-17_11h25.40.071,leap3,2022.2.5,60.00653603816614,
,,,,,,,,0,0,0,0,1,0,1,0,,,,,,,,,,,,,,,,,,turative,nw,h,upper,h,1,0.8329753540747333,,,,,,,,,,,,,,,,,,,,,,,,,,,,332,2023-11-17_11h25.40.071,leap3,2022.2.5,60.00653603816614,
,,,,,,,,0,0,0,0,2,0,2,0,,,,,,,,,,,,,,,,,,slumber,w,g,upper,g,1,0.5425343784445431,,,,,,,,,,,,,,,,,,,,,,,,,,,,332,2023-11-17_11h25.40.071,leap3,2022.2.5,60.00653603816614,
,,,,,,,,0,0,0,0,3,0,3,0,,,,,,,,,,,,,,,,,,unscrew,w,g,upper,g,1,0.6304484273132402,,,,,,,,,,,,,,,,,,,,,,,,,,,,332,2023-11-17_11h25.40.071,leap3,2022.2.5,60.00653603816614,
,,,,,,,,0,0,0,0,4,0,4,0,,,,,,,,,,,,,,,,,,crinklo,nw,h,upper,h,1,0.6106034145341255,,,,,,,,,,,,,,,,,,,,,,,,,,,,332,2023-11-17_11h25.40.071,leap3,2022.2.5,60.00653603816614,
,,,,,,,,0,0,0,0,5,0,5,0,,,,,,,,,,,,,,,,,,alolition,nw,h,upper,h,1,0.6976748896267964,,,,,,,,,,,,,,,,,,,,,,,,,,,,332,2023-11-17_11h25.40.071,leap3,2022.2.5,60.00653603816614,
,,,,,,,,0,0,0,0,6,0,6,0,,,,,,,,,,,,,,,,,,overshoot,w,g,upper,g,1,0.5243715335964225,,,,,,,,,,,,,,,,,,,,,,,,,,,,332,2023-11-17_11h25.40.071,leap3,2022.2.5,60.00653603816614,
,,,,,,,,0,0,0,0,7,0,7,0,,,,,,,,,,,,,,,,,,umpire,w,g,upper,g,1,0.6378389084420633,,,,,,,,,,,,,,,,,,,,,,,,,,,,332,2023-11-17_11h25.40.071,leap3,2022.2.5,60.00653603816614,
,,,,,,,,0,0,0,0,8,0,8,0,,,,,,,,,,,,,,,,,,infinity,w,g,upper,g,1,0.48170617973664775,,,,,,,,,,,,,,,,,,,,,,,,,,,,332,2023-11-17_11h25.40.071,leap3,2022.2.5,60.00653603816614,
,,,,,,,,0,0,0,0,9,0,9,0,,,,,,,,,,,,,,,,,,hasking,nw,h,upper,h,1,0.6781321439921157,,,,,,,,,,,,,,,,,,,,,,,,,,,,332,2023-11-17_11h25.40.071,leap3,2022.2.5,60.00653603816614,
,,,,,,,,0,0,0,0,10,0,10,0,,,,,,,,,,,,,,,,,,raestro,nw,h,upper,h,1,0.6245563701086212,,,,,,,,,,,,,,,,,,,,,,,,,,,,332,2023-11-17_11h25.40.071,leap3,2022.2.5,60.00653603816614,
,,,,,,,,0,0,0,0,11,0,11,0,,,,,,,,,,,,,,,,,,lurshing,nw,h,upper,h,1,1.022034343186533,,,,,,,,,,,,,,,,,,,,,,,,,,,,332,2023-11-17_11h25.40.071,leap3,2022.2.5,60.00653603816614,
,,,,,,,,0,0,0,0,12,0,12,0,,,,,,,,,,,,,,,,,,sponsor,w,g,upper,g,1,0.49150387263216544,,,,,,,,,,,,,,,,,,,,,,,,,,,,332,2023-11-17_11h25.40.071,leap3,2022.2.5,60.00653603816614,
,,,,,,,,0,0,0,0,13,0,13,0,,,,,,,,,,,,,,,,,,summary,w,g,upper,g,1,0.502260676046717,,,,,,,,,,,,,,,,,,,,,,,,,,,,332,2023-11-17_11h25.40.071,leap3,2022.2.5,60.00653603816614,
,,,,,,,,0,0,0,0,,,,,,,,,,,,,,,,,,,,,,,,,,,,,,,,,,,,,,,,,,,,,,,,,,,,,,,,332,2023-11-17_11h25.40.071,leap3,2022.2.5,60.00653603816614,
,,,,,,,,1,0,1,0,0,0,0,0,,,,,,,,,,,,,,,,,,curlecs,nw,h,lower,h,1,0.648211670370074,,,,,,,,,,,,,,,,,,,,,,,,,,,,332,2023-11-17_11h25.40.071,leap3,2022.2.5,60.00653603816614,
,,,,,,,,1,0,1,0,1,0,1,0,,,,,,,,,,,,,,,,,,lumbigo,nw,h,lower,h,1,0.5409836454055039,,,,,,,,,,,,,,,,,,,,,,,,,,,,332,2023-11-17_11h25.40.071,leap3,2022.2.5,60.00653603816614,
,,,,,,,,1,0,1,0,2,0,2,0,,,,,,,,,,,,,,,,,,grimace,w,g,lower,g,1,0.49381937795260455,,,,,,,,,,,,,,,,,,,,,,,,,,,,332,2023-11-17_11h25.40.071,leap3,2022.2.5,60.00653603816614,
,,,,,,,,1,0,1,0,3,0,3,0,,,,,,,,,,,,,,,,,,busted,w,g,lower,g,1,0.5523747794213705,,,,,,,,,,,,,,,,,,,,,,,,,,,,332,2023-11-17_11h25.40.071,leap3,2022.2.5,60.00653603816614,
,,,,,,,,1,0,1,0,4,0,4,0,,,,,,,,,,,,,,,,,,grocus,nw,h,lower,h,1,0.568594572978327,,,,,,,,,,,,,,,,,,,,,,,,,,,,332,2023-11-17_11h25.40.071,leap3,2022.2.5,60.00653603816614,
,,,,,,,,1,0,1,0,5,0,5,0,,,,,,,,,,,,,,,,,,trotch,nw,h,lower,h,1,0.5270326762547484,,,,,,,,,,,,,,,,,,,,,,,,,,,,332,2023-11-17_11h25.40.071,leap3,2022.2.5,60.00653603816614,
,,,,,,,,1,0,1,0,6,0,6,0,,,,,,,,,,,,,,,,,,tricycle,w,g,lower,g,1,0.5525532262690831,,,,,,,,,,,,,,,,,,,,,,,,,,,,332,2023-11-17_11h25.40.071,leap3,2022.2.5,60.00653603816614,
,,,,,,,,1,0,1,0,7,0,7,0,,,,,,,,,,,,,,,,,,revival,w,g,lower,g,1,0.5212485479569295,,,,,,,,,,,,,,,,,,,,,,,,,,,,332,2023-11-17_11h25.40.071,leap3,2022.2.5,60.00653603816614,
,,,,,,,,1,0,1,0,8,0,8,0,,,,,,,,,,,,,,,,,,picture,w,g,lower,g,1,0.42667667640489526,,,,,,,,,,,,,,,,,,,,,,,,,,,,332,2023-11-17_11h25.40.071,leap3,2022.2.5,60.00653603816614,
,,,,,,,,1,0,1,0,9,0,9,0,,,,,,,,,,,,,,,,,,julled,nw,h,lower,h,1,0.4794068968622014,,,,,,,,,,,,,,,,,,,,,,,,,,,,332,2023-11-17_11h25.40.071,leap3,2022.2.5,60.00653603816614,
,,,,,,,,1,0,1,0,10,0,10,0,,,,,,,,,,,,,,,,,,latador,nw,h,lower,h,1,0.483793577644974,,,,,,,,,,,,,,,,,,,,,,,,,,,,332,2023-11-17_11h25.40.071,leap3,2022.2.5,60.00653603816614,
,,,,,,,,1,0,1,0,11,0,11,0,,,,,,,,,,,,,,,,,,treeps,nw,h,lower,g,0,0.4540707529667998,,,,,,,,,,,,,,,,,,,,,,,,,,,,332,2023-11-17_11h25.40.071,leap3,2022.2.5,60.00653603816614,
,,,,,,,,1,0,1,0,12,0,12,0,,,,,,,,,,,,,,,,,,hiring,w,g,lower,g,1,0.5381377655576216,,,,,,,,,,,,,,,,,,,,,,,,,,,,332,2023-11-17_11h25.40.071,leap3,2022.2.5,60.00653603816614,
,,,,,,,,1,0,1,0,13,0,13,0,,,,,,,,,,,,,,,,,,reputable,w,g,lower,g,1,0.4989655338722514,,,,,,,,,,,,,,,,,,,,,,,,,,,,332,2023-11-17_11h25.40.071,leap3,2022.2.5,60.00653603816614,
,,,,,,,,1,0,1,0,,,,,,,,,,,,,,,,,,,,,,,,,,,,,,,,,,,,,,,,,,,,,,,,,,,,,,,,332,2023-11-17_11h25.40.071,leap3,2022.2.5,60.00653603816614,
,,,,,,,,,,,,,,,,0,0,0,0,,,,,,,,,,,,,,,,,,,,,y,,,,,,,,,,,,,,,,,,,,,,,,,,,332,2023-11-17_11h25.40.071,leap3,2022.2.5,60.00653603816614,
,,,,,,,,,,,,,,,,,,,,0,0,0,0,0,0,0,0,,,,,,undertake,w,g,upper,,,,,animal,"
q",1,w,HiDemTar,h,0,0.7710979937546654,,,,,,,,,,,,,,,,,,,332,2023-11-17_11h25.40.071,leap3,2022.2.5,60.00653603816614,
,,,,,,,,,,,,,,,,,,,,0,0,0,0,1,0,1,0,,,,,,reborn,w,g,upper,,,,,,,1,w,HiDemTar,g,1,0.8750755710352678,,,,,,,,,,,,,,,,,,,332,2023-11-17_11h25.40.071,leap3,2022.2.5,60.00653603816614,
,,,,,,,,,,,,,,,,,,,,0,0,0,0,2,0,2,0,,,,,,recipus,nw,h,upper,,,,,,,1,nw,HiDemTar,h,1,0.7832131783943623,,,,,,,,,,,,,,,,,,,332,2023-11-17_11h25.40.071,leap3,2022.2.5,60.00653603816614,
,,,,,,,,,,,,,,,,,,,,0,0,0,0,3,0,3,0,,,,,,punctual,w,g,upper,,,,,,,1,w,HiDemTar,g,1,0.6872150562267052,,,,,,,,,,,,,,,,,,,332,2023-11-17_11h25.40.071,leap3,2022.2.5,60.00653603816614,
,,,,,,,,,,,,,,,,,,,,0,0,0,0,4,0,4,0,,,,,,guivers,nw,h,upper,,,,,,,1,nw,HiDemTar,h,1,0.6026742821122753,,,,,,,,,,,,,,,,,,,332,2023-11-17_11h25.40.071,leap3,2022.2.5,60.00653603816614,
,,,,,,,,,,,,,,,,,,,,0,0,0,0,5,0,5,0,,,,,,cherry,w,g,upper,,,,,,,1,w,HiDemTar,g,1,0.4494817882659845,,,,,,,,,,,,,,,,,,,332,2023-11-17_11h25.40.071,leap3,2022.2.5,60.00653603816614,
,,,,,,,,,,,,,,,,,,,,0,0,0,0,6,0,6,0,,,,,,padicals,nw,h,upper,,,,,,,1,nw,HiDemTar,h,1,0.7668053369270638,,,,,,,,,,,,,,,,,,,332,2023-11-17_11h25.40.071,leap3,2022.2.5,60.00653603816614,
,,,,,,,,,,,,,,,,,,,,0,0,0,0,7,0,7,0,,,,,,bloves,nw,h,upper,,,,,,,1,nw,HiDemTar,h,1,0.6234737704071449,,,,,,,,,,,,,,,,,,,332,2023-11-17_11h25.40.071,leap3,2022.2.5,60.00653603816614,
,,,,,,,,,,,,,,,,,,,,0,0,0,0,8,0,8,0,,,,,,gund,nw,h,upper,,,,,,,1,nw,HiDemTar,h,1,0.5415693086688407,,,,,,,,,,,,,,,,,,,332,2023-11-17_11h25.40.071,leap3,2022.2.5,60.00653603816614,
,,,,,,,,,,,,,,,,,,,,0,0,0,0,9,0,9,0,,,,,,borrent,nw,h,upper,,,,,,,1,nw,HiDemTar,g,0,0.8621207922551548,,,,,,,,,,,,,,,,,,,332,2023-11-17_11h25.40.071,leap3,2022.2.5,60.00653603816614,
,,,,,,,,,,,,,,,,,,,,0,0,0,0,10,0,10,0,,,,,,mineluyer,nw,h,upper,,,,,,,1,nw,HiDemTar,h,1,0.6427046478784177,,,,,,,,,,,,,,,,,,,332,2023-11-17_11h25.40.071,leap3,2022.2.5,60.00653603816614,
,,,,,,,,,,,,,,,,,,,,0,0,0,0,11,0,11,0,,,,,,fuhrek,nw,h,upper,,,,,,,1,nw,HiDemTar,h,1,0.576014188292902,,,,,,,,,,,,,,,,,,,332,2023-11-17_11h25.40.071,leap3,2022.2.5,60.00653603816614,
,,,,,,,,,,,,,,,,,,,,0,0,0,0,12,0,12,0,,,,,,comply,w,g,upper,,,,,,,1,w,HiDemTar,g,1,0.608148859711946,,,,,,,,,,,,,,,,,,,332,2023-11-17_11h25.40.071,leap3,2022.2.5,60.00653603816614,
,,,,,,,,,,,,,,,,,,,,0,0,0,0,13,0,13,0,,,,,,donastic,nw,h,upper,,,,,,,1,nw,HiDemTar,h,1,0.678948232147377,,,,,,,,,,,,,,,,,,,332,2023-11-17_11h25.40.071,leap3,2022.2.5,60.00653603816614,
,,,,,,,,,,,,,,,,,,,,0,0,0,0,14,0,14,0,,,,,,gorilla,target,q,upper,,,,,,,1,target,HiDemTar,g,0,0.4989946680580033,1,1,,,,,,,,,,,,,,,,,332,2023-11-17_11h25.40.071,leap3,2022.2.5,60.00653603816614,
,,,,,,,,,,,,,,,,,,,,0,0,0,0,15,0,15,0,,,,,,caloric,w,g,upper,,,,,,,1,aftertar1,HiDemTar,g,1,1.446431307005696,,,,,,,,,,,,,,,,,,,332,2023-11-17_11h25.40.071,leap3,2022.2.5,60.00653603816614,
,,,,,,,,,,,,,,,,,,,,0,0,0,0,16,0,16,0,,,,,,rarely,w,g,upper,,,,,,,1,aftertar2,HiDemTar,g,1,0.6688774062786251,,,,,,,,,,,,,,,,,,,332,2023-11-17_11h25.40.071,leap3,2022.2.5,60.00653603816614,
,,,,,,,,,,,,,,,,,,,,0,0,0,0,17,0,17,0,,,,,,dests,nw,h,upper,,,,,,,1,aftertar3,HiDemTar,h,1,0.6879857877647737,,,,,,,,,,,,,,,,,,,332,2023-11-17_11h25.40.071,leap3,2022.2.5,60.00653603816614,
,,,,,,,,,,,,,,,,,,,,0,0,0,0,18,0,18,0,,,,,,glamorous,w,g,upper,,,,,,,1,nw,HiDemTar,g,1,0.5705415970878676,,,,,,,,,,,,,,,,,,,332,2023-11-17_11h25.40.071,leap3,2022.2.5,60.00653603816614,
,,,,,,,,,,,,,,,,,,,,0,0,0,0,19,0,19,0,,,,,,intercede,w,g,upper,,,,,,,1,w,HiDemTar,g,1,0.7065101613115985,,,,,,,,,,,,,,,,,,,332,2023-11-17_11h25.40.071,leap3,2022.2.5,60.00653603816614,
,,,,,,,,,,,,,,,,,,,,0,0,0,0,20,0,20,0,,,,,,nature,w,g,upper,,,,,,,1,w,HiDemTar,g,1,0.8372825779952109,,,,,,,,,,,,,,,,,,,332,2023-11-17_11h25.40.071,leap3,2022.2.5,60.00653603816614,
,,,,,,,,,,,,,,,,,,,,0,0,0,0,21,0,21,0,,,,,,volition,w,g,upper,,,,,,,1,w,HiDemTar,g,1,0.7386140432063257,,,,,,,,,,,,,,,,,,,332,2023-11-17_11h25.40.071,leap3,2022.2.5,60.00653603816614,
,,,,,,,,,,,,,,,,,,,,0,0,0,0,22,0,22,0,,,,,,realize,w,g,upper,,,,,,,1,w,HiDemTar,g,1,0.4985083258652594,,,,,,,,,,,,,,,,,,,332,2023-11-17_11h25.40.071,leap3,2022.2.5,60.00653603816614,
,,,,,,,,,,,,,,,,,,,,0,0,0,0,23,0,23,0,,,,,,rumblos,nw,h,upper,,,,,,,1,w,HiDemTar,h,1,0.575407336538774,,,,,,,,,,,,,,,,,,,332,2023-11-17_11h25.40.071,leap3,2022.2.5,60.00653603816614,
,,,,,,,,,,,,,,,,,,,,0,0,0,0,24,0,24,0,,,,,,enabled,w,g,upper,,,,,,,1,nw,HiDemTar,g,1,0.5755109615129186,,,,,,,,,,,,,,,,,,,332,2023-11-17_11h25.40.071,leap3,2022.2.5,60.00653603816614,
,,,,,,,,,,,,,,,,,,,,0,0,0,0,25,0,25,0,,,,,,knowledge,w,g,upper,,,,,,,1,w,HiDemTar,g,1,0.5435593719303142,,,,,,,,,,,,,,,,,,,332,2023-11-17_11h25.40.071,leap3,2022.2.5,60.00653603816614,
,,,,,,,,,,,,,,,,,,,,0,0,0,0,26,0,26,0,,,,,,lenie,nw,h,upper,,,,,,,1,w,HiDemTar,h,1,0.5449578126426786,,,,,,,,,,,,,,,,,,,332,2023-11-17_11h25.40.071,leap3,2022.2.5,60.00653603816614,
,,,,,,,,,,,,,,,,,,,,0,0,0,0,27,0,27,0,,,,,,ucility,nw,h,upper,,,,,,,1,nw,HiDemTar,h,1,0.610376631419058,,,,,,,,,,,,,,,,,,,332,2023-11-17_11h25.40.071,leap3,2022.2.5,60.00653603816614,
,,,,,,,,,,,,,,,,,,,,0,0,0,0,28,0,28,0,,,,,,ragtam,nw,h,upper,,,,,,,1,nw,HiDemTar,h,1,0.5202026970509905,,,,,,,,,,,,,,,,,,,332,2023-11-17_11h25.40.071,leap3,2022.2.5,60.00653603816614,
,,,,,,,,,,,,,,,,,,,,0,0,0,0,29,0,29,0,,,,,,kettle,w,g,upper,,,,,,,1,nw,HiDemTar,g,1,0.562222463922808,,,,,,,,,,,,,,,,,,,332,2023-11-17_11h25.40.071,leap3,2022.2.5,60.00653603816614,
,,,,,,,,,,,,,,,,,,,,0,0,0,0,,,,,,,,,,,,,,,,,,,,,,,,,,,,1,,,,,,,,,,,,,,,,332,2023-11-17_11h25.40.071,leap3,2022.2.5,60.00653603816614,
,,,,,,,,,,,,,,,,,,,,1,0,1,0,0,0,0,0,,,,,,seartfelt,nw,h,upper,,,,,,,1,nw,HiDemTar,h,1,0.9072642069077119,,,,,,,,,,,,,,,,,,,332,2023-11-17_11h25.40.071,leap3,2022.2.5,60.00653603816614,
,,,,,,,,,,,,,,,,,,,,1,0,1,0,1,0,1,0,,,,,,army,w,g,upper,,,,,,,1,w,HiDemTar,g,1,0.5819711352523882,,,,,,,,,,,,,,,,,,,332,2023-11-17_11h25.40.071,leap3,2022.2.5,60.00653603816614,
,,,,,,,,,,,,,,,,,,,,1,0,1,0,2,0,2,0,,,,,,permute,w,g,upper,,,,,,,1,w,HiDemTar,g,1,0.7333149328333093,,,,,,,,,,,,,,,,,,,332,2023-11-17_11h25.40.071,leap3,2022.2.5,60.00653603816614,
,,,,,,,,,,,,,,,,,,,,1,0,1,0,3,0,3,0,,,,,,frowsed,nw,h,upper,,,,,,,1,nw,HiDemTar,h,1,0.5672358606825583,,,,,,,,,,,,,,,,,,,332,2023-11-17_11h25.40.071,leap3,2022.2.5,60.00653603816614,
,,,,,,,,,,,,,,,,,,,,1,0,1,0,4,0,4,0,,,,,,oalis,nw,h,upper,,,,,,,1,nw,HiDemTar,h,1,0.6631101625825977,,,,,,,,,,,,,,,,,,,332,2023-11-17_11h25.40.071,leap3,2022.2.5,60.00653603816614,
,,,,,,,,,,,,,,,,,,,,1,0,1,0,5,0,5,0,,,,,,guffy,nw,h,upper,,,,,,,1,nw,HiDemTar,h,1,0.6278829639632022,,,,,,,,,,,,,,,,,,,332,2023-11-17_11h25.40.071,leap3,2022.2.5,60.00653603816614,
,,,,,,,,,,,,,,,,,,,,1,0,1,0,6,0,6,0,,,,,,apticle,nw,h,upper,,,,,,,1,nw,HiDemTar,h,1,0.5139375236758497,,,,,,,,,,,,,,,,,,,332,2023-11-17_11h25.40.071,leap3,2022.2.5,60.00653603816614,
,,,,,,,,,,,,,,,,,,,,1,0,1,0,7,0,7,0,,,,,,suburb,w,g,upper,,,,,,,1,w,HiDemTar,g,1,0.508636426879093,,,,,,,,,,,,,,,,,,,332,2023-11-17_11h25.40.071,leap3,2022.2.5,60.00653603816614,
,,,,,,,,,,,,,,,,,,,,1,0,1,0,8,0,8,0,,,,,,ipiocy,nw,h,upper,,,,,,,1,nw,HiDemTar,h,1,0.5113998702290701,,,,,,,,,,,,,,,,,,,332,2023-11-17_11h25.40.071,leap3,2022.2.5,60.00653603816614,
,,,,,,,,,,,,,,,,,,,,1,0,1,0,9,0,9,0,,,,,,strenuous,w,g,upper,,,,,,,1,w,HiDemTar,g,1,0.6261339198390488,,,,,,,,,,,,,,,,,,,332,2023-11-17_11h25.40.071,leap3,2022.2.5,60.00653603816614,
,,,,,,,,,,,,,,,,,,,,1,0,1,0,10,0,10,0,,,,,,actual,w,g,upper,,,,,,,1,w,HiDemTar,g,1,0.4639038703899132,,,,,,,,,,,,,,,,,,,332,2023-11-17_11h25.40.071,leap3,2022.2.5,60.00653603816614,
,,,,,,,,,,,,,,,,,,,,1,0,1,0,11,0,11,0,,,,,,adok,nw,h,upper,,,,,,,1,nw,HiDemTar,h,1,0.4929526360501768,,,,,,,,,,,,,,,,,,,332,2023-11-17_11h25.40.071,leap3,2022.2.5,60.00653603816614,
,,,,,,,,,,,,,,,,,,,,1,0,1,0,12,0,12,0,,,,,,snays,nw,h,upper,,,,,,,1,nw,HiDemTar,h,1,0.5435173260048032,,,,,,,,,,,,,,,,,,,332,2023-11-17_11h25.40.071,leap3,2022.2.5,60.00653603816614,
,,,,,,,,,,,,,,,,,,,,1,0,1,0,13,0,13,0,,,,,,theles,nw,h,upper,,,,,,,1,nw,HiDemTar,h,1,0.544886963616591,,,,,,,,,,,,,,,,,,,332,2023-11-17_11h25.40.071,leap3,2022.2.5,60.00653603816614,
,,,,,,,,,,,,,,,,,,,,1,0,1,0,14,0,14,0,,,,,,digested,w,g,upper,,,,,,,1,w,HiDemTar,g,1,0.5702442960173357,,,,,,,,,,,,,,,,,,,332,2023-11-17_11h25.40.071,leap3,2022.2.5,60.00653603816614,
,,,,,,,,,,,,,,,,,,,,1,0,1,0,15,0,15,0,,,,,,hemoter,nw,h,upper,,,,,,,1,nw,HiDemTar,h,1,0.6422788915369892,,,,,,,,,,,,,,,,,,,332,2023-11-17_11h25.40.071,leap3,2022.2.5,60.00653603816614,
,,,,,,,,,,,,,,,,,,,,1,0,1,0,16,0,16,0,,,,,,forfeit,w,g,upper,,,,,,,1,w,HiDemTar,g,1,0.5437053739151452,,,,,,,,,,,,,,,,,,,332,2023-11-17_11h25.40.071,leap3,2022.2.5,60.00653603816614,
,,,,,,,,,,,,,,,,,,,,1,0,1,0,17,0,17,0,,,,,,moisture,w,g,upper,,,,,,,1,w,HiDemTar,g,1,0.545117057452444,,,,,,,,,,,,,,,,,,,332,2023-11-17_11h25.40.071,leap3,2022.2.5,60.00653603816614,
,,,,,,,,,,,,,,,,,,,,1,0,1,0,18,0,18,0,,,,,,obtuse,w,g,upper,,,,,,,1,w,HiDemTar,g,1,0.47448851725494023,,,,,,,,,,,,,,,,,,,332,2023-11-17_11h25.40.071,leap3,2022.2.5,60.00653603816614,
,,,,,,,,,,,,,,,,,,,,1,0,1,0,19,0,19,0,,,,,,tragedy,w,g,upper,,,,,,,1,w,HiDemTar,g,1,0.5425664922659053,,,,,,,,,,,,,,,,,,,332,2023-11-17_11h25.40.071,leap3,2022.2.5,60.00653603816614,
,,,,,,,,,,,,,,,,,,,,1,0,1,0,20,0,20,0,,,,,,plunging,w,g,upper,,,,,,,1,w,HiDemTar,g,1,0.5440126071043778,,,,,,,,,,,,,,,,,,,332,2023-11-17_11h25.40.071,leap3,2022.2.5,60.00653603816614,
,,,,,,,,,,,,,,,,,,,,1,0,1,0,21,0,21,0,,,,,,stagger,w,g,upper,,,,,,,1,w,HiDemTar,g,1,0.47336585805169307,,,,,,,,,,,,,,,,,,,332,2023-11-17_11h25.40.071,leap3,2022.2.5,60.00653603816614,
,,,,,,,,,,,,,,,,,,,,1,0,1,0,22,0,22,0,,,,,,ireology,nw,h,upper,,,,,,,1,nw,HiDemTar,h,1,0.7405809315532679,,,,,,,,,,,,,,,,,,,332,2023-11-17_11h25.40.071,leap3,2022.2.5,60.00653603816614,
,,,,,,,,,,,,,,,,,,,,1,0,1,0,23,0,23,0,,,,,,rearrange,w,g,upper,,,,,,,1,w,HiDemTar,g,1,0.5339732329157414,,,,,,,,,,,,,,,,,,,332,2023-11-17_11h25.40.071,leap3,2022.2.5,60.00653603816614,
,,,,,,,,,,,,,,,,,,,,1,0,1,0,24,0,24,0,,,,,,ubefully,nw,h,upper,,,,,,,1,nw,HiDemTar,h,1,0.6632485499430913,,,,,,,,,,,,,,,,,,,332,2023-11-17_11h25.40.071,leap3,2022.2.5,60.00653603816614,
,,,,,,,,,,,,,,,,,,,,1,0,1,0,25,0,25,0,,,,,,browting,nw,h,upper,,,,,,,1,nw,HiDemTar,h,1,1.2760009785852162,,,,,,,,,,,,,,,,,,,332,2023-11-17_11h25.40.071,leap3,2022.2.5,60.00653603816614,
,,,,,,,,,,,,,,,,,,,,1,0,1,0,26,0,26,0,,,,,,porcupine,target,q,upper,,,,,,,1,target,HiDemTar,g,0,0.6000737253052648,1,1,,,,,,,,,,,,,,,,,332,2023-11-17_11h25.40.071,leap3,2022.2.5,60.00653603816614,
,,,,,,,,,,,,,,,,,,,,1,0,1,0,27,0,27,0,,,,,,superstar,w,g,upper,,,,,,,1,aftertar1,HiDemTar,g,1,0.7995157395198476,,,,,,,,,,,,,,,,,,,332,2023-11-17_11h25.40.071,leap3,2022.2.5,60.00653603816614,
,,,,,,,,,,,,,,,,,,,,1,0,1,0,28,0,28,0,,,,,,pripend,nw,h,upper,,,,,,,1,aftertar2,HiDemTar,h,1,0.6309039799671154,,,,,,,,,,,,,,,,,,,332,2023-11-17_11h25.40.071,leap3,2022.2.5,60.00653603816614,
,,,,,,,,,,,,,,,,,,,,1,0,1,0,29,0,29,0,,,,,,sponto,nw,h,upper,,,,,,,1,aftertar3,HiDemTar,h,1,0.5250399644282879,,,,,,,,,,,,,,,,,,,332,2023-11-17_11h25.40.071,leap3,2022.2.5,60.00653603816614,
,,,,,,,,,,,,,,,,,,,,1,0,1,0,,,,,,,,,,,,,,,,,,,,,,,,,,,,1,,,,,,,,,,,,,,,,332,2023-11-17_11h25.40.071,leap3,2022.2.5,60.00653603816614,
,,,,,,,,,,,,,,,,,,,,2,0,2,0,0,0,0,0,,,,,,razelle,nw,h,lower,,,,,,,3,nw,LoDemNoTar,h,1,1.446258819414652,,,,,,,,,,,,,,,,,,,332,2023-11-17_11h25.40.071,leap3,2022.2.5,60.00653603816614,
,,,,,,,,,,,,,,,,,,,,2,0,2,0,1,0,1,0,,,,,,nearsipe,nw,h,lower,,,,,,,3,nw,LoDemNoTar,h,1,0.7076877781946678,,,,,,,,,,,,,,,,,,,332,2023-11-17_11h25.40.071,leap3,2022.2.5,60.00653603816614,
,,,,,,,,,,,,,,,,,,,,2,0,2,0,2,0,2,0,,,,,,huffle,nw,h,lower,,,,,,,3,nw,LoDemNoTar,h,1,0.6785029426537221,,,,,,,,,,,,,,,,,,,332,2023-11-17_11h25.40.071,leap3,2022.2.5,60.00653603816614,
,,,,,,,,,,,,,,,,,,,,2,0,2,0,3,0,3,0,,,,,,atsless,nw,h,lower,,,,,,,3,nw,LoDemNoTar,h,1,0.48128538944001775,,,,,,,,,,,,,,,,,,,332,2023-11-17_11h25.40.071,leap3,2022.2.5,60.00653603816614,
,,,,,,,,,,,,,,,,,,,,2,0,2,0,4,0,4,0,,,,,,mitro,nw,h,lower,,,,,,,3,nw,LoDemNoTar,h,1,0.6226050420664251,,,,,,,,,,,,,,,,,,,332,2023-11-17_11h25.40.071,leap3,2022.2.5,60.00653603816614,
,,,,,,,,,,,,,,,,,,,,2,0,2,0,5,0,5,0,,,,,,picnic,w,g,lower,,,,,,,3,w,LoDemNoTar,g,1,0.5726743516424904,,,,,,,,,,,,,,,,,,,332,2023-11-17_11h25.40.071,leap3,2022.2.5,60.00653603816614,
,,,,,,,,,,,,,,,,,,,,2,0,2,0,6,0,6,0,,,,,,comment,w,g,lower,,,,,,,3,w,LoDemNoTar,g,1,0.5478374616650399,,,,,,,,,,,,,,,,,,,332,2023-11-17_11h25.40.071,leap3,2022.2.5,60.00653603816614,
,,,,,,,,,,,,,,,,,,,,2,0,2,0,7,0,7,0,,,,,,intrude,w,g,lower,,,,,,,3,w,LoDemNoTar,g,1,0.4532937310868874,,,,,,,,,,,,,,,,,,,332,2023-11-17_11h25.40.071,leap3,2022.2.5,60.00653603816614,
,,,,,,,,,,,,,,,,,,,,2,0,2,0,8,0,8,0,,,,,,gewer,nw,h,lower,,,,,,,3,nw,LoDemNoTar,h,1,0.5859310664818622,,,,,,,,,,,,,,,,,,,332,2023-11-17_11h25.40.071,leap3,2022.2.5,60.00653603816614,
,,,,,,,,,,,,,,,,,,,,2,0,2,0,9,0,9,0,,,,,,happen,w,g,lower,,,,,,,3,w,LoDemNoTar,g,1,0.5053518789500231,,,,,,,,,,,,,,,,,,,332,2023-11-17_11h25.40.071,leap3,2022.2.5,60.00653603816614,
,,,,,,,,,,,,,,,,,,,,2,0,2,0,10,0,10,0,,,,,,vopings,nw,h,lower,,,,,,,3,nw,LoDemNoTar,h,1,0.548033786326414,,,,,,,,,,,,,,,,,,,332,2023-11-17_11h25.40.071,leap3,2022.2.5,60.00653603816614,
,,,,,,,,,,,,,,,,,,,,2,0,2,0,11,0,11,0,,,,,,scack,nw,h,lower,,,,,,,3,nw,LoDemNoTar,h,1,0.6615024854545482,,,,,,,,,,,,,,,,,,,332,2023-11-17_11h25.40.071,leap3,2022.2.5,60.00653603816614,
,,,,,,,,,,,,,,,,,,,,2,0,2,0,12,0,12,0,,,,,,ounside,nw,h,lower,,,,,,,3,nw,LoDemNoTar,h,1,0.5462536215927685,,,,,,,,,,,,,,,,,,,332,2023-11-17_11h25.40.071,leap3,2022.2.5,60.00653603816614,
,,,,,,,,,,,,,,,,,,,,2,0,2,0,13,0,13,0,,,,,,single,w,g,lower,,,,,,,3,w,LoDemNoTar,g,1,0.49160617333836854,,,,,,,,,,,,,,,,,,,332,2023-11-17_11h25.40.071,leap3,2022.2.5,60.00653603816614,
,,,,,,,,,,,,,,,,,,,,2,0,2,0,14,0,14,0,,,,,,wimpid,nw,h,lower,,,,,,,3,nw,LoDemNoTar,h,1,0.5749951540783513,,,,,,,,,,,,,,,,,,,332,2023-11-17_11h25.40.071,leap3,2022.2.5,60.00653603816614,
,,,,,,,,,,,,,,,,,,,,2,0,2,0,15,0,15,0,,,,,,aviation,w,g,lower,,,,,,,3,w,LoDemNoTar,g,1,0.8310203842702322,,,,,,,,,,,,,,,,,,,332,2023-11-17_11h25.40.071,leap3,2022.2.5,60.00653603816614,
,,,,,,,,,,,,,,,,,,,,2,0,2,0,16,0,16,0,,,,,,ahead,w,g,lower,,,,,,,3,w,LoDemNoTar,g,1,1.4922461321257288,,,,,,,,,,,,,,,,,,,332,2023-11-17_11h25.40.071,leap3,2022.2.5,60.00653603816614,
,,,,,,,,,,,,,,,,,,,,2,0,2,0,17,0,17,0,,,,,,ignoble,w,g,lower,,,,,,,3,w,LoDemNoTar,h,0,0.65556838233897,,,,,,,,,,,,,,,,,,,332,2023-11-17_11h25.40.071,leap3,2022.2.5,60.00653603816614,
,,,,,,,,,,,,,,,,,,,,2,0,2,0,18,0,18,0,,,,,,regards,w,g,lower,,,,,,,3,w,LoDemNoTar,g,1,0.5083103226788808,,,,,,,,,,,,,,,,,,,332,2023-11-17_11h25.40.071,leap3,2022.2.5,60.00653603816614,
,,,,,,,,,,,,,,,,,,,,2,0,2,0,19,0,19,0,,,,,,mabit,nw,h,lower,,,,,,,3,nw,LoDemNoTar,h,1,0.6230463587271515,,,,,,,,,,,,,,,,,,,332,2023-11-17_11h25.40.071,leap3,2022.2.5,60.00653603816614,
,,,,,,,,,,,,,,,,,,,,2,0,2,0,20,0,20,0,,,,,,ameld,nw,h,lower,,,,,,,3,nw,LoDemNoTar,h,1,0.5811461082048481,,,,,,,,,,,,,,,,,,,332,2023-11-17_11h25.40.071,leap3,2022.2.5,60.00653603816614,
,,,,,,,,,,,,,,,,,,,,2,0,2,0,21,0,21,0,,,,,,anemic,w,g,lower,,,,,,,3,w,LoDemNoTar,g,1,0.7651877277094172,,,,,,,,,,,,,,,,,,,332,2023-11-17_11h25.40.071,leap3,2022.2.5,60.00653603816614,
,,,,,,,,,,,,,,,,,,,,2,0,2,0,22,0,22,0,,,,,,remain,w,g,lower,,,,,,,3,w,LoDemNoTar,g,1,0.5579360974224983,,,,,,,,,,,,,,,,,,,332,2023-11-17_11h25.40.071,leap3,2022.2.5,60.00653603816614,
,,,,,,,,,,,,,,,,,,,,2,0,2,0,23,0,23,0,,,,,,recount,w,g,lower,,,,,,,3,w,LoDemNoTar,g,1,0.3987545428099111,,,,,,,,,,,,,,,,,,,332,2023-11-17_11h25.40.071,leap3,2022.2.5,60.00653603816614,
,,,,,,,,,,,,,,,,,,,,2,0,2,0,24,0,24,0,,,,,,airmen,w,g,lower,,,,,,,3,w,LoDemNoTar,g,1,0.5980118198203854,,,,,,,,,,,,,,,,,,,332,2023-11-17_11h25.40.071,leap3,2022.2.5,60.00653603816614,
,,,,,,,,,,,,,,,,,,,,2,0,2,0,25,0,25,0,,,,,,olgies,nw,h,lower,,,,,,,3,nw,LoDemNoTar,h,1,0.5245678582577966,,,,,,,,,,,,,,,,,,,332,2023-11-17_11h25.40.071,leap3,2022.2.5,60.00653603816614,
,,,,,,,,,,,,,,,,,,,,2,0,2,0,26,0,26,0,,,,,,saturate,w,g,lower,,,,,,,3,w,LoDemNoTar,g,1,0.7425484820414567,,,,,,,,,,,,,,,,,,,332,2023-11-17_11h25.40.071,leap3,2022.2.5,60.00653603816614,
,,,,,,,,,,,,,,,,,,,,2,0,2,0,27,0,27,0,,,,,,lonnote,nw,h,lower,,,,,,,3,nw,LoDemNoTar,h,1,0.5279444437037455,,,,,,,,,,,,,,,,,,,332,2023-11-17_11h25.40.071,leap3,2022.2.5,60.00653603816614,
,,,,,,,,,,,,,,,,,,,,2,0,2,0,28,0,28,0,,,,,,couple,w,g,lower,,,,,,,3,w,LoDemNoTar,g,1,0.561915892874822,,,,,,,,,,,,,,,,,,,332,2023-11-17_11h25.40.071,leap3,2022.2.5,60.00653603816614,
,,,,,,,,,,,,,,,,,,,,2,0,2,0,29,0,29,0,,,,,,huzzles,nw,h,lower,,,,,,,3,nw,LoDemNoTar,h,1,0.6106001038278919,,,,,,,,,,,,,,,,,,,332,2023-11-17_11h25.40.071,leap3,2022.2.5,60.00653603816614,
,,,,,,,,,,,,,,,,,,,,2,0,2,0,,,,,,,,,,,,,,,,,,,,,,,,,,,,NA,,,,,,,,,,,,,,,,332,2023-11-17_11h25.40.071,leap3,2022.2.5,60.00653603816614,
,,,,,,,,,,,,,,,,,,,,3,0,3,0,0,0,0,0,,,,,,integral,w,g,lower,,,,,,,3,w,LoDemNoTar,g,1,0.6807800438255072,,,,,,,,,,,,,,,,,,,332,2023-11-17_11h25.40.071,leap3,2022.2.5,60.00653603816614,
,,,,,,,,,,,,,,,,,,,,3,0,3,0,1,0,1,0,,,,,,mandlers,nw,h,lower,,,,,,,3,nw,LoDemNoTar,h,1,0.6847813588392455,,,,,,,,,,,,,,,,,,,332,2023-11-17_11h25.40.071,leap3,2022.2.5,60.00653603816614,
,,,,,,,,,,,,,,,,,,,,3,0,3,0,2,0,2,0,,,,,,despise,w,g,lower,,,,,,,3,w,LoDemNoTar,h,0,0.61629318780615,,,,,,,,,,,,,,,,,,,332,2023-11-17_11h25.40.071,leap3,2022.2.5,60.00653603816614,
,,,,,,,,,,,,,,,,,,,,3,0,3,0,3,0,3,0,,,,,,teamwork,w,g,lower,,,,,,,3,w,LoDemNoTar,g,1,0.5989212697895709,,,,,,,,,,,,,,,,,,,332,2023-11-17_11h25.40.071,leap3,2022.2.5,60.00653603816614,
,,,,,,,,,,,,,,,,,,,,3,0,3,0,4,0,4,0,,,,,,cartles,nw,h,lower,,,,,,,3,nw,LoDemNoTar,h,1,0.6863658610382117,,,,,,,,,,,,,,,,,,,332,2023-11-17_11h25.40.071,leap3,2022.2.5,60.00653603816614,
,,,,,,,,,,,,,,,,,,,,3,0,3,0,5,0,5,0,,,,,,rander,nw,h,lower,,,,,,,3,nw,LoDemNoTar,h,1,0.6737302339752205,,,,,,,,,,,,,,,,,,,332,2023-11-17_11h25.40.071,leap3,2022.2.5,60.00653603816614,
,,,,,,,,,,,,,,,,,,,,3,0,3,0,6,0,6,0,,,,,,dishwater,w,g,lower,,,,,,,3,w,LoDemNoTar,g,1,0.5658741687511792,,,,,,,,,,,,,,,,,,,332,2023-11-17_11h25.40.071,leap3,2022.2.5,60.00653603816614,
,,,,,,,,,,,,,,,,,,,,3,0,3,0,7,0,7,0,,,,,,baseline,w,g,lower,,,,,,,3,w,LoDemNoTar,g,1,0.5105463711370248,,,,,,,,,,,,,,,,,,,332,2023-11-17_11h25.40.071,leap3,2022.2.5,60.00653603816614,
,,,,,,,,,,,,,,,,,,,,3,0,3,0,8,0,8,0,,,,,,overwork,w,g,lower,,,,,,,3,w,LoDemNoTar,g,1,0.4333388029917842,,,,,,,,,,,,,,,,,,,332,2023-11-17_11h25.40.071,leap3,2022.2.5,60.00653603816614,
,,,,,,,,,,,,,,,,,,,,3,0,3,0,9,0,9,0,,,,,,doads,nw,h,lower,,,,,,,3,nw,LoDemNoTar,h,1,1.1193567463487852,,,,,,,,,,,,,,,,,,,332,2023-11-17_11h25.40.071,leap3,2022.2.5,60.00653603816614,
,,,,,,,,,,,,,,,,,,,,3,0,3,0,10,0,10,0,,,,,,desert,w,g,lower,,,,,,,3,w,LoDemNoTar,g,1,0.5285238166397903,,,,,,,,,,,,,,,,,,,332,2023-11-17_11h25.40.071,leap3,2022.2.5,60.00653603816614,
,,,,,,,,,,,,,,,,,,,,3,0,3,0,11,0,11,0,,,,,,bingu,nw,h,lower,,,,,,,3,nw,LoDemNoTar,h,1,0.6024918624025304,,,,,,,,,,,,,,,,,,,332,2023-11-17_11h25.40.071,leap3,2022.2.5,60.00653603816614,
,,,,,,,,,,,,,,,,,,,,3,0,3,0,12,0,12,0,,,,,,erony,nw,h,lower,,,,,,,3,nw,LoDemNoTar,h,1,0.5692646591633093,,,,,,,,,,,,,,,,,,,332,2023-11-17_11h25.40.071,leap3,2022.2.5,60.00653603816614,
,,,,,,,,,,,,,,,,,,,,3,0,3,0,13,0,13,0,,,,,,parlayid,nw,h,lower,,,,,,,3,nw,LoDemNoTar,h,1,0.6092999909742502,,,,,,,,,,,,,,,,,,,332,2023-11-17_11h25.40.071,leap3,2022.2.5,60.00653603816614,
,,,,,,,,,,,,,,,,,,,,3,0,3,0,14,0,14,0,,,,,,harmful,w,g,lower,,,,,,,3,w,LoDemNoTar,g,1,0.5040481243195245,,,,,,,,,,,,,,,,,,,332,2023-11-17_11h25.40.071,leap3,2022.2.5,60.00653603816614,
,,,,,,,,,,,,,,,,,,,,3,0,3,0,15,0,15,0,,,,,,unstatle,nw,h,lower,,,,,,,3,nw,LoDemNoTar,h,1,0.9547870234528091,,,,,,,,,,,,,,,,,,,332,2023-11-17_11h25.40.071,leap3,2022.2.5,60.00653603816614,
,,,,,,,,,,,,,,,,,,,,3,0,3,0,16,0,16,0,,,,,,tasher,nw,h,lower,,,,,,,3,nw,LoDemNoTar,h,1,0.6515041639795527,,,,,,,,,,,,,,,,,,,332,2023-11-17_11h25.40.071,leap3,2022.2.5,60.00653603816614,
,,,,,,,,,,,,,,,,,,,,3,0,3,0,17,0,17,0,,,,,,tinion,nw,h,lower,,,,,,,3,nw,LoDemNoTar,h,1,0.7683203143824358,,,,,,,,,,,,,,,,,,,332,2023-11-17_11h25.40.071,leap3,2022.2.5,60.00653603816614,
,,,,,,,,,,,,,,,,,,,,3,0,3,0,18,0,18,0,,,,,,oppose,w,g,lower,,,,,,,3,w,LoDemNoTar,g,1,0.5443605619220762,,,,,,,,,,,,,,,,,,,332,2023-11-17_11h25.40.071,leap3,2022.2.5,60.00653603816614,
,,,,,,,,,,,,,,,,,,,,3,0,3,0,19,0,19,0,,,,,,inside,w,g,lower,,,,,,,3,w,LoDemNoTar,g,1,0.49681324619450606,,,,,,,,,,,,,,,,,,,332,2023-11-17_11h25.40.071,leap3,2022.2.5,60.00653603816614,
,,,,,,,,,,,,,,,,,,,,3,0,3,0,20,0,20,0,,,,,,uncarled,nw,h,lower,,,,,,,3,nw,LoDemNoTar,h,1,0.6522050397034036,,,,,,,,,,,,,,,,,,,332,2023-11-17_11h25.40.071,leap3,2022.2.5,60.00653603816614,
,,,,,,,,,,,,,,,,,,,,3,0,3,0,21,0,21,0,,,,,,coster,nw,h,lower,,,,,,,3,nw,LoDemNoTar,h,1,0.7208726507960819,,,,,,,,,,,,,,,,,,,332,2023-11-17_11h25.40.071,leap3,2022.2.5,60.00653603816614,
,,,,,,,,,,,,,,,,,,,,3,0,3,0,22,0,22,0,,,,,,colored,w,g,lower,,,,,,,3,w,LoDemNoTar,g,1,0.5389134631404886,,,,,,,,,,,,,,,,,,,332,2023-11-17_11h25.40.071,leap3,2022.2.5,60.00653603816614,
,,,,,,,,,,,,,,,,,,,,3,0,3,0,23,0,23,0,,,,,,deceit,w,g,lower,,,,,,,3,w,LoDemNoTar,g,1,0.5402758172276663,,,,,,,,,,,,,,,,,,,332,2023-11-17_11h25.40.071,leap3,2022.2.5,60.00653603816614,
,,,,,,,,,,,,,,,,,,,,3,0,3,0,24,0,24,0,,,,,,labitable,nw,h,lower,,,,,,,3,nw,LoDemNoTar,h,1,0.6930197108740686,,,,,,,,,,,,,,,,,,,332,2023-11-17_11h25.40.071,leap3,2022.2.5,60.00653603816614,
,,,,,,,,,,,,,,,,,,,,3,0,3,0,25,0,25,0,,,,,,roaned,nw,h,lower,,,,,,,3,nw,LoDemNoTar,h,1,0.5930305368674453,,,,,,,,,,,,,,,,,,,332,2023-11-17_11h25.40.071,leap3,2022.2.5,60.00653603816614,
,,,,,,,,,,,,,,,,,,,,3,0,3,0,26,0,26,0,,,,,,clooped,nw,h,lower,,,,,,,3,nw,LoDemNoTar,h,1,0.6005643714306643,,,,,,,,,,,,,,,,,,,332,2023-11-17_11h25.40.071,leap3,2022.2.5,60.00653603816614,
,,,,,,,,,,,,,,,,,,,,3,0,3,0,27,0,27,0,,,,,,arrive,w,g,lower,,,,,,,3,w,LoDemNoTar,g,1,0.5352097802824574,,,,,,,,,,,,,,,,,,,332,2023-11-17_11h25.40.071,leap3,2022.2.5,60.00653603816614,
,,,,,,,,,,,,,,,,,,,,3,0,3,0,28,0,28,0,,,,,,statute,w,g,lower,,,,,,,3,w,LoDemNoTar,g,1,0.8084784732491244,,,,,,,,,,,,,,,,,,,332,2023-11-17_11h25.40.071,leap3,2022.2.5,60.00653603816614,
,,,,,,,,,,,,,,,,,,,,3,0,3,0,29,0,29,0,,,,,,purpose,w,g,lower,,,,,,,3,w,LoDemNoTar,g,1,0.5431697022431763,,,,,,,,,,,,,,,,,,,332,2023-11-17_11h25.40.071,leap3,2022.2.5,60.00653603816614,
,,,,,,,,,,,,,,,,,,,,3,0,3,0,,,,,,,,,,,,,,,,,,,,,,,,,,,,NA,,,,,,,,,,,,,,,,332,2023-11-17_11h25.40.071,leap3,2022.2.5,60.00653603816614,
,,,,,,,,,,,,,,,,,,,,4,0,4,0,0,0,0,0,,,,,,sording,nw,h,upper,,,,,,,1,nw,HiDemTar,h,1,0.7129541126196273,,,,,,,,,,,,,,,,,,,332,2023-11-17_11h25.40.071,leap3,2022.2.5,60.00653603816614,
,,,,,,,,,,,,,,,,,,,,4,0,4,0,1,0,1,0,,,,,,suspect,w,g,upper,,,,,,,1,w,HiDemTar,g,1,0.5075988527096342,,,,,,,,,,,,,,,,,,,332,2023-11-17_11h25.40.071,leap3,2022.2.5,60.00653603816614,
,,,,,,,,,,,,,,,,,,,,4,0,4,0,2,0,2,0,,,,,,chrayed,nw,h,upper,,,,,,,1,nw,HiDemTar,h,1,0.5743306960794143,,,,,,,,,,,,,,,,,,,332,2023-11-17_11h25.40.071,leap3,2022.2.5,60.00653603816614,
,,,,,,,,,,,,,,,,,,,,4,0,4,0,3,0,3,0,,,,,,railroad,w,g,upper,,,,,,,1,w,HiDemTar,g,1,0.8455523817101493,,,,,,,,,,,,,,,,,,,332,2023-11-17_11h25.40.071,leap3,2022.2.5,60.00653603816614,
,,,,,,,,,,,,,,,,,,,,4,0,4,0,4,0,4,0,,,,,,chesume,nw,h,upper,,,,,,,1,nw,HiDemTar,h,1,0.6989329565549269,,,,,,,,,,,,,,,,,,,332,2023-11-17_11h25.40.071,leap3,2022.2.5,60.00653603816614,
,,,,,,,,,,,,,,,,,,,,4,0,4,0,5,0,5,0,,,,,,aggepting,nw,h,upper,,,,,,,1,nw,HiDemTar,h,1,0.6703109404625138,,,,,,,,,,,,,,,,,,,332,2023-11-17_11h25.40.071,leap3,2022.2.5,60.00653603816614,
,,,,,,,,,,,,,,,,,,,,4,0,4,0,6,0,6,0,,,,,,catgup,nw,h,upper,,,,,,,1,nw,HiDemTar,h,1,0.5703270635713125,,,,,,,,,,,,,,,,,,,332,2023-11-17_11h25.40.071,leap3,2022.2.5,60.00653603816614,
,,,,,,,,,,,,,,,,,,,,4,0,4,0,7,0,7,0,,,,,,bumbo,nw,h,upper,,,,,,,1,nw,HiDemTar,h,1,0.5543863622297067,,,,,,,,,,,,,,,,,,,332,2023-11-17_11h25.40.071,leap3,2022.2.5,60.00653603816614,
,,,,,,,,,,,,,,,,,,,,4,0,4,0,8,0,8,0,,,,,,populace,w,g,upper,,,,,,,1,w,HiDemTar,g,1,1.0111553748574806,,,,,,,,,,,,,,,,,,,332,2023-11-17_11h25.40.071,leap3,2022.2.5,60.00653603816614,
,,,,,,,,,,,,,,,,,,,,4,0,4,0,9,0,9,0,,,,,,flamingo,target,q,upper,,,,,,,1,target,HiDemTar,g,0,0.5059047662653029,1,1,,,,,,,,,,,,,,,,,332,2023-11-17_11h25.40.071,leap3,2022.2.5,60.00653603816614,
,,,,,,,,,,,,,,,,,,,,4,0,4,0,10,0,10,0,,,,,,stuggard,nw,h,upper,,,,,,,1,aftertar1,HiDemTar,h,1,0.7806112973194104,,,,,,,,,,,,,,,,,,,332,2023-11-17_11h25.40.071,leap3,2022.2.5,60.00653603816614,
,,,,,,,,,,,,,,,,,,,,4,0,4,0,11,0,11,0,,,,,,mebase,nw,h,upper,,,,,,,1,aftertar2,HiDemTar,h,1,0.9647068812773796,,,,,,,,,,,,,,,,,,,332,2023-11-17_11h25.40.071,leap3,2022.2.5,60.00653603816614,
,,,,,,,,,,,,,,,,,,,,4,0,4,0,12,0,12,0,,,,,,icepick,w,g,upper,,,,,,,1,aftertar3,HiDemTar,g,1,0.7565974479948636,,,,,,,,,,,,,,,,,,,332,2023-11-17_11h25.40.071,leap3,2022.2.5,60.00653603816614,
,,,,,,,,,,,,,,,,,,,,4,0,4,0,13,0,13,0,,,,,,issue,w,g,upper,,,,,,,1,w,HiDemTar,g,1,0.6131907285162015,,,,,,,,,,,,,,,,,,,332,2023-11-17_11h25.40.071,leap3,2022.2.5,60.00653603816614,
,,,,,,,,,,,,,,,,,,,,4,0,4,0,14,0,14,0,,,,,,diatonic,w,g,upper,,,,,,,1,w,HiDemTar,h,0,0.7799302858184092,,,,,,,,,,,,,,,,,,,332,2023-11-17_11h25.40.071,leap3,2022.2.5,60.00653603816614,
,,,,,,,,,,,,,,,,,,,,4,0,4,0,15,0,15,0,,,,,,demon,w,g,upper,,,,,,,1,w,HiDemTar,g,1,1.2360808592202375,,,,,,,,,,,,,,,,,,,332,2023-11-17_11h25.40.071,leap3,2022.2.5,60.00653603816614,
,,,,,,,,,,,,,,,,,,,,4,0,4,0,16,0,16,0,,,,,,dabble,w,g,upper,,,,,,,1,w,HiDemTar,g,1,0.7133540454815375,,,,,,,,,,,,,,,,,,,332,2023-11-17_11h25.40.071,leap3,2022.2.5,60.00653603816614,
,,,,,,,,,,,,,,,,,,,,4,0,4,0,17,0,17,0,,,,,,glocked,nw,h,upper,,,,,,,1,w,HiDemTar,g,0,0.8841214034036966,,,,,,,,,,,,,,,,,,,332,2023-11-17_11h25.40.071,leap3,2022.2.5,60.00653603816614,
,,,,,,,,,,,,,,,,,,,,4,0,4,0,18,0,18,0,,,,,,butler,w,g,upper,,,,,,,1,nw,HiDemTar,g,1,0.8313243067532312,,,,,,,,,,,,,,,,,,,332,2023-11-17_11h25.40.071,leap3,2022.2.5,60.00653603816614,
,,,,,,,,,,,,,,,,,,,,4,0,4,0,19,0,19,0,,,,,,earnest,w,g,upper,,,,,,,1,w,HiDemTar,g,1,0.6057035748672206,,,,,,,,,,,,,,,,,,,332,2023-11-17_11h25.40.071,leap3,2022.2.5,60.00653603816614,
,,,,,,,,,,,,,,,,,,,,4,0,4,0,20,0,20,0,,,,,,loneliest,w,g,upper,,,,,,,1,w,HiDemTar,g,1,0.7485050979303196,,,,,,,,,,,,,,,,,,,332,2023-11-17_11h25.40.071,leap3,2022.2.5,60.00653603816614,
,,,,,,,,,,,,,,,,,,,,4,0,4,0,21,0,21,0,,,,,,beggarlan,nw,h,upper,,,,,,,1,w,HiDemTar,h,1,0.733079210811411,,,,,,,,,,,,,,,,,,,332,2023-11-17_11h25.40.071,leap3,2022.2.5,60.00653603816614,
,,,,,,,,,,,,,,,,,,,,4,0,4,0,22,0,22,0,,,,,,frunted,nw,h,upper,,,,,,,1,nw,HiDemTar,h,1,1.1268955469422508,,,,,,,,,,,,,,,,,,,332,2023-11-17_11h25.40.071,leap3,2022.2.5,60.00653603816614,
,,,,,,,,,,,,,,,,,,,,4,0,4,0,23,0,23,0,,,,,,rewrite,w,g,upper,,,,,,,1,nw,HiDemTar,g,1,0.6409969875385286,,,,,,,,,,,,,,,,,,,332,2023-11-17_11h25.40.071,leap3,2022.2.5,60.00653603816614,
,,,,,,,,,,,,,,,,,,,,4,0,4,0,24,0,24,0,,,,,,stalemate,w,g,upper,,,,,,,1,w,HiDemTar,g,1,1.1904616966057802,,,,,,,,,,,,,,,,,,,332,2023-11-17_11h25.40.071,leap3,2022.2.5,60.00653603816614,
,,,,,,,,,,,,,,,,,,,,4,0,4,0,25,0,25,0,,,,,,quickel,nw,h,upper,,,,,,,1,w,HiDemTar,h,1,0.741415228578262,,,,,,,,,,,,,,,,,,,332,2023-11-17_11h25.40.071,leap3,2022.2.5,60.00653603816614,
,,,,,,,,,,,,,,,,,,,,4,0,4,0,26,0,26,0,,,,,,mounting,w,g,upper,,,,,,,1,nw,HiDemTar,g,1,0.6546086096932413,,,,,,,,,,,,,,,,,,,332,2023-11-17_11h25.40.071,leap3,2022.2.5,60.00653603816614,
,,,,,,,,,,,,,,,,,,,,4,0,4,0,27,0,27,0,,,,,,teliever,nw,h,upper,,,,,,,1,w,HiDemTar,h,1,0.7313513551926007,,,,,,,,,,,,,,,,,,,332,2023-11-17_11h25.40.071,leap3,2022.2.5,60.00653603816614,
,,,,,,,,,,,,,,,,,,,,4,0,4,0,28,0,28,0,,,,,,truthful,w,g,upper,,,,,,,1,nw,HiDemTar,g,1,0.5414286038139835,,,,,,,,,,,,,,,,,,,332,2023-11-17_11h25.40.071,leap3,2022.2.5,60.00653603816614,
,,,,,,,,,,,,,,,,,,,,4,0,4,0,29,0,29,0,,,,,,fomrade,nw,h,upper,,,,,,,1,w,HiDemTar,h,1,0.7661316089652246,,,,,,,,,,,,,,,,,,,332,2023-11-17_11h25.40.071,leap3,2022.2.5,60.00653603816614,
,,,,,,,,,,,,,,,,,,,,4,0,4,0,,,,,,,,,,,,,,,,,,,,,,,,,,,,1,,,,,,,,,,,,,,,,332,2023-11-17_11h25.40.071,leap3,2022.2.5,60.00653603816614,
,,,,,,,,,,,,,,,,,,,,5,0,5,0,0,0,0,0,,,,,,volume,w,g,lower,,,,,,,4,w,LoDemTar,g,1,0.6469314217247302,,,,,,,,,,,,,,,,,,,332,2023-11-17_11h25.40.071,leap3,2022.2.5,60.00653603816614,
,,,,,,,,,,,,,,,,,,,,5,0,5,0,1,0,1,0,,,,,,finish,w,g,lower,,,,,,,4,w,LoDemTar,g,1,0.6042783174634678,,,,,,,,,,,,,,,,,,,332,2023-11-17_11h25.40.071,leap3,2022.2.5,60.00653603816614,
,,,,,,,,,,,,,,,,,,,,5,0,5,0,2,0,2,0,,,,,,innocent,w,g,lower,,,,,,,4,w,LoDemTar,g,1,0.48307151343033183,,,,,,,,,,,,,,,,,,,332,2023-11-17_11h25.40.071,leap3,2022.2.5,60.00653603816614,
,,,,,,,,,,,,,,,,,,,,5,0,5,0,3,0,3,0,,,,,,mitten,w,g,lower,,,,,,,4,w,LoDemTar,g,1,0.6471300638659159,,,,,,,,,,,,,,,,,,,332,2023-11-17_11h25.40.071,leap3,2022.2.5,60.00653603816614,
,,,,,,,,,,,,,,,,,,,,5,0,5,0,4,0,4,0,,,,,,dontrite,nw,h,lower,,,,,,,4,nw,LoDemTar,h,1,0.6037078834197018,,,,,,,,,,,,,,,,,,,332,2023-11-17_11h25.40.071,leap3,2022.2.5,60.00653603816614,
,,,,,,,,,,,,,,,,,,,,5,0,5,0,5,0,5,0,,,,,,chiffol,nw,h,lower,,,,,,,4,nw,LoDemTar,h,1,0.4824106972228037,,,,,,,,,,,,,,,,,,,332,2023-11-17_11h25.40.071,leap3,2022.2.5,60.00653603816614,
,,,,,,,,,,,,,,,,,,,,5,0,5,0,6,0,6,0,,,,,,pallir,nw,h,lower,,,,,,,4,nw,LoDemTar,h,1,0.4862862055306323,,,,,,,,,,,,,,,,,,,332,2023-11-17_11h25.40.071,leap3,2022.2.5,60.00653603816614,
,,,,,,,,,,,,,,,,,,,,5,0,5,0,7,0,7,0,,,,,,prame,nw,h,lower,,,,,,,4,nw,LoDemTar,h,1,1.0416419785906328,,,,,,,,,,,,,,,,,,,332,2023-11-17_11h25.40.071,leap3,2022.2.5,60.00653603816614,
,,,,,,,,,,,,,,,,,,,,5,0,5,0,8,0,8,0,,,,,,geissue,nw,h,lower,,,,,,,4,nw,LoDemTar,h,1,0.5590296224545455,,,,,,,,,,,,,,,,,,,332,2023-11-17_11h25.40.071,leap3,2022.2.5,60.00653603816614,
,,,,,,,,,,,,,,,,,,,,5,0,5,0,9,0,9,0,,,,,,result,w,g,lower,,,,,,,4,w,LoDemTar,g,1,0.7277897014719201,,,,,,,,,,,,,,,,,,,332,2023-11-17_11h25.40.071,leap3,2022.2.5,60.00653603816614,
,,,,,,,,,,,,,,,,,,,,5,0,5,0,10,0,10,0,,,,,,sampling,w,g,lower,,,,,,,4,w,LoDemTar,g,1,0.5217540922167245,,,,,,,,,,,,,,,,,,,332,2023-11-17_11h25.40.071,leap3,2022.2.5,60.00653603816614,
,,,,,,,,,,,,,,,,,,,,5,0,5,0,11,0,11,0,,,,,,iflaid,nw,h,lower,,,,,,,4,nw,LoDemTar,h,1,0.6360110696114134,,,,,,,,,,,,,,,,,,,332,2023-11-17_11h25.40.071,leap3,2022.2.5,60.00653603816614,
,,,,,,,,,,,,,,,,,,,,5,0,5,0,12,0,12,0,,,,,,overcoat,w,g,lower,,,,,,,4,w,LoDemTar,g,1,0.5519380977493711,,,,,,,,,,,,,,,,,,,332,2023-11-17_11h25.40.071,leap3,2022.2.5,60.00653603816614,
,,,,,,,,,,,,,,,,,,,,5,0,5,0,13,0,13,0,,,,,,surfaced,w,g,lower,,,,,,,4,w,LoDemTar,g,1,0.5940257340407697,,,,,,,,,,,,,,,,,,,332,2023-11-17_11h25.40.071,leap3,2022.2.5,60.00653603816614,
,,,,,,,,,,,,,,,,,,,,5,0,5,0,14,0,14,0,,,,,,treenery,nw,h,lower,,,,,,,4,nw,LoDemTar,h,1,0.5925796191877453,,,,,,,,,,,,,,,,,,,332,2023-11-17_11h25.40.071,leap3,2022.2.5,60.00653603816614,
,,,,,,,,,,,,,,,,,,,,5,0,5,0,15,0,15,0,,,,,,outlaved,nw,h,lower,,,,,,,4,nw,LoDemTar,h,1,0.6479090721550165,,,,,,,,,,,,,,,,,,,332,2023-11-17_11h25.40.071,leap3,2022.2.5,60.00653603816614,
,,,,,,,,,,,,,,,,,,,,5,0,5,0,16,0,16,0,,,,,,throttle,w,g,lower,,,,,,,4,w,LoDemTar,g,1,0.7252431091328617,,,,,,,,,,,,,,,,,,,332,2023-11-17_11h25.40.071,leap3,2022.2.5,60.00653603816614,
,,,,,,,,,,,,,,,,,,,,5,0,5,0,17,0,17,0,,,,,,sefraud,nw,h,lower,,,,,,,4,nw,LoDemTar,h,1,0.5994162198039703,,,,,,,,,,,,,,,,,,,332,2023-11-17_11h25.40.071,leap3,2022.2.5,60.00653603816614,
,,,,,,,,,,,,,,,,,,,,5,0,5,0,18,0,18,0,,,,,,doxing,nw,h,lower,,,,,,,4,nw,LoDemTar,g,0,0.6699792080617044,,,,,,,,,,,,,,,,,,,332,2023-11-17_11h25.40.071,leap3,2022.2.5,60.00653603816614,
,,,,,,,,,,,,,,,,,,,,5,0,5,0,19,0,19,0,,,,,,squirrel,target,q,lower,,,,,,,4,target,LoDemTar,g,0,0.4668805229739519,1,1,,,,,,,,,,,,,,,,,332,2023-11-17_11h25.40.071,leap3,2022.2.5,60.00653603816614,
,,,,,,,,,,,,,,,,,,,,5,0,5,0,20,0,20,0,,,,,,rillains,nw,h,lower,,,,,,,4,aftertar1,LoDemTar,h,1,0.7596343553741463,,,,,,,,,,,,,,,,,,,332,2023-11-17_11h25.40.071,leap3,2022.2.5,60.00653603816614,
,,,,,,,,,,,,,,,,,,,,5,0,5,0,21,0,21,0,,,,,,perform,w,g,lower,,,,,,,4,aftertar2,LoDemTar,g,1,0.48030509044474456,,,,,,,,,,,,,,,,,,,332,2023-11-17_11h25.40.071,leap3,2022.2.5,60.00653603816614,
,,,,,,,,,,,,,,,,,,,,5,0,5,0,22,0,22,0,,,,,,solidity,w,g,lower,,,,,,,4,aftertar3,LoDemTar,g,1,0.47635078741586767,,,,,,,,,,,,,,,,,,,332,2023-11-17_11h25.40.071,leap3,2022.2.5,60.00653603816614,
,,,,,,,,,,,,,,,,,,,,5,0,5,0,23,0,23,0,,,,,,static,w,g,lower,,,,,,,4,w,LoDemTar,g,1,0.5604250835458515,,,,,,,,,,,,,,,,,,,332,2023-11-17_11h25.40.071,leap3,2022.2.5,60.00653603816614,
,,,,,,,,,,,,,,,,,,,,5,0,5,0,24,0,24,0,,,,,,shurk,nw,h,lower,,,,,,,4,w,LoDemTar,h,1,1.2082924779970199,,,,,,,,,,,,,,,,,,,332,2023-11-17_11h25.40.071,leap3,2022.2.5,60.00653603816614,
,,,,,,,,,,,,,,,,,,,,5,0,5,0,25,0,25,0,,,,,,fivalve,nw,h,lower,,,,,,,4,nw,LoDemTar,h,1,0.6789833255897975,,,,,,,,,,,,,,,,,,,332,2023-11-17_11h25.40.071,leap3,2022.2.5,60.00653603816614,
,,,,,,,,,,,,,,,,,,,,5,0,5,0,26,0,26,0,,,,,,metrol,nw,h,lower,,,,,,,4,nw,LoDemTar,h,1,0.9150999775301898,,,,,,,,,,,,,,,,,,,332,2023-11-17_11h25.40.071,leap3,2022.2.5,60.00653603816614,
,,,,,,,,,,,,,,,,,,,,5,0,5,0,27,0,27,0,,,,,,hatred,w,g,lower,,,,,,,4,nw,LoDemTar,g,1,0.5257511033269111,,,,,,,,,,,,,,,,,,,332,2023-11-17_11h25.40.071,leap3,2022.2.5,60.00653603816614,
,,,,,,,,,,,,,,,,,,,,5,0,5,0,28,0,28,0,,,,,,amaze,w,g,lower,,,,,,,4,w,LoDemTar,g,1,0.5278292312723352,,,,,,,,,,,,,,,,,,,332,2023-11-17_11h25.40.071,leap3,2022.2.5,60.00653603816614,
,,,,,,,,,,,,,,,,,,,,5,0,5,0,29,0,29,0,,,,,,nauling,nw,h,lower,,,,,,,4,w,LoDemTar,h,1,0.6579358656745171,,,,,,,,,,,,,,,,,,,332,2023-11-17_11h25.40.071,leap3,2022.2.5,60.00653603816614,
,,,,,,,,,,,,,,,,,,,,5,0,5,0,,,,,,,,,,,,,,,,,,,,,,,,,,,,1,,,,,,,,,,,,,,,,332,2023-11-17_11h25.40.071,leap3,2022.2.5,60.00653603816614,
,,,,,,,,,,,,,,,,,,,,6,0,6,0,0,0,0,0,,,,,,boulder,w,g,lower,,,,,,,3,w,LoDemNoTar,g,1,0.726007219258463,,,,,,,,,,,,,,,,,,,332,2023-11-17_11h25.40.071,leap3,2022.2.5,60.00653603816614,
,,,,,,,,,,,,,,,,,,,,6,0,6,0,1,0,1,0,,,,,,binder,w,g,lower,,,,,,,3,w,LoDemNoTar,g,1,0.5919621731736697,,,,,,,,,,,,,,,,,,,332,2023-11-17_11h25.40.071,leap3,2022.2.5,60.00653603816614,
,,,,,,,,,,,,,,,,,,,,6,0,6,0,2,0,2,0,,,,,,daylight,w,g,lower,,,,,,,3,w,LoDemNoTar,g,1,1.247369692515349,,,,,,,,,,,,,,,,,,,332,2023-11-17_11h25.40.071,leap3,2022.2.5,60.00653603816614,
,,,,,,,,,,,,,,,,,,,,6,0,6,0,3,0,3,0,,,,,,contact,w,g,lower,,,,,,,3,w,LoDemNoTar,g,1,0.5647316453250824,,,,,,,,,,,,,,,,,,,332,2023-11-17_11h25.40.071,leap3,2022.2.5,60.00653603816614,
,,,,,,,,,,,,,,,,,,,,6,0,6,0,4,0,4,0,,,,,,tuckel,nw,h,lower,,,,,,,3,nw,LoDemNoTar,h,1,0.6534624445048394,,,,,,,,,,,,,,,,,,,332,2023-11-17_11h25.40.071,leap3,2022.2.5,60.00653603816614,
,,,,,,,,,,,,,,,,,,,,6,0,6,0,5,0,5,0,,,,,,noblin,nw,h,lower,,,,,,,3,nw,LoDemNoTar,h,1,0.5542191717540845,,,,,,,,,,,,,,,,,,,332,2023-11-17_11h25.40.071,leap3,2022.2.5,60.00653603816614,
,,,,,,,,,,,,,,,,,,,,6,0,6,0,6,0,6,0,,,,,,infusion,w,g,lower,,,,,,,3,w,LoDemNoTar,g,1,0.49845866531541105,,,,,,,,,,,,,,,,,,,332,2023-11-17_11h25.40.071,leap3,2022.2.5,60.00653603816614,
,,,,,,,,,,,,,,,,,,,,6,0,6,0,7,0,7,0,,,,,,neuran,nw,h,lower,,,,,,,3,nw,LoDemNoTar,h,1,0.5744065111648524,,,,,,,,,,,,,,,,,,,332,2023-11-17_11h25.40.071,leap3,2022.2.5,60.00653603816614,
,,,,,,,,,,,,,,,,,,,,6,0,6,0,8,0,8,0,,,,,,balign,nw,h,lower,,,,,,,3,nw,LoDemNoTar,h,1,0.5655421052942984,,,,,,,,,,,,,,,,,,,332,2023-11-17_11h25.40.071,leap3,2022.2.5,60.00653603816614,
,,,,,,,,,,,,,,,,,,,,6,0,6,0,9,0,9,0,,,,,,chyme,nw,h,lower,,,,,,,3,nw,LoDemNoTar,h,1,0.5901978998299455,,,,,,,,,,,,,,,,,,,332,2023-11-17_11h25.40.071,leap3,2022.2.5,60.00653603816614,
,,,,,,,,,,,,,,,,,,,,6,0,6,0,10,0,10,0,,,,,,tapling,nw,h,lower,,,,,,,3,nw,LoDemNoTar,h,1,0.6696627049241215,,,,,,,,,,,,,,,,,,,332,2023-11-17_11h25.40.071,leap3,2022.2.5,60.00653603816614,
,,,,,,,,,,,,,,,,,,,,6,0,6,0,11,0,11,0,,,,,,sporidic,nw,h,lower,,,,,,,3,nw,LoDemNoTar,g,0,0.6417097817757167,,,,,,,,,,,,,,,,,,,332,2023-11-17_11h25.40.071,leap3,2022.2.5,60.00653603816614,
,,,,,,,,,,,,,,,,,,,,6,0,6,0,12,0,12,0,,,,,,neliefs,nw,h,lower,,,,,,,3,nw,LoDemNoTar,h,1,1.0072007407579804,,,,,,,,,,,,,,,,,,,332,2023-11-17_11h25.40.071,leap3,2022.2.5,60.00653603816614,
,,,,,,,,,,,,,,,,,,,,6,0,6,0,13,0,13,0,,,,,,maximized,w,g,lower,,,,,,,3,w,LoDemNoTar,g,1,0.6539040921925334,,,,,,,,,,,,,,,,,,,332,2023-11-17_11h25.40.071,leap3,2022.2.5,60.00653603816614,
,,,,,,,,,,,,,,,,,,,,6,0,6,0,14,0,14,0,,,,,,bettled,nw,h,lower,,,,,,,3,nw,LoDemNoTar,h,1,0.8906332241022028,,,,,,,,,,,,,,,,,,,332,2023-11-17_11h25.40.071,leap3,2022.2.5,60.00653603816614,
,,,,,,,,,,,,,,,,,,,,6,0,6,0,15,0,15,0,,,,,,decant,w,g,lower,,,,,,,3,w,LoDemNoTar,g,1,0.5820810505829286,,,,,,,,,,,,,,,,,,,332,2023-11-17_11h25.40.071,leap3,2022.2.5,60.00653603816614,
,,,,,,,,,,,,,,,,,,,,6,0,6,0,16,0,16,0,,,,,,contusiok,nw,h,lower,,,,,,,3,nw,LoDemNoTar,h,1,0.6221316116134403,,,,,,,,,,,,,,,,,,,332,2023-11-17_11h25.40.071,leap3,2022.2.5,60.00653603816614,
,,,,,,,,,,,,,,,,,,,,6,0,6,0,17,0,17,0,,,,,,perishing,w,g,lower,,,,,,,3,w,LoDemNoTar,g,1,0.5793176072183996,,,,,,,,,,,,,,,,,,,332,2023-11-17_11h25.40.071,leap3,2022.2.5,60.00653603816614,
,,,,,,,,,,,,,,,,,,,,6,0,6,0,18,0,18,0,,,,,,wienegs,nw,h,lower,,,,,,,3,nw,LoDemNoTar,h,1,0.563305725765531,,,,,,,,,,,,,,,,,,,332,2023-11-17_11h25.40.071,leap3,2022.2.5,60.00653603816614,
,,,,,,,,,,,,,,,,,,,,6,0,6,0,19,0,19,0,,,,,,purport,w,g,lower,,,,,,,3,w,LoDemNoTar,h,0,0.8519973262154963,,,,,,,,,,,,,,,,,,,332,2023-11-17_11h25.40.071,leap3,2022.2.5,60.00653603816614,
,,,,,,,,,,,,,,,,,,,,6,0,6,0,20,0,20,0,,,,,,holdup,w,g,lower,,,,,,,3,w,LoDemNoTar,g,1,1.0647808092617197,,,,,,,,,,,,,,,,,,,332,2023-11-17_11h25.40.071,leap3,2022.2.5,60.00653603816614,
,,,,,,,,,,,,,,,,,,,,6,0,6,0,21,0,21,0,,,,,,gigoho,nw,h,lower,,,,,,,3,nw,LoDemNoTar,h,1,0.7095318394713104,,,,,,,,,,,,,,,,,,,332,2023-11-17_11h25.40.071,leap3,2022.2.5,60.00653603816614,
,,,,,,,,,,,,,,,,,,,,6,0,6,0,22,0,22,0,,,,,,ready,w,g,lower,,,,,,,3,w,LoDemNoTar,g,1,0.5922521907050395,,,,,,,,,,,,,,,,,,,332,2023-11-17_11h25.40.071,leap3,2022.2.5,60.00653603816614,
,,,,,,,,,,,,,,,,,,,,6,0,6,0,23,0,23,0,,,,,,geborn,nw,h,lower,,,,,,,3,nw,LoDemNoTar,h,1,0.7356453363172477,,,,,,,,,,,,,,,,,,,332,2023-11-17_11h25.40.071,leap3,2022.2.5,60.00653603816614,
,,,,,,,,,,,,,,,,,,,,6,0,6,0,24,0,24,0,,,,,,forecast,w,g,lower,,,,,,,3,w,LoDemNoTar,g,1,0.6090477154357359,,,,,,,,,,,,,,,,,,,332,2023-11-17_11h25.40.071,leap3,2022.2.5,60.00653603816614,
,,,,,,,,,,,,,,,,,,,,6,0,6,0,25,0,25,0,,,,,,defeat,w,g,lower,,,,,,,3,w,LoDemNoTar,g,1,0.511763054295443,,,,,,,,,,,,,,,,,,,332,2023-11-17_11h25.40.071,leap3,2022.2.5,60.00653603816614,
,,,,,,,,,,,,,,,,,,,,6,0,6,0,26,0,26,0,,,,,,shests,nw,h,lower,,,,,,,3,nw,LoDemNoTar,h,1,0.7056099813053152,,,,,,,,,,,,,,,,,,,332,2023-11-17_11h25.40.071,leap3,2022.2.5,60.00653603816614,
,,,,,,,,,,,,,,,,,,,,6,0,6,0,27,0,27,0,,,,,,resent,w,g,lower,,,,,,,3,w,LoDemNoTar,g,1,0.5803111490240553,,,,,,,,,,,,,,,,,,,332,2023-11-17_11h25.40.071,leap3,2022.2.5,60.00653603816614,
,,,,,,,,,,,,,,,,,,,,6,0,6,0,28,0,28,0,,,,,,dominion,w,g,lower,,,,,,,3,w,LoDemNoTar,g,1,0.5563416631193832,,,,,,,,,,,,,,,,,,,332,2023-11-17_11h25.40.071,leap3,2022.2.5,60.00653603816614,
,,,,,,,,,,,,,,,,,,,,6,0,6,0,29,0,29,0,,,,,,tredits,nw,h,lower,,,,,,,3,nw,LoDemNoTar,h,1,0.6123441818926949,,,,,,,,,,,,,,,,,,,332,2023-11-17_11h25.40.071,leap3,2022.2.5,60.00653603816614,
,,,,,,,,,,,,,,,,,,,,6,0,6,0,,,,,,,,,,,,,,,,,,,,,,,,,,,,NA,,,,,,,,,,,,,,,,332,2023-11-17_11h25.40.071,leap3,2022.2.5,60.00653603816614,
,,,,,,,,,,,,,,,,,,,,7,0,7,0,0,0,0,0,,,,,,dialogues,w,g,lower,,,,,,,3,w,LoDemNoTar,g,1,0.811328325944487,,,,,,,,,,,,,,,,,,,332,2023-11-17_11h25.40.071,leap3,2022.2.5,60.00653603816614,
,,,,,,,,,,,,,,,,,,,,7,0,7,0,1,0,1,0,,,,,,moral,w,g,lower,,,,,,,3,w,LoDemNoTar,g,1,0.529240914809634,,,,,,,,,,,,,,,,,,,332,2023-11-17_11h25.40.071,leap3,2022.2.5,60.00653603816614,
,,,,,,,,,,,,,,,,,,,,7,0,7,0,2,0,2,0,,,,,,angry,w,g,lower,,,,,,,3,w,LoDemNoTar,g,1,0.4889586045756005,,,,,,,,,,,,,,,,,,,332,2023-11-17_11h25.40.071,leap3,2022.2.5,60.00653603816614,
,,,,,,,,,,,,,,,,,,,,7,0,7,0,3,0,3,0,,,,,,oginous,nw,h,lower,,,,,,,3,nw,LoDemNoTar,h,1,1.846008265434648,,,,,,,,,,,,,,,,,,,332,2023-11-17_11h25.40.071,leap3,2022.2.5,60.00653603816614,
,,,,,,,,,,,,,,,,,,,,7,0,7,0,4,0,4,0,,,,,,atble,nw,h,lower,,,,,,,3,nw,LoDemNoTar,h,1,0.6193883635569364,,,,,,,,,,,,,,,,,,,332,2023-11-17_11h25.40.071,leap3,2022.2.5,60.00653603816614,
,,,,,,,,,,,,,,,,,,,,7,0,7,0,5,0,5,0,,,,,,glating,nw,h,lower,,,,,,,3,nw,LoDemNoTar,h,1,0.6414959104004083,,,,,,,,,,,,,,,,,,,332,2023-11-17_11h25.40.071,leap3,2022.2.5,60.00653603816614,
,,,,,,,,,,,,,,,,,,,,7,0,7,0,6,0,6,0,,,,,,abstain,w,g,lower,,,,,,,3,w,LoDemNoTar,h,0,0.4622352763399249,,,,,,,,,,,,,,,,,,,332,2023-11-17_11h25.40.071,leap3,2022.2.5,60.00653603816614,
,,,,,,,,,,,,,,,,,,,,7,0,7,0,7,0,7,0,,,,,,allained,nw,h,lower,,,,,,,3,nw,LoDemNoTar,h,1,0.7622961601591669,,,,,,,,,,,,,,,,,,,332,2023-11-17_11h25.40.071,leap3,2022.2.5,60.00653603816614,
,,,,,,,,,,,,,,,,,,,,7,0,7,0,8,0,8,0,,,,,,machinery,w,g,lower,,,,,,,3,w,LoDemNoTar,g,1,0.6343474416062236,,,,,,,,,,,,,,,,,,,332,2023-11-17_11h25.40.071,leap3,2022.2.5,60.00653603816614,
,,,,,,,,,,,,,,,,,,,,7,0,7,0,9,0,9,0,,,,,,favoting,nw,h,lower,,,,,,,3,nw,LoDemNoTar,h,1,0.623830664131674,,,,,,,,,,,,,,,,,,,332,2023-11-17_11h25.40.071,leap3,2022.2.5,60.00653603816614,
,,,,,,,,,,,,,,,,,,,,7,0,7,0,10,0,10,0,,,,,,sequence,w,g,lower,,,,,,,3,w,LoDemNoTar,g,1,1.0362336150283227,,,,,,,,,,,,,,,,,,,332,2023-11-17_11h25.40.071,leap3,2022.2.5,60.00653603816614,
,,,,,,,,,,,,,,,,,,,,7,0,7,0,11,0,11,0,,,,,,gensions,nw,h,lower,,,,,,,3,nw,LoDemNoTar,h,1,0.6489857125998242,,,,,,,,,,,,,,,,,,,332,2023-11-17_11h25.40.071,leap3,2022.2.5,60.00653603816614,
,,,,,,,,,,,,,,,,,,,,7,0,7,0,12,0,12,0,,,,,,lightels,nw,h,lower,,,,,,,3,nw,LoDemNoTar,h,1,0.565699694736395,,,,,,,,,,,,,,,,,,,332,2023-11-17_11h25.40.071,leap3,2022.2.5,60.00653603816614,
,,,,,,,,,,,,,,,,,,,,7,0,7,0,13,0,13,0,,,,,,expensive,w,g,lower,,,,,,,3,w,LoDemNoTar,g,1,0.6617395317443879,,,,,,,,,,,,,,,,,,,332,2023-11-17_11h25.40.071,leap3,2022.2.5,60.00653603816614,
,,,,,,,,,,,,,,,,,,,,7,0,7,0,14,0,14,0,,,,,,medium,w,g,lower,,,,,,,3,w,LoDemNoTar,g,1,0.5298282334115356,,,,,,,,,,,,,,,,,,,332,2023-11-17_11h25.40.071,leap3,2022.2.5,60.00653603816614,
,,,,,,,,,,,,,,,,,,,,7,0,7,0,15,0,15,0,,,,,,intended,w,g,lower,,,,,,,3,w,LoDemNoTar,g,1,0.5392504926567199,,,,,,,,,,,,,,,,,,,332,2023-11-17_11h25.40.071,leap3,2022.2.5,60.00653603816614,
,,,,,,,,,,,,,,,,,,,,7,0,7,0,16,0,16,0,,,,,,chraps,nw,h,lower,,,,,,,3,nw,LoDemNoTar,h,1,0.579977761299233,,,,,,,,,,,,,,,,,,,332,2023-11-17_11h25.40.071,leap3,2022.2.5,60.00653603816614,
,,,,,,,,,,,,,,,,,,,,7,0,7,0,17,0,17,0,,,,,,defensa,nw,h,lower,,,,,,,3,nw,LoDemNoTar,h,1,0.5393564351397799,,,,,,,,,,,,,,,,,,,332,2023-11-17_11h25.40.071,leap3,2022.2.5,60.00653603816614,
,,,,,,,,,,,,,,,,,,,,7,0,7,0,18,0,18,0,,,,,,attended,w,g,lower,,,,,,,3,w,LoDemNoTar,g,1,0.5160904734948417,,,,,,,,,,,,,,,,,,,332,2023-11-17_11h25.40.071,leap3,2022.2.5,60.00653603816614,
,,,,,,,,,,,,,,,,,,,,7,0,7,0,19,0,19,0,,,,,,ifkling,nw,h,lower,,,,,,,3,nw,LoDemNoTar,h,1,0.5572146953491028,,,,,,,,,,,,,,,,,,,332,2023-11-17_11h25.40.071,leap3,2022.2.5,60.00653603816614,
,,,,,,,,,,,,,,,,,,,,7,0,7,0,20,0,20,0,,,,,,glaims,nw,h,lower,,,,,,,3,nw,LoDemNoTar,h,1,0.6693220336310333,,,,,,,,,,,,,,,,,,,332,2023-11-17_11h25.40.071,leap3,2022.2.5,60.00653603816614,
,,,,,,,,,,,,,,,,,,,,7,0,7,0,21,0,21,0,,,,,,fracture,w,g,lower,,,,,,,3,w,LoDemNoTar,g,1,0.6086597011162667,,,,,,,,,,,,,,,,,,,332,2023-11-17_11h25.40.071,leap3,2022.2.5,60.00653603816614,
,,,,,,,,,,,,,,,,,,,,7,0,7,0,22,0,22,0,,,,,,absent,w,g,lower,,,,,,,3,w,LoDemNoTar,g,1,0.5027049723285018,,,,,,,,,,,,,,,,,,,332,2023-11-17_11h25.40.071,leap3,2022.2.5,60.00653603816614,
,,,,,,,,,,,,,,,,,,,,7,0,7,0,23,0,23,0,,,,,,cemoir,nw,h,lower,,,,,,,3,nw,LoDemNoTar,h,1,0.5847034580074251,,,,,,,,,,,,,,,,,,,332,2023-11-17_11h25.40.071,leap3,2022.2.5,60.00653603816614,
,,,,,,,,,,,,,,,,,,,,7,0,7,0,24,0,24,0,,,,,,clattest,nw,h,lower,,,,,,,3,nw,LoDemNoTar,h,1,0.6321355612890329,,,,,,,,,,,,,,,,,,,332,2023-11-17_11h25.40.071,leap3,2022.2.5,60.00653603816614,
,,,,,,,,,,,,,,,,,,,,7,0,7,0,25,0,25,0,,,,,,ignore,w,g,lower,,,,,,,3,w,LoDemNoTar,g,1,0.6295214306155685,,,,,,,,,,,,,,,,,,,332,2023-11-17_11h25.40.071,leap3,2022.2.5,60.00653603816614,
,,,,,,,,,,,,,,,,,,,,7,0,7,0,26,0,26,0,,,,,,nomma,nw,h,lower,,,,,,,3,nw,LoDemNoTar,h,1,0.5869103722798172,,,,,,,,,,,,,,,,,,,332,2023-11-17_11h25.40.071,leap3,2022.2.5,60.00653603816614,
,,,,,,,,,,,,,,,,,,,,7,0,7,0,27,0,27,0,,,,,,corg,nw,h,lower,,,,,,,3,nw,LoDemNoTar,h,1,0.8497043336974457,,,,,,,,,,,,,,,,,,,332,2023-11-17_11h25.40.071,leap3,2022.2.5,60.00653603816614,
,,,,,,,,,,,,,,,,,,,,7,0,7,0,28,0,28,0,,,,,,elderly,w,g,lower,,,,,,,3,w,LoDemNoTar,g,1,1.1735612226184458,,,,,,,,,,,,,,,,,,,332,2023-11-17_11h25.40.071,leap3,2022.2.5,60.00653603816614,
,,,,,,,,,,,,,,,,,,,,7,0,7,0,29,0,29,0,,,,,,stifle,w,g,lower,,,,,,,3,w,LoDemNoTar,g,1,1.5086844320612727,,,,,,,,,,,,,,,,,,,332,2023-11-17_11h25.40.071,leap3,2022.2.5,60.00653603816614,
,,,,,,,,,,,,,,,,,,,,7,0,7,0,,,,,,,,,,,,,,,,,,,,,,,,,,,,NA,,,,,,,,,,,,,,,,332,2023-11-17_11h25.40.071,leap3,2022.2.5,60.00653603816614,
,,,,,,,,,,,,,,,,,,,,8,0,8,0,0,0,0,0,,,,,,bedding,w,g,upper,,,,,,,2,w,HiDemNoTar,g,1,0.7511821319494629,,,,,,,,,,,,,,,,,,,332,2023-11-17_11h25.40.071,leap3,2022.2.5,60.00653603816614,
,,,,,,,,,,,,,,,,,,,,8,0,8,0,1,0,1,0,,,,,,epthuse,nw,h,upper,,,,,,,2,nw,HiDemNoTar,h,1,0.6959546486032195,,,,,,,,,,,,,,,,,,,332,2023-11-17_11h25.40.071,leap3,2022.2.5,60.00653603816614,
,,,,,,,,,,,,,,,,,,,,8,0,8,0,2,0,2,0,,,,,,unspoken,w,g,upper,,,,,,,2,w,HiDemNoTar,g,1,0.7304756743833423,,,,,,,,,,,,,,,,,,,332,2023-11-17_11h25.40.071,leap3,2022.2.5,60.00653603816614,
,,,,,,,,,,,,,,,,,,,,8,0,8,0,3,0,3,0,,,,,,scrobby,nw,h,upper,,,,,,,2,nw,HiDemNoTar,h,1,1.1478016398614272,,,,,,,,,,,,,,,,,,,332,2023-11-17_11h25.40.071,leap3,2022.2.5,60.00653603816614,
,,,,,,,,,,,,,,,,,,,,8,0,8,0,4,0,4,0,,,,,,expected,w,g,upper,,,,,,,2,w,HiDemNoTar,g,1,1.220583791990066,,,,,,,,,,,,,,,,,,,332,2023-11-17_11h25.40.071,leap3,2022.2.5,60.00653603816614,
,,,,,,,,,,,,,,,,,,,,8,0,8,0,5,0,5,0,,,,,,etuip,nw,h,upper,,,,,,,2,nw,HiDemNoTar,h,1,0.6019906220462872,,,,,,,,,,,,,,,,,,,332,2023-11-17_11h25.40.071,leap3,2022.2.5,60.00653603816614,
,,,,,,,,,,,,,,,,,,,,8,0,8,0,6,0,6,0,,,,,,massacre,w,g,upper,,,,,,,2,w,HiDemNoTar,g,1,0.5365559119090904,,,,,,,,,,,,,,,,,,,332,2023-11-17_11h25.40.071,leap3,2022.2.5,60.00653603816614,
,,,,,,,,,,,,,,,,,,,,8,0,8,0,7,0,7,0,,,,,,terrify,w,g,upper,,,,,,,2,w,HiDemNoTar,g,1,0.5293865857092896,,,,,,,,,,,,,,,,,,,332,2023-11-17_11h25.40.071,leap3,2022.2.5,60.00653603816614,
,,,,,,,,,,,,,,,,,,,,8,0,8,0,8,0,8,0,,,,,,phraining,nw,h,upper,,,,,,,2,nw,HiDemNoTar,h,1,0.7788900630985154,,,,,,,,,,,,,,,,,,,332,2023-11-17_11h25.40.071,leap3,2022.2.5,60.00653603816614,
,,,,,,,,,,,,,,,,,,,,8,0,8,0,9,0,9,0,,,,,,apology,w,g,upper,,,,,,,2,w,HiDemNoTar,g,1,1.2982575070491293,,,,,,,,,,,,,,,,,,,332,2023-11-17_11h25.40.071,leap3,2022.2.5,60.00653603816614,
,,,,,,,,,,,,,,,,,,,,8,0,8,0,10,0,10,0,,,,,,combat,w,g,upper,,,,,,,2,w,HiDemNoTar,g,1,0.5810404967924114,,,,,,,,,,,,,,,,,,,332,2023-11-17_11h25.40.071,leap3,2022.2.5,60.00653603816614,
,,,,,,,,,,,,,,,,,,,,8,0,8,0,11,0,11,0,,,,,,ciping,nw,h,upper,,,,,,,2,nw,HiDemNoTar,h,1,0.6835100490861805,,,,,,,,,,,,,,,,,,,332,2023-11-17_11h25.40.071,leap3,2022.2.5,60.00653603816614,
,,,,,,,,,,,,,,,,,,,,8,0,8,0,12,0,12,0,,,,,,antwers,nw,h,upper,,,,,,,2,nw,HiDemNoTar,h,1,0.750909330061404,,,,,,,,,,,,,,,,,,,332,2023-11-17_11h25.40.071,leap3,2022.2.5,60.00653603816614,
,,,,,,,,,,,,,,,,,,,,8,0,8,0,13,0,13,0,,,,,,release,w,g,upper,,,,,,,2,w,HiDemNoTar,g,1,0.6796467903623125,,,,,,,,,,,,,,,,,,,332,2023-11-17_11h25.40.071,leap3,2022.2.5,60.00653603816614,
,,,,,,,,,,,,,,,,,,,,8,0,8,0,14,0,14,0,,,,,,plapping,nw,h,upper,,,,,,,2,nw,HiDemNoTar,h,1,0.8429908912075916,,,,,,,,,,,,,,,,,,,332,2023-11-17_11h25.40.071,leap3,2022.2.5,60.00653603816614,
,,,,,,,,,,,,,,,,,,,,8,0,8,0,15,0,15,0,,,,,,demise,w,g,upper,,,,,,,2,w,HiDemNoTar,g,1,0.7516784062463557,,,,,,,,,,,,,,,,,,,332,2023-11-17_11h25.40.071,leap3,2022.2.5,60.00653603816614,
,,,,,,,,,,,,,,,,,,,,8,0,8,0,16,0,16,0,,,,,,grenavier,nw,h,upper,,,,,,,2,nw,HiDemNoTar,h,1,0.8484323617885821,,,,,,,,,,,,,,,,,,,332,2023-11-17_11h25.40.071,leap3,2022.2.5,60.00653603816614,
,,,,,,,,,,,,,,,,,,,,8,0,8,0,17,0,17,0,,,,,,congraks,nw,h,upper,,,,,,,2,nw,HiDemNoTar,h,1,0.5493041028676089,,,,,,,,,,,,,,,,,,,332,2023-11-17_11h25.40.071,leap3,2022.2.5,60.00653603816614,
,,,,,,,,,,,,,,,,,,,,8,0,8,0,18,0,18,0,,,,,,pakened,nw,h,upper,,,,,,,2,nw,HiDemNoTar,h,1,0.510555641099927,,,,,,,,,,,,,,,,,,,332,2023-11-17_11h25.40.071,leap3,2022.2.5,60.00653603816614,
,,,,,,,,,,,,,,,,,,,,8,0,8,0,19,0,19,0,,,,,,deakers,nw,h,upper,,,,,,,2,nw,HiDemNoTar,h,1,0.5045745260140393,,,,,,,,,,,,,,,,,,,332,2023-11-17_11h25.40.071,leap3,2022.2.5,60.00653603816614,
,,,,,,,,,,,,,,,,,,,,8,0,8,0,20,0,20,0,,,,,,antonym,w,g,upper,,,,,,,2,w,HiDemNoTar,g,1,1.026390234430437,,,,,,,,,,,,,,,,,,,332,2023-11-17_11h25.40.071,leap3,2022.2.5,60.00653603816614,
,,,,,,,,,,,,,,,,,,,,8,0,8,0,21,0,21,0,,,,,,undue,w,g,upper,,,,,,,2,w,HiDemNoTar,g,1,0.86376919101167,,,,,,,,,,,,,,,,,,,332,2023-11-17_11h25.40.071,leap3,2022.2.5,60.00653603816614,
,,,,,,,,,,,,,,,,,,,,8,0,8,0,22,0,22,0,,,,,,remade,w,g,upper,,,,,,,2,w,HiDemNoTar,g,1,0.692117544458597,,,,,,,,,,,,,,,,,,,332,2023-11-17_11h25.40.071,leap3,2022.2.5,60.00653603816614,
,,,,,,,,,,,,,,,,,,,,8,0,8,0,23,0,23,0,,,,,,amidst,w,g,upper,,,,,,,2,w,HiDemNoTar,g,1,0.5827570960100275,,,,,,,,,,,,,,,,,,,332,2023-11-17_11h25.40.071,leap3,2022.2.5,60.00653603816614,
,,,,,,,,,,,,,,,,,,,,8,0,8,0,24,0,24,0,,,,,,podes,nw,h,upper,,,,,,,2,nw,HiDemNoTar,g,0,0.5421549719321774,,,,,,,,,,,,,,,,,,,332,2023-11-17_11h25.40.071,leap3,2022.2.5,60.00653603816614,
,,,,,,,,,,,,,,,,,,,,8,0,8,0,25,0,25,0,,,,,,parody,w,g,upper,,,,,,,2,w,HiDemNoTar,g,1,0.6789333339838777,,,,,,,,,,,,,,,,,,,332,2023-11-17_11h25.40.071,leap3,2022.2.5,60.00653603816614,
,,,,,,,,,,,,,,,,,,,,8,0,8,0,26,0,26,0,,,,,,pegend,nw,h,upper,,,,,,,2,nw,HiDemNoTar,h,1,0.6582679291459499,,,,,,,,,,,,,,,,,,,332,2023-11-17_11h25.40.071,leap3,2022.2.5,60.00653603816614,
,,,,,,,,,,,,,,,,,,,,8,0,8,0,27,0,27,0,,,,,,otiates,nw,h,upper,,,,,,,2,nw,HiDemNoTar,h,1,1.2383526632474968,,,,,,,,,,,,,,,,,,,332,2023-11-17_11h25.40.071,leap3,2022.2.5,60.00653603816614,
,,,,,,,,,,,,,,,,,,,,8,0,8,0,28,0,28,0,,,,,,inducing,w,g,upper,,,,,,,2,w,HiDemNoTar,g,1,0.5070618567697238,,,,,,,,,,,,,,,,,,,332,2023-11-17_11h25.40.071,leap3,2022.2.5,60.00653603816614,
,,,,,,,,,,,,,,,,,,,,8,0,8,0,29,0,29,0,,,,,,egpended,nw,h,upper,,,,,,,2,nw,HiDemNoTar,h,1,0.6282305877248291,,,,,,,,,,,,,,,,,,,332,2023-11-17_11h25.40.071,leap3,2022.2.5,60.00653603816614,
,,,,,,,,,,,,,,,,,,,,8,0,8,0,,,,,,,,,,,,,,,,,,,,,,,,,,,,NA,,,,,,,,,,,,,,,,332,2023-11-17_11h25.40.071,leap3,2022.2.5,60.00653603816614,
,,,,,,,,,,,,,,,,,,,,9,0,9,0,0,0,0,0,,,,,,noblest,w,g,upper,,,,,,,1,w,HiDemTar,g,1,0.7625918058911338,,,,,,,,,,,,,,,,,,,332,2023-11-17_11h25.40.071,leap3,2022.2.5,60.00653603816614,
,,,,,,,,,,,,,,,,,,,,9,0,9,0,1,0,1,0,,,,,,flacked,nw,h,upper,,,,,,,1,nw,HiDemTar,h,1,0.6506241792667424,,,,,,,,,,,,,,,,,,,332,2023-11-17_11h25.40.071,leap3,2022.2.5,60.00653603816614,
,,,,,,,,,,,,,,,,,,,,9,0,9,0,2,0,2,0,,,,,,menarthe,nw,h,upper,,,,,,,1,nw,HiDemTar,h,1,0.575360655609984,,,,,,,,,,,,,,,,,,,332,2023-11-17_11h25.40.071,leap3,2022.2.5,60.00653603816614,
,,,,,,,,,,,,,,,,,,,,9,0,9,0,3,0,3,0,,,,,,retona,nw,h,upper,,,,,,,1,nw,HiDemTar,h,1,0.5347572072496405,,,,,,,,,,,,,,,,,,,332,2023-11-17_11h25.40.071,leap3,2022.2.5,60.00653603816614,
,,,,,,,,,,,,,,,,,,,,9,0,9,0,4,0,4,0,,,,,,disuse,w,g,upper,,,,,,,1,w,HiDemTar,g,1,0.8633444278821116,,,,,,,,,,,,,,,,,,,332,2023-11-17_11h25.40.071,leap3,2022.2.5,60.00653603816614,
,,,,,,,,,,,,,,,,,,,,9,0,9,0,5,0,5,0,,,,,,deeper,w,g,upper,,,,,,,1,w,HiDemTar,g,1,0.5952530114300316,,,,,,,,,,,,,,,,,,,332,2023-11-17_11h25.40.071,leap3,2022.2.5,60.00653603816614,
,,,,,,,,,,,,,,,,,,,,9,0,9,0,6,0,6,0,,,,,,odacles,nw,h,upper,,,,,,,1,nw,HiDemTar,h,1,0.5780423246178543,,,,,,,,,,,,,,,,,,,332,2023-11-17_11h25.40.071,leap3,2022.2.5,60.00653603816614,
,,,,,,,,,,,,,,,,,,,,9,0,9,0,7,0,7,0,,,,,,glates,nw,h,upper,,,,,,,1,nw,HiDemTar,h,1,1.2174492188933073,,,,,,,,,,,,,,,,,,,332,2023-11-17_11h25.40.071,leap3,2022.2.5,60.00653603816614,
,,,,,,,,,,,,,,,,,,,,9,0,9,0,8,0,8,0,,,,,,nimp,nw,h,upper,,,,,,,1,nw,HiDemTar,h,1,0.5594613380526425,,,,,,,,,,,,,,,,,,,332,2023-11-17_11h25.40.071,leap3,2022.2.5,60.00653603816614,
,,,,,,,,,,,,,,,,,,,,9,0,9,0,9,0,9,0,,,,,,monopoly,w,g,upper,,,,,,,1,w,HiDemTar,g,1,0.583679457733524,,,,,,,,,,,,,,,,,,,332,2023-11-17_11h25.40.071,leap3,2022.2.5,60.00653603816614,
,,,,,,,,,,,,,,,,,,,,9,0,9,0,10,0,10,0,,,,,,huests,nw,h,upper,,,,,,,1,nw,HiDemTar,h,1,0.6149533465068089,,,,,,,,,,,,,,,,,,,332,2023-11-17_11h25.40.071,leap3,2022.2.5,60.00653603816614,
,,,,,,,,,,,,,,,,,,,,9,0,9,0,11,0,11,0,,,,,,scatter,w,g,upper,,,,,,,1,w,HiDemTar,g,1,0.7970631711214082,,,,,,,,,,,,,,,,,,,332,2023-11-17_11h25.40.071,leap3,2022.2.5,60.00653603816614,
,,,,,,,,,,,,,,,,,,,,9,0,9,0,12,0,12,0,,,,,,arrow,w,g,upper,,,,,,,1,w,HiDemTar,g,1,0.4757320171192987,,,,,,,,,,,,,,,,,,,332,2023-11-17_11h25.40.071,leap3,2022.2.5,60.00653603816614,
,,,,,,,,,,,,,,,,,,,,9,0,9,0,13,0,13,0,,,,,,triangle,w,g,upper,,,,,,,1,w,HiDemTar,g,1,0.4056209397385828,,,,,,,,,,,,,,,,,,,332,2023-11-17_11h25.40.071,leap3,2022.2.5,60.00653603816614,
,,,,,,,,,,,,,,,,,,,,9,0,9,0,14,0,14,0,,,,,,religious,w,g,upper,,,,,,,1,w,HiDemTar,g,1,0.5237196562666213,,,,,,,,,,,,,,,,,,,332,2023-11-17_11h25.40.071,leap3,2022.2.5,60.00653603816614,
,,,,,,,,,,,,,,,,,,,,9,0,9,0,15,0,15,0,,,,,,sonkers,nw,h,upper,,,,,,,1,nw,HiDemTar,h,1,0.5976430075534154,,,,,,,,,,,,,,,,,,,332,2023-11-17_11h25.40.071,leap3,2022.2.5,60.00653603816614,
,,,,,,,,,,,,,,,,,,,,9,0,9,0,16,0,16,0,,,,,,dreaded,w,g,upper,,,,,,,1,w,HiDemTar,g,1,0.9164355149114272,,,,,,,,,,,,,,,,,,,332,2023-11-17_11h25.40.071,leap3,2022.2.5,60.00653603816614,
,,,,,,,,,,,,,,,,,,,,9,0,9,0,17,0,17,0,,,,,,probable,w,g,upper,,,,,,,1,w,HiDemTar,g,1,0.5904498442832846,,,,,,,,,,,,,,,,,,,332,2023-11-17_11h25.40.071,leap3,2022.2.5,60.00653603816614,
,,,,,,,,,,,,,,,,,,,,9,0,9,0,18,0,18,0,,,,,,thaken,nw,h,upper,,,,,,,1,nw,HiDemTar,h,1,0.6292297577310819,,,,,,,,,,,,,,,,,,,332,2023-11-17_11h25.40.071,leap3,2022.2.5,60.00653603816614,
,,,,,,,,,,,,,,,,,,,,9,0,9,0,19,0,19,0,,,,,,peags,nw,h,upper,,,,,,,1,nw,HiDemTar,h,1,1.0827400459093042,,,,,,,,,,,,,,,,,,,332,2023-11-17_11h25.40.071,leap3,2022.2.5,60.00653603816614,
,,,,,,,,,,,,,,,,,,,,9,0,9,0,20,0,20,0,,,,,,laser,w,g,upper,,,,,,,1,w,HiDemTar,g,1,0.7021042784617748,,,,,,,,,,,,,,,,,,,332,2023-11-17_11h25.40.071,leap3,2022.2.5,60.00653603816614,
,,,,,,,,,,,,,,,,,,,,9,0,9,0,21,0,21,0,,,,,,selongs,nw,h,upper,,,,,,,1,nw,HiDemTar,h,1,0.6648522542091087,,,,,,,,,,,,,,,,,,,332,2023-11-17_11h25.40.071,leap3,2022.2.5,60.00653603816614,
,,,,,,,,,,,,,,,,,,,,9,0,9,0,22,0,22,0,,,,,,standard,w,g,upper,,,,,,,1,w,HiDemTar,g,1,0.5400165892060613,,,,,,,,,,,,,,,,,,,332,2023-11-17_11h25.40.071,leap3,2022.2.5,60.00653603816614,
,,,,,,,,,,,,,,,,,,,,9,0,9,0,23,0,23,0,,,,,,digar,nw,h,upper,,,,,,,1,nw,HiDemTar,h,1,0.5726488592190435,,,,,,,,,,,,,,,,,,,332,2023-11-17_11h25.40.071,leap3,2022.2.5,60.00653603816614,
,,,,,,,,,,,,,,,,,,,,9,0,9,0,24,0,24,0,,,,,,phambled,nw,h,upper,,,,,,,1,nw,HiDemTar,h,1,0.5960270536743337,,,,,,,,,,,,,,,,,,,332,2023-11-17_11h25.40.071,leap3,2022.2.5,60.00653603816614,
,,,,,,,,,,,,,,,,,,,,9,0,9,0,25,0,25,0,,,,,,practice,w,g,upper,,,,,,,1,w,HiDemTar,g,1,0.5467426123650512,,,,,,,,,,,,,,,,,,,332,2023-11-17_11h25.40.071,leap3,2022.2.5,60.00653603816614,
,,,,,,,,,,,,,,,,,,,,9,0,9,0,26,0,26,0,,,,,,lutton,nw,h,upper,,,,,,,1,nw,HiDemTar,h,1,1.1555572914949153,,,,,,,,,,,,,,,,,,,332,2023-11-17_11h25.40.071,leap3,2022.2.5,60.00653603816614,
,,,,,,,,,,,,,,,,,,,,9,0,9,0,27,0,27,0,,,,,,hostade,nw,h,upper,,,,,,,1,nw,HiDemTar,g,0,0.8756228301499505,,,,,,,,,,,,,,,,,,,332,2023-11-17_11h25.40.071,leap3,2022.2.5,60.00653603816614,
,,,,,,,,,,,,,,,,,,,,9,0,9,0,28,0,28,0,,,,,,axis,w,g,upper,,,,,,,1,w,HiDemTar,g,1,0.5909517467807746,,,,,,,,,,,,,,,,,,,332,2023-11-17_11h25.40.071,leap3,2022.2.5,60.00653603816614,
,,,,,,,,,,,,,,,,,,,,9,0,9,0,29,0,29,0,,,,,,octopus,target,q,upper,,,,,,,1,target,HiDemTar,g,0,0.5176584221771918,,,,,,,,,,,,,,,,,,,332,2023-11-17_11h25.40.071,leap3,2022.2.5,60.00653603816614,
,,,,,,,,,,,,,,,,,,,,9,0,9,0,,,,,,,,,,,,,,,,,,,,,,,,,,,,0,,,,,,,,,,,,,,,,332,2023-11-17_11h25.40.071,leap3,2022.2.5,60.00653603816614,
,,,,,,,,,,,,,,,,,,,,10,0,10,0,0,0,0,0,,,,,,warmer,w,g,upper,,,,,,,1,w,HiDemTar,g,1,0.7351735612028278,,,,,,,,,,,,,,,,,,,332,2023-11-17_11h25.40.071,leap3,2022.2.5,60.00653603816614,
,,,,,,,,,,,,,,,,,,,,10,0,10,0,1,0,1,0,,,,,,stelled,nw,h,upper,,,,,,,1,nw,HiDemTar,h,1,0.7204276923730504,,,,,,,,,,,,,,,,,,,332,2023-11-17_11h25.40.071,leap3,2022.2.5,60.00653603816614,
,,,,,,,,,,,,,,,,,,,,10,0,10,0,2,0,2,0,,,,,,mixture,w,g,upper,,,,,,,1,w,HiDemTar,g,1,0.5056094516039593,,,,,,,,,,,,,,,,,,,332,2023-11-17_11h25.40.071,leap3,2022.2.5,60.00653603816614,
,,,,,,,,,,,,,,,,,,,,10,0,10,0,3,0,3,0,,,,,,dazid,nw,h,upper,,,,,,,1,nw,HiDemTar,h,1,0.627449261926813,,,,,,,,,,,,,,,,,,,332,2023-11-17_11h25.40.071,leap3,2022.2.5,60.00653603816614,
,,,,,,,,,,,,,,,,,,,,10,0,10,0,4,0,4,0,,,,,,edasion,nw,h,upper,,,,,,,1,nw,HiDemTar,h,1,1.152671352145262,,,,,,,,,,,,,,,,,,,332,2023-11-17_11h25.40.071,leap3,2022.2.5,60.00653603816614,
,,,,,,,,,,,,,,,,,,,,10,0,10,0,5,0,5,0,,,,,,orange,w,g,upper,,,,,,,1,w,HiDemTar,g,1,0.6164769317983883,,,,,,,,,,,,,,,,,,,332,2023-11-17_11h25.40.071,leap3,2022.2.5,60.00653603816614,
,,,,,,,,,,,,,,,,,,,,10,0,10,0,6,0,6,0,,,,,,snorls,nw,h,upper,,,,,,,1,nw,HiDemTar,h,1,0.5657874283497222,,,,,,,,,,,,,,,,,,,332,2023-11-17_11h25.40.071,leap3,2022.2.5,60.00653603816614,
,,,,,,,,,,,,,,,,,,,,10,0,10,0,7,0,7,0,,,,,,elbalm,nw,h,upper,,,,,,,1,nw,HiDemTar,h,1,0.5739046086673625,,,,,,,,,,,,,,,,,,,332,2023-11-17_11h25.40.071,leap3,2022.2.5,60.00653603816614,
,,,,,,,,,,,,,,,,,,,,10,0,10,0,8,0,8,0,,,,,,gerby,nw,h,upper,,,,,,,1,nw,HiDemTar,h,1,0.5652656616293825,,,,,,,,,,,,,,,,,,,332,2023-11-17_11h25.40.071,leap3,2022.2.5,60.00653603816614,
,,,,,,,,,,,,,,,,,,,,10,0,10,0,9,0,9,0,,,,,,sarlock,nw,h,upper,,,,,,,1,nw,HiDemTar,h,1,0.5333226798829855,,,,,,,,,,,,,,,,,,,332,2023-11-17_11h25.40.071,leap3,2022.2.5,60.00653603816614,
,,,,,,,,,,,,,,,,,,,,10,0,10,0,10,0,10,0,,,,,,sullen,w,g,upper,,,,,,,1,w,HiDemTar,h,0,0.5426760765112704,,,,,,,,,,,,,,,,,,,332,2023-11-17_11h25.40.071,leap3,2022.2.5,60.00653603816614,
,,,,,,,,,,,,,,,,,,,,10,0,10,0,11,0,11,0,,,,,,peanimate,nw,h,upper,,,,,,,1,nw,HiDemTar,h,1,1.415573242440587,,,,,,,,,,,,,,,,,,,332,2023-11-17_11h25.40.071,leap3,2022.2.5,60.00653603816614,
,,,,,,,,,,,,,,,,,,,,10,0,10,0,12,0,12,0,,,,,,uncle,w,g,upper,,,,,,,1,w,HiDemTar,g,1,0.5816019919293467,,,,,,,,,,,,,,,,,,,332,2023-11-17_11h25.40.071,leap3,2022.2.5,60.00653603816614,
,,,,,,,,,,,,,,,,,,,,10,0,10,0,13,0,13,0,,,,,,chonemic,nw,h,upper,,,,,,,1,nw,HiDemTar,h,1,0.9570181058370508,,,,,,,,,,,,,,,,,,,332,2023-11-17_11h25.40.071,leap3,2022.2.5,60.00653603816614,
,,,,,,,,,,,,,,,,,,,,10,0,10,0,14,0,14,0,,,,,,tinker,w,g,upper,,,,,,,1,w,HiDemTar,g,1,0.861102420167299,,,,,,,,,,,,,,,,,,,332,2023-11-17_11h25.40.071,leap3,2022.2.5,60.00653603816614,
,,,,,,,,,,,,,,,,,,,,10,0,10,0,15,0,15,0,,,,,,slears,nw,h,upper,,,,,,,1,nw,HiDemTar,h,1,0.9923274098837283,,,,,,,,,,,,,,,,,,,332,2023-11-17_11h25.40.071,leap3,2022.2.5,60.00653603816614,
,,,,,,,,,,,,,,,,,,,,10,0,10,0,16,0,16,0,,,,,,hangar,w,g,upper,,,,,,,1,w,HiDemTar,g,1,0.8629564135480905,,,,,,,,,,,,,,,,,,,332,2023-11-17_11h25.40.071,leap3,2022.2.5,60.00653603816614,
,,,,,,,,,,,,,,,,,,,,10,0,10,0,17,0,17,0,,,,,,retain,w,g,upper,,,,,,,1,w,HiDemTar,g,1,0.5307572165329475,,,,,,,,,,,,,,,,,,,332,2023-11-17_11h25.40.071,leap3,2022.2.5,60.00653603816614,
,,,,,,,,,,,,,,,,,,,,10,0,10,0,18,0,18,0,,,,,,reconcile,w,g,upper,,,,,,,1,w,HiDemTar,g,1,0.8361910393869039,,,,,,,,,,,,,,,,,,,332,2023-11-17_11h25.40.071,leap3,2022.2.5,60.00653603816614,
,,,,,,,,,,,,,,,,,,,,10,0,10,0,19,0,19,0,,,,,,calcify,w,g,upper,,,,,,,1,w,HiDemTar,g,1,0.7606785509269685,,,,,,,,,,,,,,,,,,,332,2023-11-17_11h25.40.071,leap3,2022.2.5,60.00653603816614,
,,,,,,,,,,,,,,,,,,,,10,0,10,0,20,0,20,0,,,,,,carbled,nw,h,upper,,,,,,,1,nw,HiDemTar,h,1,0.6887998894962948,,,,,,,,,,,,,,,,,,,332,2023-11-17_11h25.40.071,leap3,2022.2.5,60.00653603816614,
,,,,,,,,,,,,,,,,,,,,10,0,10,0,21,0,21,0,,,,,,gremieres,nw,h,upper,,,,,,,1,nw,HiDemTar,h,1,0.7314450480771484,,,,,,,,,,,,,,,,,,,332,2023-11-17_11h25.40.071,leap3,2022.2.5,60.00653603816614,
,,,,,,,,,,,,,,,,,,,,10,0,10,0,22,0,22,0,,,,,,felevance,nw,h,upper,,,,,,,1,nw,HiDemTar,h,1,0.5968726071005221,,,,,,,,,,,,,,,,,,,332,2023-11-17_11h25.40.071,leap3,2022.2.5,60.00653603816614,
,,,,,,,,,,,,,,,,,,,,10,0,10,0,23,0,23,0,,,,,,confined,w,g,upper,,,,,,,1,w,HiDemTar,g,1,0.7786884413217194,,,,,,,,,,,,,,,,,,,332,2023-11-17_11h25.40.071,leap3,2022.2.5,60.00653603816614,
,,,,,,,,,,,,,,,,,,,,10,0,10,0,24,0,24,0,,,,,,ladybug,target,q,upper,,,,,,,1,target,HiDemTar,g,0,0.5300278687791433,,,,,,,,,,,,,,,,,,,332,2023-11-17_11h25.40.071,leap3,2022.2.5,60.00653603816614,
,,,,,,,,,,,,,,,,,,,,10,0,10,0,25,0,25,0,,,,,,revising,w,g,upper,,,,,,,1,aftertar1,HiDemTar,g,1,0.6281219966767821,,,,,,,,,,,,,,,,,,,332,2023-11-17_11h25.40.071,leap3,2022.2.5,60.00653603816614,
,,,,,,,,,,,,,,,,,,,,10,0,10,0,26,0,26,0,,,,,,unburnid,nw,h,upper,,,,,,,1,aftertar2,HiDemTar,h,1,1.3534892942989245,,,,,,,,,,,,,,,,,,,332,2023-11-17_11h25.40.071,leap3,2022.2.5,60.00653603816614,
,,,,,,,,,,,,,,,,,,,,10,0,10,0,27,0,27,0,,,,,,cervical,w,g,upper,,,,,,,1,aftertar3,HiDemTar,g,1,0.8255597116076387,,,,,,,,,,,,,,,,,,,332,2023-11-17_11h25.40.071,leap3,2022.2.5,60.00653603816614,
,,,,,,,,,,,,,,,,,,,,10,0,10,0,28,0,28,0,,,,,,removable,w,g,upper,,,,,,,1,w,HiDemTar,g,1,0.4869678791728802,,,,,,,,,,,,,,,,,,,332,2023-11-17_11h25.40.071,leap3,2022.2.5,60.00653603816614,
,,,,,,,,,,,,,,,,,,,,10,0,10,0,29,0,29,0,,,,,,acoustic,w,g,upper,,,,,,,1,w,HiDemTar,g,1,0.4576340620405972,,,,,,,,,,,,,,,,,,,332,2023-11-17_11h25.40.071,leap3,2022.2.5,60.00653603816614,
,,,,,,,,,,,,,,,,,,,,10,0,10,0,,,,,,,,,,,,,,,,,,,,,,,,,,,,0,,,,,,,,,,,,,,,,332,2023-11-17_11h25.40.071,leap3,2022.2.5,60.00653603816614,
,,,,,,,,,,,,,,,,,,,,11,0,11,0,0,0,0,0,,,,,,hinsome,nw,h,upper,,,,,,,1,nw,HiDemTar,h,1,0.7017639382538619,,,,,,,,,,,,,,,,,,,332,2023-11-17_11h25.40.071,leap3,2022.2.5,60.00653603816614,
,,,,,,,,,,,,,,,,,,,,11,0,11,0,1,0,1,0,,,,,,legalosm,nw,h,upper,,,,,,,1,nw,HiDemTar,h,1,0.528412245970685,,,,,,,,,,,,,,,,,,,332,2023-11-17_11h25.40.071,leap3,2022.2.5,60.00653603816614,
,,,,,,,,,,,,,,,,,,,,11,0,11,0,2,0,2,0,,,,,,inversion,w,g,upper,,,,,,,1,w,HiDemTar,h,0,0.8978502244135598,,,,,,,,,,,,,,,,,,,332,2023-11-17_11h25.40.071,leap3,2022.2.5,60.00653603816614,
,,,,,,,,,,,,,,,,,,,,11,0,11,0,3,0,3,0,,,,,,trocess,nw,h,upper,,,,,,,1,nw,HiDemTar,h,1,0.6605900558643043,,,,,,,,,,,,,,,,,,,332,2023-11-17_11h25.40.071,leap3,2022.2.5,60.00653603816614,
,,,,,,,,,,,,,,,,,,,,11,0,11,0,4,0,4,0,,,,,,undimmec,nw,h,upper,,,,,,,1,nw,HiDemTar,h,1,0.6087077062984463,,,,,,,,,,,,,,,,,,,332,2023-11-17_11h25.40.071,leap3,2022.2.5,60.00653603816614,
,,,,,,,,,,,,,,,,,,,,11,0,11,0,5,0,5,0,,,,,,seldom,w,g,upper,,,,,,,1,w,HiDemTar,g,1,0.5907537667808356,,,,,,,,,,,,,,,,,,,332,2023-11-17_11h25.40.071,leap3,2022.2.5,60.00653603816614,
,,,,,,,,,,,,,,,,,,,,11,0,11,0,6,0,6,0,,,,,,index,w,g,upper,,,,,,,1,w,HiDemTar,g,1,0.4934770513063995,,,,,,,,,,,,,,,,,,,332,2023-11-17_11h25.40.071,leap3,2022.2.5,60.00653603816614,
,,,,,,,,,,,,,,,,,,,,11,0,11,0,7,0,7,0,,,,,,extruded,w,g,upper,,,,,,,1,w,HiDemTar,g,1,0.5673537216789555,,,,,,,,,,,,,,,,,,,332,2023-11-17_11h25.40.071,leap3,2022.2.5,60.00653603816614,
,,,,,,,,,,,,,,,,,,,,11,0,11,0,8,0,8,0,,,,,,ringlat,nw,h,upper,,,,,,,1,nw,HiDemTar,h,1,1.1353593578387517,,,,,,,,,,,,,,,,,,,332,2023-11-17_11h25.40.071,leap3,2022.2.5,60.00653603816614,
,,,,,,,,,,,,,,,,,,,,11,0,11,0,9,0,9,0,,,,,,rejoiced,w,g,upper,,,,,,,1,w,HiDemTar,g,1,0.5366065656708088,,,,,,,,,,,,,,,,,,,332,2023-11-17_11h25.40.071,leap3,2022.2.5,60.00653603816614,
,,,,,,,,,,,,,,,,,,,,11,0,11,0,10,0,10,0,,,,,,previous,w,g,upper,,,,,,,1,w,HiDemTar,g,1,0.5452306145307375,,,,,,,,,,,,,,,,,,,332,2023-11-17_11h25.40.071,leap3,2022.2.5,60.00653603816614,
,,,,,,,,,,,,,,,,,,,,11,0,11,0,11,0,11,0,,,,,,rangel,nw,h,upper,,,,,,,1,nw,HiDemTar,h,1,0.6819755384785822,,,,,,,,,,,,,,,,,,,332,2023-11-17_11h25.40.071,leap3,2022.2.5,60.00653603816614,
,,,,,,,,,,,,,,,,,,,,11,0,11,0,12,0,12,0,,,,,,rabbit,target,q,upper,,,,,,,1,target,HiDemTar,g,0,0.5253723589557922,1,1,,,,,,,,,,,,,,,,,332,2023-11-17_11h25.40.071,leap3,2022.2.5,60.00653603816614,
,,,,,,,,,,,,,,,,,,,,11,0,11,0,13,0,13,0,,,,,,ounwit,nw,h,upper,,,,,,,1,aftertar1,HiDemTar,h,1,0.7029144073603675,,,,,,,,,,,,,,,,,,,332,2023-11-17_11h25.40.071,leap3,2022.2.5,60.00653603816614,
,,,,,,,,,,,,,,,,,,,,11,0,11,0,14,0,14,0,,,,,,other,w,g,upper,,,,,,,1,aftertar2,HiDemTar,g,1,0.824928360641934,,,,,,,,,,,,,,,,,,,332,2023-11-17_11h25.40.071,leap3,2022.2.5,60.00653603816614,
,,,,,,,,,,,,,,,,,,,,11,0,11,0,15,0,15,0,,,,,,handed,w,g,upper,,,,,,,1,aftertar3,HiDemTar,g,1,0.5182599768304499,,,,,,,,,,,,,,,,,,,332,2023-11-17_11h25.40.071,leap3,2022.2.5,60.00653603816614,
,,,,,,,,,,,,,,,,,,,,11,0,11,0,16,0,16,0,,,,,,arranged,w,g,upper,,,,,,,1,w,HiDemTar,g,1,0.63148037326755,,,,,,,,,,,,,,,,,,,332,2023-11-17_11h25.40.071,leap3,2022.2.5,60.00653603816614,
,,,,,,,,,,,,,,,,,,,,11,0,11,0,17,0,17,0,,,,,,hanling,nw,h,upper,,,,,,,1,w,HiDemTar,h,1,0.684820094058523,,,,,,,,,,,,,,,,,,,332,2023-11-17_11h25.40.071,leap3,2022.2.5,60.00653603816614,
,,,,,,,,,,,,,,,,,,,,11,0,11,0,18,0,18,0,,,,,,glapula,nw,h,upper,,,,,,,1,nw,HiDemTar,h,1,1.2482470286777243,,,,,,,,,,,,,,,,,,,332,2023-11-17_11h25.40.071,leap3,2022.2.5,60.00653603816614,
,,,,,,,,,,,,,,,,,,,,11,0,11,0,19,0,19,0,,,,,,gairs,nw,h,upper,,,,,,,1,nw,HiDemTar,h,1,0.9010328027216019,,,,,,,,,,,,,,,,,,,332,2023-11-17_11h25.40.071,leap3,2022.2.5,60.00653603816614,
,,,,,,,,,,,,,,,,,,,,11,0,11,0,20,0,20,0,,,,,,earmaff,nw,h,upper,,,,,,,1,nw,HiDemTar,h,1,0.543632207394694,,,,,,,,,,,,,,,,,,,332,2023-11-17_11h25.40.071,leap3,2022.2.5,60.00653603816614,
,,,,,,,,,,,,,,,,,,,,11,0,11,0,21,0,21,0,,,,,,ofsters,nw,h,upper,,,,,,,1,nw,HiDemTar,h,1,0.5123785138712265,,,,,,,,,,,,,,,,,,,332,2023-11-17_11h25.40.071,leap3,2022.2.5,60.00653603816614,
,,,,,,,,,,,,,,,,,,,,11,0,11,0,22,0,22,0,,,,,,mining,w,g,upper,,,,,,,1,nw,HiDemTar,g,1,1.6505612759210635,,,,,,,,,,,,,,,,,,,332,2023-11-17_11h25.40.071,leap3,2022.2.5,60.00653603816614,
,,,,,,,,,,,,,,,,,,,,11,0,11,0,23,0,23,0,,,,,,brother,w,g,upper,,,,,,,1,w,HiDemTar,g,1,0.5268870053259889,,,,,,,,,,,,,,,,,,,332,2023-11-17_11h25.40.071,leap3,2022.2.5,60.00653603816614,
,,,,,,,,,,,,,,,,,,,,11,0,11,0,24,0,24,0,,,,,,digest,w,g,upper,,,,,,,1,w,HiDemTar,g,1,0.5275282884103945,,,,,,,,,,,,,,,,,,,332,2023-11-17_11h25.40.071,leap3,2022.2.5,60.00653603816614,
,,,,,,,,,,,,,,,,,,,,11,0,11,0,25,0,25,0,,,,,,disperse,w,g,upper,,,,,,,1,w,HiDemTar,g,1,0.5449078210513107,,,,,,,,,,,,,,,,,,,332,2023-11-17_11h25.40.071,leap3,2022.2.5,60.00653603816614,
,,,,,,,,,,,,,,,,,,,,11,0,11,0,26,0,26,0,,,,,,beartiset,nw,h,upper,,,,,,,1,w,HiDemTar,h,1,0.713509648499894,,,,,,,,,,,,,,,,,,,332,2023-11-17_11h25.40.071,leap3,2022.2.5,60.00653603816614,
,,,,,,,,,,,,,,,,,,,,11,0,11,0,27,0,27,0,,,,,,endgume,nw,h,upper,,,,,,,1,nw,HiDemTar,h,1,1.171593672130257,,,,,,,,,,,,,,,,,,,332,2023-11-17_11h25.40.071,leap3,2022.2.5,60.00653603816614,
,,,,,,,,,,,,,,,,,,,,11,0,11,0,28,0,28,0,,,,,,tipoff,w,g,upper,,,,,,,1,nw,HiDemTar,g,1,0.8191061592806363,,,,,,,,,,,,,,,,,,,332,2023-11-17_11h25.40.071,leap3,2022.2.5,60.00653603816614,
,,,,,,,,,,,,,,,,,,,,11,0,11,0,29,0,29,0,,,,,,marinate,w,g,upper,,,,,,,1,w,HiDemTar,g,1,0.7370417906058719,,,,,,,,,,,,,,,,,,,332,2023-11-17_11h25.40.071,leap3,2022.2.5,60.00653603816614,
,,,,,,,,,,,,,,,,,,,,11,0,11,0,,,,,,,,,,,,,,,,,,,,,,,,,,,,1,,,,,,,,,,,,,,,,332,2023-11-17_11h25.40.071,leap3,2022.2.5,60.00653603816614,
,,,,,,,,,,,,,,,,,,,,12,0,12,0,0,0,0,0,,,,,,ensues,w,g,lower,,,,,,,3,w,LoDemNoTar,g,1,1.5137759614008246,,,,,,,,,,,,,,,,,,,332,2023-11-17_11h25.40.071,leap3,2022.2.5,60.00653603816614,
,,,,,,,,,,,,,,,,,,,,12,0,12,0,1,0,1,0,,,,,,regiment,w,g,lower,,,,,,,3,w,LoDemNoTar,g,1,0.8998392944631632,,,,,,,,,,,,,,,,,,,332,2023-11-17_11h25.40.071,leap3,2022.2.5,60.00653603816614,
,,,,,,,,,,,,,,,,,,,,12,0,12,0,2,0,2,0,,,,,,fuintets,nw,h,lower,,,,,,,3,nw,LoDemNoTar,h,1,0.6945548836083617,,,,,,,,,,,,,,,,,,,332,2023-11-17_11h25.40.071,leap3,2022.2.5,60.00653603816614,
,,,,,,,,,,,,,,,,,,,,12,0,12,0,3,0,3,0,,,,,,anterior,w,g,lower,,,,,,,3,w,LoDemNoTar,g,1,0.5852748852630612,,,,,,,,,,,,,,,,,,,332,2023-11-17_11h25.40.071,leap3,2022.2.5,60.00653603816614,
,,,,,,,,,,,,,,,,,,,,12,0,12,0,4,0,4,0,,,,,,graiking,nw,h,lower,,,,,,,3,nw,LoDemNoTar,h,1,1.0565004113013856,,,,,,,,,,,,,,,,,,,332,2023-11-17_11h25.40.071,leap3,2022.2.5,60.00653603816614,
,,,,,,,,,,,,,,,,,,,,12,0,12,0,5,0,5,0,,,,,,reforest,w,g,lower,,,,,,,3,w,LoDemNoTar,g,1,0.6125567290000618,,,,,,,,,,,,,,,,,,,332,2023-11-17_11h25.40.071,leap3,2022.2.5,60.00653603816614,
,,,,,,,,,,,,,,,,,,,,12,0,12,0,6,0,6,0,,,,,,esdings,nw,h,lower,,,,,,,3,nw,LoDemNoTar,h,1,0.9786333512311103,,,,,,,,,,,,,,,,,,,332,2023-11-17_11h25.40.071,leap3,2022.2.5,60.00653603816614,
,,,,,,,,,,,,,,,,,,,,12,0,12,0,7,0,7,0,,,,,,goltish,nw,h,lower,,,,,,,3,nw,LoDemNoTar,h,1,0.5700261207239237,,,,,,,,,,,,,,,,,,,332,2023-11-17_11h25.40.071,leap3,2022.2.5,60.00653603816614,
,,,,,,,,,,,,,,,,,,,,12,0,12,0,8,0,8,0,,,,,,temelity,nw,h,lower,,,,,,,3,nw,LoDemNoTar,h,1,0.5605025539844064,,,,,,,,,,,,,,,,,,,332,2023-11-17_11h25.40.071,leap3,2022.2.5,60.00653603816614,
,,,,,,,,,,,,,,,,,,,,12,0,12,0,9,0,9,0,,,,,,except,w,g,lower,,,,,,,3,w,LoDemNoTar,g,1,0.6006805770739447,,,,,,,,,,,,,,,,,,,332,2023-11-17_11h25.40.071,leap3,2022.2.5,60.00653603816614,
,,,,,,,,,,,,,,,,,,,,12,0,12,0,10,0,10,0,,,,,,rascaps,nw,h,lower,,,,,,,3,nw,LoDemNoTar,h,1,0.5832543635333423,,,,,,,,,,,,,,,,,,,332,2023-11-17_11h25.40.071,leap3,2022.2.5,60.00653603816614,
,,,,,,,,,,,,,,,,,,,,12,0,12,0,11,0,11,0,,,,,,design,w,g,lower,,,,,,,3,w,LoDemNoTar,g,1,0.5506614908663323,,,,,,,,,,,,,,,,,,,332,2023-11-17_11h25.40.071,leap3,2022.2.5,60.00653603816614,
,,,,,,,,,,,,,,,,,,,,12,0,12,0,12,0,12,0,,,,,,frader,nw,h,lower,,,,,,,3,nw,LoDemNoTar,h,1,1.102699940049206,,,,,,,,,,,,,,,,,,,332,2023-11-17_11h25.40.071,leap3,2022.2.5,60.00653603816614,
,,,,,,,,,,,,,,,,,,,,12,0,12,0,13,0,13,0,,,,,,gestalion,nw,h,lower,,,,,,,3,nw,LoDemNoTar,h,1,0.9126484023436205,,,,,,,,,,,,,,,,,,,332,2023-11-17_11h25.40.071,leap3,2022.2.5,60.00653603816614,
,,,,,,,,,,,,,,,,,,,,12,0,12,0,14,0,14,0,,,,,,staircase,w,g,lower,,,,,,,3,w,LoDemNoTar,g,1,0.6027368543873308,,,,,,,,,,,,,,,,,,,332,2023-11-17_11h25.40.071,leap3,2022.2.5,60.00653603816614,
,,,,,,,,,,,,,,,,,,,,12,0,12,0,15,0,15,0,,,,,,envelop,w,g,lower,,,,,,,3,w,LoDemNoTar,g,1,0.5215170459268847,,,,,,,,,,,,,,,,,,,332,2023-11-17_11h25.40.071,leap3,2022.2.5,60.00653603816614,
,,,,,,,,,,,,,,,,,,,,12,0,12,0,16,0,16,0,,,,,,trises,nw,h,lower,,,,,,,3,nw,LoDemNoTar,h,1,1.0660613889776869,,,,,,,,,,,,,,,,,,,332,2023-11-17_11h25.40.071,leap3,2022.2.5,60.00653603816614,
,,,,,,,,,,,,,,,,,,,,12,0,12,0,17,0,17,0,,,,,,slutches,nw,h,lower,,,,,,,3,nw,LoDemNoTar,h,1,0.7820706549682654,,,,,,,,,,,,,,,,,,,332,2023-11-17_11h25.40.071,leap3,2022.2.5,60.00653603816614,
,,,,,,,,,,,,,,,,,,,,12,0,12,0,18,0,18,0,,,,,,mystery,w,g,lower,,,,,,,3,w,LoDemNoTar,g,1,0.573390456585912,,,,,,,,,,,,,,,,,,,332,2023-11-17_11h25.40.071,leap3,2022.2.5,60.00653603816614,
,,,,,,,,,,,,,,,,,,,,12,0,12,0,19,0,19,0,,,,,,brank,nw,h,lower,,,,,,,3,nw,LoDemNoTar,h,1,0.7328928182687378,,,,,,,,,,,,,,,,,,,332,2023-11-17_11h25.40.071,leap3,2022.2.5,60.00653603816614,
,,,,,,,,,,,,,,,,,,,,12,0,12,0,20,0,20,0,,,,,,horks,nw,h,lower,,,,,,,3,nw,LoDemNoTar,h,1,0.702376418208587,,,,,,,,,,,,,,,,,,,332,2023-11-17_11h25.40.071,leap3,2022.2.5,60.00653603816614,
,,,,,,,,,,,,,,,,,,,,12,0,12,0,21,0,21,0,,,,,,minimum,w,g,lower,,,,,,,3,w,LoDemNoTar,g,1,0.5522887011466082,,,,,,,,,,,,,,,,,,,332,2023-11-17_11h25.40.071,leap3,2022.2.5,60.00653603816614,
,,,,,,,,,,,,,,,,,,,,12,0,12,0,22,0,22,0,,,,,,brouhuha,nw,h,lower,,,,,,,3,nw,LoDemNoTar,h,1,0.6172559400874889,,,,,,,,,,,,,,,,,,,332,2023-11-17_11h25.40.071,leap3,2022.2.5,60.00653603816614,
,,,,,,,,,,,,,,,,,,,,12,0,12,0,23,0,23,0,,,,,,maiden,w,g,lower,,,,,,,3,w,LoDemNoTar,g,1,0.6232059345784364,,,,,,,,,,,,,,,,,,,332,2023-11-17_11h25.40.071,leap3,2022.2.5,60.00653603816614,
,,,,,,,,,,,,,,,,,,,,12,0,12,0,24,0,24,0,,,,,,cheathe,nw,h,lower,,,,,,,3,nw,LoDemNoTar,h,1,0.7086131195246708,,,,,,,,,,,,,,,,,,,332,2023-11-17_11h25.40.071,leap3,2022.2.5,60.00653603816614,
,,,,,,,,,,,,,,,,,,,,12,0,12,0,25,0,25,0,,,,,,violate,w,g,lower,,,,,,,3,w,LoDemNoTar,g,1,0.6145332183659775,,,,,,,,,,,,,,,,,,,332,2023-11-17_11h25.40.071,leap3,2022.2.5,60.00653603816614,
,,,,,,,,,,,,,,,,,,,,12,0,12,0,26,0,26,0,,,,,,primal,w,g,lower,,,,,,,3,w,LoDemNoTar,g,1,0.5557947350753238,,,,,,,,,,,,,,,,,,,332,2023-11-17_11h25.40.071,leap3,2022.2.5,60.00653603816614,
,,,,,,,,,,,,,,,,,,,,12,0,12,0,27,0,27,0,,,,,,whirlpool,w,g,lower,,,,,,,3,w,LoDemNoTar,g,1,0.587836375751067,,,,,,,,,,,,,,,,,,,332,2023-11-17_11h25.40.071,leap3,2022.2.5,60.00653603816614,
,,,,,,,,,,,,,,,,,,,,12,0,12,0,28,0,28,0,,,,,,forgive,w,g,lower,,,,,,,3,w,LoDemNoTar,g,1,0.5225857406767318,,,,,,,,,,,,,,,,,,,332,2023-11-17_11h25.40.071,leap3,2022.2.5,60.00653603816614,
,,,,,,,,,,,,,,,,,,,,12,0,12,0,29,0,29,0,,,,,,rarren,nw,h,lower,,,,,,,3,nw,LoDemNoTar,h,1,0.6199634325748775,,,,,,,,,,,,,,,,,,,332,2023-11-17_11h25.40.071,leap3,2022.2.5,60.00653603816614,
,,,,,,,,,,,,,,,,,,,,12,0,12,0,,,,,,,,,,,,,,,,,,,,,,,,,,,,NA,,,,,,,,,,,,,,,,332,2023-11-17_11h25.40.071,leap3,2022.2.5,60.00653603816614,
,,,,,,,,,,,,,,,,,,,,13,0,13,0,0,0,0,0,,,,,,mullet,w,g,lower,,,,,,,3,w,LoDemNoTar,g,1,0.6743069583462784,,,,,,,,,,,,,,,,,,,332,2023-11-17_11h25.40.071,leap3,2022.2.5,60.00653603816614,
,,,,,,,,,,,,,,,,,,,,13,0,13,0,1,0,1,0,,,,,,railway,w,g,lower,,,,,,,3,w,LoDemNoTar,g,1,0.5887925066344906,,,,,,,,,,,,,,,,,,,332,2023-11-17_11h25.40.071,leap3,2022.2.5,60.00653603816614,
,,,,,,,,,,,,,,,,,,,,13,0,13,0,2,0,2,0,,,,,,miability,nw,h,lower,,,,,,,3,nw,LoDemNoTar,h,1,0.8035091088386253,,,,,,,,,,,,,,,,,,,332,2023-11-17_11h25.40.071,leap3,2022.2.5,60.00653603816614,
,,,,,,,,,,,,,,,,,,,,13,0,13,0,3,0,3,0,,,,,,farochial,nw,h,lower,,,,,,,3,nw,LoDemNoTar,h,1,0.5855351064674323,,,,,,,,,,,,,,,,,,,332,2023-11-17_11h25.40.071,leap3,2022.2.5,60.00653603816614,
,,,,,,,,,,,,,,,,,,,,13,0,13,0,4,0,4,0,,,,,,capobly,nw,h,lower,,,,,,,3,nw,LoDemNoTar,h,1,0.6242180163244484,,,,,,,,,,,,,,,,,,,332,2023-11-17_11h25.40.071,leap3,2022.2.5,60.00653603816614,
,,,,,,,,,,,,,,,,,,,,13,0,13,0,5,0,5,0,,,,,,fission,w,g,lower,,,,,,,3,w,LoDemNoTar,h,0,0.5016124405083247,,,,,,,,,,,,,,,,,,,332,2023-11-17_11h25.40.071,leap3,2022.2.5,60.00653603816614,
,,,,,,,,,,,,,,,,,,,,13,0,13,0,6,0,6,0,,,,,,nameplate,w,g,lower,,,,,,,3,w,LoDemNoTar,g,1,0.8316762344329618,,,,,,,,,,,,,,,,,,,332,2023-11-17_11h25.40.071,leap3,2022.2.5,60.00653603816614,
,,,,,,,,,,,,,,,,,,,,13,0,13,0,7,0,7,0,,,,,,sludding,nw,h,lower,,,,,,,3,nw,LoDemNoTar,h,1,0.5890285597124603,,,,,,,,,,,,,,,,,,,332,2023-11-17_11h25.40.071,leap3,2022.2.5,60.00653603816614,
,,,,,,,,,,,,,,,,,,,,13,0,13,0,8,0,8,0,,,,,,haurded,nw,h,lower,,,,,,,3,nw,LoDemNoTar,h,1,0.6757812141586328,,,,,,,,,,,,,,,,,,,332,2023-11-17_11h25.40.071,leap3,2022.2.5,60.00653603816614,
,,,,,,,,,,,,,,,,,,,,13,0,13,0,9,0,9,0,,,,,,trembla,nw,h,lower,,,,,,,3,nw,LoDemNoTar,h,1,0.5908203118888196,,,,,,,,,,,,,,,,,,,332,2023-11-17_11h25.40.071,leap3,2022.2.5,60.00653603816614,
,,,,,,,,,,,,,,,,,,,,13,0,13,0,10,0,10,0,,,,,,clypaper,nw,h,lower,,,,,,,3,nw,LoDemNoTar,h,1,0.9487744566868059,,,,,,,,,,,,,,,,,,,332,2023-11-17_11h25.40.071,leap3,2022.2.5,60.00653603816614,
,,,,,,,,,,,,,,,,,,,,13,0,13,0,11,0,11,0,,,,,,terming,w,g,lower,,,,,,,3,w,LoDemNoTar,h,0,0.6617507881455822,,,,,,,,,,,,,,,,,,,332,2023-11-17_11h25.40.071,leap3,2022.2.5,60.00653603816614,
,,,,,,,,,,,,,,,,,,,,13,0,13,0,12,0,12,0,,,,,,protest,w,g,lower,,,,,,,3,w,LoDemNoTar,g,1,0.6498253067547921,,,,,,,,,,,,,,,,,,,332,2023-11-17_11h25.40.071,leap3,2022.2.5,60.00653603816614,
,,,,,,,,,,,,,,,,,,,,13,0,13,0,13,0,13,0,,,,,,accessory,w,g,lower,,,,,,,3,w,LoDemNoTar,g,1,0.6705383857188281,,,,,,,,,,,,,,,,,,,332,2023-11-17_11h25.40.071,leap3,2022.2.5,60.00653603816614,
,,,,,,,,,,,,,,,,,,,,13,0,13,0,14,0,14,0,,,,,,whirling,w,g,lower,,,,,,,3,w,LoDemNoTar,g,1,0.5860095301322872,,,,,,,,,,,,,,,,,,,332,2023-11-17_11h25.40.071,leap3,2022.2.5,60.00653603816614,
,,,,,,,,,,,,,,,,,,,,13,0,13,0,15,0,15,0,,,,,,crazy,w,g,lower,,,,,,,3,w,LoDemNoTar,g,1,0.5527574966254178,,,,,,,,,,,,,,,,,,,332,2023-11-17_11h25.40.071,leap3,2022.2.5,60.00653603816614,
,,,,,,,,,,,,,,,,,,,,13,0,13,0,16,0,16,0,,,,,,inverted,w,g,lower,,,,,,,3,w,LoDemNoTar,g,1,0.5048483210994164,,,,,,,,,,,,,,,,,,,332,2023-11-17_11h25.40.071,leap3,2022.2.5,60.00653603816614,
,,,,,,,,,,,,,,,,,,,,13,0,13,0,17,0,17,0,,,,,,impirt,nw,h,lower,,,,,,,3,nw,LoDemNoTar,g,0,0.43489814386703074,,,,,,,,,,,,,,,,,,,332,2023-11-17_11h25.40.071,leap3,2022.2.5,60.00653603816614,
,,,,,,,,,,,,,,,,,,,,13,0,13,0,18,0,18,0,,,,,,slooch,nw,h,lower,,,,,,,3,nw,LoDemNoTar,h,1,0.5763091718836222,,,,,,,,,,,,,,,,,,,332,2023-11-17_11h25.40.071,leap3,2022.2.5,60.00653603816614,
,,,,,,,,,,,,,,,,,,,,13,0,13,0,19,0,19,0,,,,,,seeming,w,g,lower,,,,,,,3,w,LoDemNoTar,h,0,0.5509038342861459,,,,,,,,,,,,,,,,,,,332,2023-11-17_11h25.40.071,leap3,2022.2.5,60.00653603816614,
,,,,,,,,,,,,,,,,,,,,13,0,13,0,20,0,20,0,,,,,,decantel,nw,h,lower,,,,,,,3,nw,LoDemNoTar,h,1,0.6949323036969872,,,,,,,,,,,,,,,,,,,332,2023-11-17_11h25.40.071,leap3,2022.2.5,60.00653603816614,
,,,,,,,,,,,,,,,,,,,,13,0,13,0,21,0,21,0,,,,,,moozy,nw,h,lower,,,,,,,3,nw,LoDemNoTar,h,1,0.5535100192792015,,,,,,,,,,,,,,,,,,,332,2023-11-17_11h25.40.071,leap3,2022.2.5,60.00653603816614,
,,,,,,,,,,,,,,,,,,,,13,0,13,0,22,0,22,0,,,,,,shivering,w,g,lower,,,,,,,3,w,LoDemNoTar,g,1,0.5616235578345368,,,,,,,,,,,,,,,,,,,332,2023-11-17_11h25.40.071,leap3,2022.2.5,60.00653603816614,
,,,,,,,,,,,,,,,,,,,,13,0,13,0,23,0,23,0,,,,,,fragment,w,g,lower,,,,,,,3,w,LoDemNoTar,g,1,0.6338071349600796,,,,,,,,,,,,,,,,,,,332,2023-11-17_11h25.40.071,leap3,2022.2.5,60.00653603816614,
,,,,,,,,,,,,,,,,,,,,13,0,13,0,24,0,24,0,,,,,,threaded,w,g,lower,,,,,,,3,w,LoDemNoTar,g,1,0.6224146766762715,,,,,,,,,,,,,,,,,,,332,2023-11-17_11h25.40.071,leap3,2022.2.5,60.00653603816614,
,,,,,,,,,,,,,,,,,,,,13,0,13,0,25,0,25,0,,,,,,itfidels,nw,h,lower,,,,,,,3,nw,LoDemNoTar,h,1,0.6118376444210298,,,,,,,,,,,,,,,,,,,332,2023-11-17_11h25.40.071,leap3,2022.2.5,60.00653603816614,
,,,,,,,,,,,,,,,,,,,,13,0,13,0,26,0,26,0,,,,,,ecistle,nw,h,lower,,,,,,,3,nw,LoDemNoTar,h,1,0.5859128576266812,,,,,,,,,,,,,,,,,,,332,2023-11-17_11h25.40.071,leap3,2022.2.5,60.00653603816614,
,,,,,,,,,,,,,,,,,,,,13,0,13,0,27,0,27,0,,,,,,handbook,w,g,lower,,,,,,,3,w,LoDemNoTar,g,1,0.5845786445133854,,,,,,,,,,,,,,,,,,,332,2023-11-17_11h25.40.071,leap3,2022.2.5,60.00653603816614,
,,,,,,,,,,,,,,,,,,,,13,0,13,0,28,0,28,0,,,,,,thacked,nw,h,lower,,,,,,,3,nw,LoDemNoTar,g,0,1.7984937256696867,,,,,,,,,,,,,,,,,,,332,2023-11-17_11h25.40.071,leap3,2022.2.5,60.00653603816614,
,,,,,,,,,,,,,,,,,,,,13,0,13,0,29,0,29,0,,,,,,omners,nw,h,lower,,,,,,,3,nw,LoDemNoTar,h,1,0.9171834025910357,,,,,,,,,,,,,,,,,,,332,2023-11-17_11h25.40.071,leap3,2022.2.5,60.00653603816614,
,,,,,,,,,,,,,,,,,,,,13,0,13,0,,,,,,,,,,,,,,,,,,,,,,,,,,,,NA,,,,,,,,,,,,,,,,332,2023-11-17_11h25.40.071,leap3,2022.2.5,60.00653603816614,
,,,,,,,,,,,,,,,,,,,,14,0,14,0,0,0,0,0,,,,,,foster,w,g,upper,,,,,,,1,w,HiDemTar,g,1,0.7268292666849447,,,,,,,,,,,,,,,,,,,332,2023-11-17_11h25.40.071,leap3,2022.2.5,60.00653603816614,
,,,,,,,,,,,,,,,,,,,,14,0,14,0,1,0,1,0,,,,,,painter,w,g,upper,,,,,,,1,w,HiDemTar,g,1,0.5521317738457583,,,,,,,,,,,,,,,,,,,332,2023-11-17_11h25.40.071,leap3,2022.2.5,60.00653603816614,
,,,,,,,,,,,,,,,,,,,,14,0,14,0,2,0,2,0,,,,,,ebciting,nw,h,upper,,,,,,,1,nw,HiDemTar,h,1,0.5842614792200038,,,,,,,,,,,,,,,,,,,332,2023-11-17_11h25.40.071,leap3,2022.2.5,60.00653603816614,
,,,,,,,,,,,,,,,,,,,,14,0,14,0,3,0,3,0,,,,,,passet,nw,h,upper,,,,,,,1,nw,HiDemTar,h,1,0.6227341594785685,,,,,,,,,,,,,,,,,,,332,2023-11-17_11h25.40.071,leap3,2022.2.5,60.00653603816614,
,,,,,,,,,,,,,,,,,,,,14,0,14,0,4,0,4,0,,,,,,greft,nw,h,upper,,,,,,,1,nw,HiDemTar,h,1,0.6041180794563843,,,,,,,,,,,,,,,,,,,332,2023-11-17_11h25.40.071,leap3,2022.2.5,60.00653603816614,
,,,,,,,,,,,,,,,,,,,,14,0,14,0,5,0,5,0,,,,,,acting,w,g,upper,,,,,,,1,w,HiDemTar,g,1,0.5461741647450253,,,,,,,,,,,,,,,,,,,332,2023-11-17_11h25.40.071,leap3,2022.2.5,60.00653603816614,
,,,,,,,,,,,,,,,,,,,,14,0,14,0,6,0,6,0,,,,,,cegalia,nw,h,upper,,,,,,,1,nw,HiDemTar,h,1,0.5309432780049974,,,,,,,,,,,,,,,,,,,332,2023-11-17_11h25.40.071,leap3,2022.2.5,60.00653603816614,
,,,,,,,,,,,,,,,,,,,,14,0,14,0,7,0,7,0,,,,,,fullity,nw,h,upper,,,,,,,1,nw,HiDemTar,g,0,0.7563501385156997,,,,,,,,,,,,,,,,,,,332,2023-11-17_11h25.40.071,leap3,2022.2.5,60.00653603816614,
,,,,,,,,,,,,,,,,,,,,14,0,14,0,8,0,8,0,,,,,,swatches,w,g,upper,,,,,,,1,w,HiDemTar,g,1,0.5244539700943278,,,,,,,,,,,,,,,,,,,332,2023-11-17_11h25.40.071,leap3,2022.2.5,60.00653603816614,
,,,,,,,,,,,,,,,,,,,,14,0,14,0,9,0,9,0,,,,,,gelfry,nw,h,upper,,,,,,,1,nw,HiDemTar,h,1,0.5578758426418062,,,,,,,,,,,,,,,,,,,332,2023-11-17_11h25.40.071,leap3,2022.2.5,60.00653603816614,
,,,,,,,,,,,,,,,,,,,,14,0,14,0,10,0,10,0,,,,,,jungle,w,g,upper,,,,,,,1,w,HiDemTar,g,1,0.7339588644681498,,,,,,,,,,,,,,,,,,,332,2023-11-17_11h25.40.071,leap3,2022.2.5,60.00653603816614,
,,,,,,,,,,,,,,,,,,,,14,0,14,0,11,0,11,0,,,,,,huntry,nw,h,upper,,,,,,,1,nw,HiDemTar,h,1,0.8147045803198125,,,,,,,,,,,,,,,,,,,332,2023-11-17_11h25.40.071,leap3,2022.2.5,60.00653603816614,
,,,,,,,,,,,,,,,,,,,,14,0,14,0,12,0,12,0,,,,,,begut,nw,h,upper,,,,,,,1,nw,HiDemTar,h,1,0.6838858138216892,,,,,,,,,,,,,,,,,,,332,2023-11-17_11h25.40.071,leap3,2022.2.5,60.00653603816614,
,,,,,,,,,,,,,,,,,,,,14,0,14,0,13,0,13,0,,,,,,bluads,nw,h,upper,,,,,,,1,nw,HiDemTar,h,1,0.590593528773752,,,,,,,,,,,,,,,,,,,332,2023-11-17_11h25.40.071,leap3,2022.2.5,60.00653603816614,
,,,,,,,,,,,,,,,,,,,,14,0,14,0,14,0,14,0,,,,,,antique,w,g,upper,,,,,,,1,w,HiDemTar,g,1,0.5652365274436306,,,,,,,,,,,,,,,,,,,332,2023-11-17_11h25.40.071,leap3,2022.2.5,60.00653603816614,
,,,,,,,,,,,,,,,,,,,,14,0,14,0,15,0,15,0,,,,,,observer,w,g,upper,,,,,,,1,w,HiDemTar,g,1,0.5733202696865192,,,,,,,,,,,,,,,,,,,332,2023-11-17_11h25.40.071,leap3,2022.2.5,60.00653603816614,
,,,,,,,,,,,,,,,,,,,,14,0,14,0,16,0,16,0,,,,,,itself,w,g,upper,,,,,,,1,w,HiDemTar,g,1,0.6206778821651824,,,,,,,,,,,,,,,,,,,332,2023-11-17_11h25.40.071,leap3,2022.2.5,60.00653603816614,
,,,,,,,,,,,,,,,,,,,,14,0,14,0,17,0,17,0,,,,,,welayed,nw,h,upper,,,,,,,1,nw,HiDemTar,h,1,0.6260882321512327,,,,,,,,,,,,,,,,,,,332,2023-11-17_11h25.40.071,leap3,2022.2.5,60.00653603816614,
,,,,,,,,,,,,,,,,,,,,14,0,14,0,18,0,18,0,,,,,,organize,w,g,upper,,,,,,,1,w,HiDemTar,g,1,0.5595239103276981,,,,,,,,,,,,,,,,,,,332,2023-11-17_11h25.40.071,leap3,2022.2.5,60.00653603816614,
,,,,,,,,,,,,,,,,,,,,14,0,14,0,19,0,19,0,,,,,,loached,nw,h,upper,,,,,,,1,nw,HiDemTar,h,1,0.887552284373669,,,,,,,,,,,,,,,,,,,332,2023-11-17_11h25.40.071,leap3,2022.2.5,60.00653603816614,
,,,,,,,,,,,,,,,,,,,,14,0,14,0,20,0,20,0,,,,,,tracing,w,g,upper,,,,,,,1,w,HiDemTar,g,1,0.5543214724748395,,,,,,,,,,,,,,,,,,,332,2023-11-17_11h25.40.071,leap3,2022.2.5,60.00653603816614,
,,,,,,,,,,,,,,,,,,,,14,0,14,0,21,0,21,0,,,,,,derisury,nw,h,upper,,,,,,,1,nw,HiDemTar,h,1,0.6023696974880295,,,,,,,,,,,,,,,,,,,332,2023-11-17_11h25.40.071,leap3,2022.2.5,60.00653603816614,
,,,,,,,,,,,,,,,,,,,,14,0,14,0,22,0,22,0,,,,,,walnut,w,g,upper,,,,,,,1,w,HiDemTar,g,1,0.7122032453044085,,,,,,,,,,,,,,,,,,,332,2023-11-17_11h25.40.071,leap3,2022.2.5,60.00653603816614,
,,,,,,,,,,,,,,,,,,,,14,0,14,0,23,0,23,0,,,,,,bullet,w,g,upper,,,,,,,1,w,HiDemTar,g,1,0.5141911234968575,,,,,,,,,,,,,,,,,,,332,2023-11-17_11h25.40.071,leap3,2022.2.5,60.00653603816614,
,,,,,,,,,,,,,,,,,,,,14,0,14,0,24,0,24,0,,,,,,scrib,nw,h,upper,,,,,,,1,nw,HiDemTar,g,0,0.8852930610155454,,,,,,,,,,,,,,,,,,,332,2023-11-17_11h25.40.071,leap3,2022.2.5,60.00653603816614,
,,,,,,,,,,,,,,,,,,,,14,0,14,0,25,0,25,0,,,,,,potter,w,g,upper,,,,,,,1,w,HiDemTar,g,1,0.6070642735867295,,,,,,,,,,,,,,,,,,,332,2023-11-17_11h25.40.071,leap3,2022.2.5,60.00653603816614,
,,,,,,,,,,,,,,,,,,,,14,0,14,0,26,0,26,0,,,,,,jaguar,target,q,upper,,,,,,,1,target,HiDemTar,g,0,0.5491074471501634,,,,,,,,,,,,,,,,,,,332,2023-11-17_11h25.40.071,leap3,2022.2.5,60.00653603816614,
,,,,,,,,,,,,,,,,,,,,14,0,14,0,27,0,27,0,,,,,,fassed,nw,h,upper,,,,,,,1,aftertar1,HiDemTar,h,1,0.6138343290804187,,,,,,,,,,,,,,,,,,,332,2023-11-17_11h25.40.071,leap3,2022.2.5,60.00653603816614,
,,,,,,,,,,,,,,,,,,,,14,0,14,0,28,0,28,0,,,,,,kraums,nw,h,upper,,,,,,,1,aftertar2,HiDemTar,h,1,1.2279504360776627,,,,,,,,,,,,,,,,,,,332,2023-11-17_11h25.40.071,leap3,2022.2.5,60.00653603816614,
,,,,,,,,,,,,,,,,,,,,14,0,14,0,29,0,29,0,,,,,,sonnet,w,g,upper,,,,,,,1,aftertar3,HiDemTar,g,1,0.6252926703455159,,,,,,,,,,,,,,,,,,,332,2023-11-17_11h25.40.071,leap3,2022.2.5,60.00653603816614,
,,,,,,,,,,,,,,,,,,,,14,0,14,0,,,,,,,,,,,,,,,,,,,,,,,,,,,,0,,,,,,,,,,,,,,,,332,2023-11-17_11h25.40.071,leap3,2022.2.5,60.00653603816614,
,,,,,,,,,,,,,,,,,,,,15,0,15,0,0,0,0,0,,,,,,spigat,nw,h,lower,,,,,,,4,nw,LoDemTar,g,0,1.1506504993449198,,,,,,,,,,,,,,,,,,,332,2023-11-17_11h25.40.071,leap3,2022.2.5,60.00653603816614,
,,,,,,,,,,,,,,,,,,,,15,0,15,0,1,0,1,0,,,,,,cassette,w,g,lower,,,,,,,4,w,LoDemTar,g,1,0.6227424362296006,,,,,,,,,,,,,,,,,,,332,2023-11-17_11h25.40.071,leap3,2022.2.5,60.00653603816614,
,,,,,,,,,,,,,,,,,,,,15,0,15,0,2,0,2,0,,,,,,entitle,w,g,lower,,,,,,,4,w,LoDemTar,g,1,0.564277748009772,,,,,,,,,,,,,,,,,,,332,2023-11-17_11h25.40.071,leap3,2022.2.5,60.00653603816614,
,,,,,,,,,,,,,,,,,,,,15,0,15,0,3,0,3,0,,,,,,sength,nw,h,lower,,,,,,,4,nw,LoDemTar,h,1,0.7082853599858936,,,,,,,,,,,,,,,,,,,332,2023-11-17_11h25.40.071,leap3,2022.2.5,60.00653603816614,
,,,,,,,,,,,,,,,,,,,,15,0,15,0,4,0,4,0,,,,,,buttress,w,g,lower,,,,,,,4,w,LoDemTar,g,1,0.654345408838708,,,,,,,,,,,,,,,,,,,332,2023-11-17_11h25.40.071,leap3,2022.2.5,60.00653603816614,
,,,,,,,,,,,,,,,,,,,,15,0,15,0,5,0,5,0,,,,,,plartly,nw,h,lower,,,,,,,4,nw,LoDemTar,h,1,0.6024140608933521,,,,,,,,,,,,,,,,,,,332,2023-11-17_11h25.40.071,leap3,2022.2.5,60.00653603816614,
,,,,,,,,,,,,,,,,,,,,15,0,15,0,6,0,6,0,,,,,,havel,nw,h,lower,,,,,,,4,nw,LoDemTar,h,1,0.6315426144719822,,,,,,,,,,,,,,,,,,,332,2023-11-17_11h25.40.071,leap3,2022.2.5,60.00653603816614,
,,,,,,,,,,,,,,,,,,,,15,0,15,0,7,0,7,0,,,,,,disease,w,g,lower,,,,,,,4,w,LoDemTar,g,1,0.5729061008023564,,,,,,,,,,,,,,,,,,,332,2023-11-17_11h25.40.071,leap3,2022.2.5,60.00653603816614,
,,,,,,,,,,,,,,,,,,,,15,0,15,0,8,0,8,0,,,,,,elvisages,nw,h,lower,,,,,,,4,nw,LoDemTar,h,1,0.6443500669993227,,,,,,,,,,,,,,,,,,,332,2023-11-17_11h25.40.071,leap3,2022.2.5,60.00653603816614,
,,,,,,,,,,,,,,,,,,,,15,0,15,0,9,0,9,0,,,,,,frogmy,nw,h,lower,,,,,,,4,nw,LoDemTar,h,1,0.5290250569960335,,,,,,,,,,,,,,,,,,,332,2023-11-17_11h25.40.071,leap3,2022.2.5,60.00653603816614,
,,,,,,,,,,,,,,,,,,,,15,0,15,0,10,0,10,0,,,,,,image,w,g,lower,,,,,,,4,w,LoDemTar,g,1,0.6584433963726042,,,,,,,,,,,,,,,,,,,332,2023-11-17_11h25.40.071,leap3,2022.2.5,60.00653603816614,
,,,,,,,,,,,,,,,,,,,,15,0,15,0,11,0,11,0,,,,,,outflow,w,g,lower,,,,,,,4,w,LoDemTar,g,1,0.502561949979281,,,,,,,,,,,,,,,,,,,332,2023-11-17_11h25.40.071,leap3,2022.2.5,60.00653603816614,
,,,,,,,,,,,,,,,,,,,,15,0,15,0,12,0,12,0,,,,,,dorth,nw,h,lower,,,,,,,4,nw,LoDemTar,h,1,0.9605999548512045,,,,,,,,,,,,,,,,,,,332,2023-11-17_11h25.40.071,leap3,2022.2.5,60.00653603816614,
,,,,,,,,,,,,,,,,,,,,15,0,15,0,13,0,13,0,,,,,,brials,nw,h,lower,,,,,,,4,nw,LoDemTar,h,1,0.6487115864438238,,,,,,,,,,,,,,,,,,,332,2023-11-17_11h25.40.071,leap3,2022.2.5,60.00653603816614,
,,,,,,,,,,,,,,,,,,,,15,0,15,0,14,0,14,0,,,,,,dredigest,nw,h,lower,,,,,,,4,nw,LoDemTar,h,1,1.2134383028460434,,,,,,,,,,,,,,,,,,,332,2023-11-17_11h25.40.071,leap3,2022.2.5,60.00653603816614,
,,,,,,,,,,,,,,,,,,,,15,0,15,0,15,0,15,0,,,,,,sazer,nw,h,lower,,,,,,,4,nw,LoDemTar,h,1,0.6506185510661453,,,,,,,,,,,,,,,,,,,332,2023-11-17_11h25.40.071,leap3,2022.2.5,60.00653603816614,
,,,,,,,,,,,,,,,,,,,,15,0,15,0,16,0,16,0,,,,,,pillage,w,g,lower,,,,,,,4,w,LoDemTar,g,1,0.9185921064927243,,,,,,,,,,,,,,,,,,,332,2023-11-17_11h25.40.071,leap3,2022.2.5,60.00653603816614,
,,,,,,,,,,,,,,,,,,,,15,0,15,0,17,0,17,0,,,,,,heaviest,w,g,lower,,,,,,,4,w,LoDemTar,g,1,0.6804870466439752,,,,,,,,,,,,,,,,,,,332,2023-11-17_11h25.40.071,leap3,2022.2.5,60.00653603816614,
,,,,,,,,,,,,,,,,,,,,15,0,15,0,18,0,18,0,,,,,,aefated,nw,h,lower,,,,,,,4,nw,LoDemTar,h,1,0.5239543850766495,,,,,,,,,,,,,,,,,,,332,2023-11-17_11h25.40.071,leap3,2022.2.5,60.00653603816614,
,,,,,,,,,,,,,,,,,,,,15,0,15,0,19,0,19,0,,,,,,subpoena,w,g,lower,,,,,,,4,w,LoDemTar,h,0,0.6053019866667455,,,,,,,,,,,,,,,,,,,332,2023-11-17_11h25.40.071,leap3,2022.2.5,60.00653603816614,
,,,,,,,,,,,,,,,,,,,,15,0,15,0,20,0,20,0,,,,,,graveyard,w,g,lower,,,,,,,4,w,LoDemTar,g,1,0.6273635147372261,,,,,,,,,,,,,,,,,,,332,2023-11-17_11h25.40.071,leap3,2022.2.5,60.00653603816614,
,,,,,,,,,,,,,,,,,,,,15,0,15,0,21,0,21,0,,,,,,shazer,nw,h,lower,,,,,,,4,nw,LoDemTar,h,1,0.8006890524702612,,,,,,,,,,,,,,,,,,,332,2023-11-17_11h25.40.071,leap3,2022.2.5,60.00653603816614,
,,,,,,,,,,,,,,,,,,,,15,0,15,0,22,0,22,0,,,,,,aicline,nw,h,lower,,,,,,,4,nw,LoDemTar,h,1,0.6388609222922241,,,,,,,,,,,,,,,,,,,332,2023-11-17_11h25.40.071,leap3,2022.2.5,60.00653603816614,
,,,,,,,,,,,,,,,,,,,,15,0,15,0,23,0,23,0,,,,,,befriend,w,g,lower,,,,,,,4,w,LoDemTar,g,1,0.7306885525613325,,,,,,,,,,,,,,,,,,,332,2023-11-17_11h25.40.071,leap3,2022.2.5,60.00653603816614,
,,,,,,,,,,,,,,,,,,,,15,0,15,0,24,0,24,0,,,,,,ergonomic,w,g,lower,,,,,,,4,w,LoDemTar,g,1,0.9236303335201228,,,,,,,,,,,,,,,,,,,332,2023-11-17_11h25.40.071,leap3,2022.2.5,60.00653603816614,
,,,,,,,,,,,,,,,,,,,,15,0,15,0,25,0,25,0,,,,,,godomy,nw,h,lower,,,,,,,4,nw,LoDemTar,h,1,1.349464142229408,,,,,,,,,,,,,,,,,,,332,2023-11-17_11h25.40.071,leap3,2022.2.5,60.00653603816614,
,,,,,,,,,,,,,,,,,,,,15,0,15,0,26,0,26,0,,,,,,budget,w,g,lower,,,,,,,4,w,LoDemTar,g,1,0.8222159021097468,,,,,,,,,,,,,,,,,,,332,2023-11-17_11h25.40.071,leap3,2022.2.5,60.00653603816614,
,,,,,,,,,,,,,,,,,,,,15,0,15,0,27,0,27,0,,,,,,coyote,target,q,lower,,,,,,,4,target,LoDemTar,g,0,0.5956575792806689,1,1,,,,,,,,,,,,,,,,,332,2023-11-17_11h25.40.071,leap3,2022.2.5,60.00653603816614,
,,,,,,,,,,,,,,,,,,,,15,0,15,0,28,0,28,0,,,,,,culer,nw,h,lower,,,,,,,4,aftertar1,LoDemTar,h,1,0.8424039036472095,,,,,,,,,,,,,,,,,,,332,2023-11-17_11h25.40.071,leap3,2022.2.5,60.00653603816614,
,,,,,,,,,,,,,,,,,,,,15,0,15,0,29,0,29,0,,,,,,unbridled,w,g,lower,,,,,,,4,aftertar2,LoDemTar,g,1,1.5192422622494632,,,,,,,,,,,,,,,,,,,332,2023-11-17_11h25.40.071,leap3,2022.2.5,60.00653603816614,
,,,,,,,,,,,,,,,,,,,,15,0,15,0,,,,,,,,,,,,,,,,,,,,,,,,,,,,1,,,,,,,,,,,,,,,,332,2023-11-17_11h25.40.071,leap3,2022.2.5,60.00653603816614,
,,,,,,,,,,,,,,,,,,,,16,0,16,0,0,0,0,0,,,,,,hustle,w,g,lower,,,,,,,3,w,LoDemNoTar,g,1,0.5999684449780034,,,,,,,,,,,,,,,,,,,332,2023-11-17_11h25.40.071,leap3,2022.2.5,60.00653603816614,
,,,,,,,,,,,,,,,,,,,,16,0,16,0,1,0,1,0,,,,,,exclusion,w,g,lower,,,,,,,3,w,LoDemNoTar,g,1,0.5347287352196872,,,,,,,,,,,,,,,,,,,332,2023-11-17_11h25.40.071,leap3,2022.2.5,60.00653603816614,
,,,,,,,,,,,,,,,,,,,,16,0,16,0,2,0,2,0,,,,,,arrival,w,g,lower,,,,,,,3,w,LoDemNoTar,g,1,0.5033730720751919,,,,,,,,,,,,,,,,,,,332,2023-11-17_11h25.40.071,leap3,2022.2.5,60.00653603816614,
,,,,,,,,,,,,,,,,,,,,16,0,16,0,3,0,3,0,,,,,,divider,w,g,lower,,,,,,,3,w,LoDemNoTar,g,1,0.5375123738485854,,,,,,,,,,,,,,,,,,,332,2023-11-17_11h25.40.071,leap3,2022.2.5,60.00653603816614,
,,,,,,,,,,,,,,,,,,,,16,0,16,0,4,0,4,0,,,,,,company,w,g,lower,,,,,,,3,w,LoDemNoTar,g,1,1.4662630769744283,,,,,,,,,,,,,,,,,,,332,2023-11-17_11h25.40.071,leap3,2022.2.5,60.00653603816614,
,,,,,,,,,,,,,,,,,,,,16,0,16,0,5,0,5,0,,,,,,poughest,nw,h,lower,,,,,,,3,nw,LoDemNoTar,h,1,0.5743204329046421,,,,,,,,,,,,,,,,,,,332,2023-11-17_11h25.40.071,leap3,2022.2.5,60.00653603816614,
,,,,,,,,,,,,,,,,,,,,16,0,16,0,6,0,6,0,,,,,,fudden,nw,h,lower,,,,,,,3,nw,LoDemNoTar,h,1,0.5976903506089002,,,,,,,,,,,,,,,,,,,332,2023-11-17_11h25.40.071,leap3,2022.2.5,60.00653603816614,
,,,,,,,,,,,,,,,,,,,,16,0,16,0,7,0,7,0,,,,,,twarfs,nw,h,lower,,,,,,,3,nw,LoDemNoTar,h,1,0.49962601902370807,,,,,,,,,,,,,,,,,,,332,2023-11-17_11h25.40.071,leap3,2022.2.5,60.00653603816614,
