demoRace_loop.thisRepN,demoRace_loop.thisTrialN,demoRace_loop.thisN,demoRace_loop.thisIndex,LDTunderstand.thisRepN,LDTunderstand.thisTrialN,LDTunderstand.thisN,LDTunderstand.thisIndex,pracBlocks.thisRepN,pracBlocks.thisTrialN,pracBlocks.thisN,pracBlocks.thisIndex,pracTrial.thisRepN,pracTrial.thisTrialN,pracTrial.thisN,pracTrial.thisIndex,PMunderstand.thisRepN,PMunderstand.thisTrialN,PMunderstand.thisN,PMunderstand.thisIndex,LDT_block.thisRepN,LDT_block.thisTrialN,LDT_block.thisN,LDT_block.thisIndex,LDT_trial.thisRepN,LDT_trial.thisTrialN,LDT_trial.thisN,LDT_trial.thisIndex,ageTextbox.text,genderTextbox.text,race,raceResp,LDTunderstand,stim,word_type,corr_key,stim_location,LDTpracKey.keys,LDTpracKey.corr,LDTpracKey.rt,PMunderstand,cueTextbox.text,intentionTextbox.text,block_type,role,block_desc,LDTResp.keys,LDTResp.corr,LDTResp.rt,pressedQ,pressedQ_blank,PM_accuracy,postQ1,Q2Textbox.text,Q3Textbox.text,Q4,Q5,Q6Key.keys,Q6Key.rt,postQ7_correct,postQ7,Q8Textbox.text,education,medTextbox.text,health,healthLimit,psych,participant,date,expName,psychopyVersion,frameRate,
0,0,0,0,,,,,,,,,,,,,,,,,,,,,,,,,"
21", female,American Indian or Alaska Native,n,,,,,,,,,,,,,,,,,,,,,,,,,,,,,,,,,,,,333,2023-11-17_12h23.02.470,leap3,2022.2.5,60.059870830479156,
1,0,1,0,,,,,,,,,,,,,,,,,,,,,,,,,,,Asian,n,,,,,,,,,,,,,,,,,,,,,,,,,,,,,,,,,,,,333,2023-11-17_12h23.02.470,leap3,2022.2.5,60.059870830479156,
2,0,2,0,,,,,,,,,,,,,,,,,,,,,,,,,,,Black or African American,n,,,,,,,,,,,,,,,,,,,,,,,,,,,,,,,,,,,,333,2023-11-17_12h23.02.470,leap3,2022.2.5,60.059870830479156,
3,0,3,0,,,,,,,,,,,,,,,,,,,,,,,,,,,Native Hawaiian or other Pacific Islander,n,,,,,,,,,,,,,,,,,,,,,,,,,,,,,,,,,,,,333,2023-11-17_12h23.02.470,leap3,2022.2.5,60.059870830479156,
4,0,4,0,,,,,,,,,,,,,,,,,,,,,,,,,,,White,y,,,,,,,,,,,,,,,,,,,,,,,,,,,,,,,,,,,,333,2023-11-17_12h23.02.470,leap3,2022.2.5,60.059870830479156,
,,,,0,0,0,0,,,,,,,,,,,,,,,,,,,,,,,,,y,,,,,,,,,,,,,,,,,,,,,,,,,,,,,,,,,,,333,2023-11-17_12h23.02.470,leap3,2022.2.5,60.059870830479156,
,,,,,,,,0,0,0,0,0,0,0,0,,,,,,,,,,,,,,,,,,treeps,nw,h,lower,g,0,0.47981779686233494,,,,,,,,,,,,,,,,,,,,,,,,,,,,333,2023-11-17_12h23.02.470,leap3,2022.2.5,60.059870830479156,
,,,,,,,,0,0,0,0,1,0,1,0,,,,,,,,,,,,,,,,,,julled,nw,h,lower,h,1,1.5362053503486095,,,,,,,,,,,,,,,,,,,,,,,,,,,,333,2023-11-17_12h23.02.470,leap3,2022.2.5,60.059870830479156,
,,,,,,,,0,0,0,0,2,0,2,0,,,,,,,,,,,,,,,,,,turative,nw,h,lower,g,0,0.7360330613882979,,,,,,,,,,,,,,,,,,,,,,,,,,,,333,2023-11-17_12h23.02.470,leap3,2022.2.5,60.059870830479156,
,,,,,,,,0,0,0,0,3,0,3,0,,,,,,,,,,,,,,,,,,raestro,nw,h,lower,h,1,0.7628894798690453,,,,,,,,,,,,,,,,,,,,,,,,,,,,333,2023-11-17_12h23.02.470,leap3,2022.2.5,60.059870830479156,
,,,,,,,,0,0,0,0,4,0,4,0,,,,,,,,,,,,,,,,,,alolition,nw,h,lower,h,1,0.7231365509651368,,,,,,,,,,,,,,,,,,,,,,,,,,,,333,2023-11-17_12h23.02.470,leap3,2022.2.5,60.059870830479156,
,,,,,,,,0,0,0,0,5,0,5,0,,,,,,,,,,,,,,,,,,revival,w,g,lower,g,1,0.532599995349301,,,,,,,,,,,,,,,,,,,,,,,,,,,,333,2023-11-17_12h23.02.470,leap3,2022.2.5,60.059870830479156,
,,,,,,,,0,0,0,0,6,0,6,0,,,,,,,,,,,,,,,,,,picture,w,g,lower,g,1,0.4605746698071016,,,,,,,,,,,,,,,,,,,,,,,,,,,,333,2023-11-17_12h23.02.470,leap3,2022.2.5,60.059870830479156,
,,,,,,,,0,0,0,0,7,0,7,0,,,,,,,,,,,,,,,,,,hiring,w,g,lower,g,1,0.44176723118289374,,,,,,,,,,,,,,,,,,,,,,,,,,,,333,2023-11-17_12h23.02.470,leap3,2022.2.5,60.059870830479156,
,,,,,,,,0,0,0,0,8,0,8,0,,,,,,,,,,,,,,,,,,busted,w,g,lower,g,1,0.40691480408713687,,,,,,,,,,,,,,,,,,,,,,,,,,,,333,2023-11-17_12h23.02.470,leap3,2022.2.5,60.059870830479156,
,,,,,,,,0,0,0,0,9,0,9,0,,,,,,,,,,,,,,,,,,unscrew,w,g,lower,g,1,0.38008718872151803,,,,,,,,,,,,,,,,,,,,,,,,,,,,333,2023-11-17_12h23.02.470,leap3,2022.2.5,60.059870830479156,
,,,,,,,,0,0,0,0,10,0,10,0,,,,,,,,,,,,,,,,,,reputable,w,g,lower,g,1,0.3554876761336345,,,,,,,,,,,,,,,,,,,,,,,,,,,,333,2023-11-17_12h23.02.470,leap3,2022.2.5,60.059870830479156,
,,,,,,,,0,0,0,0,11,0,11,0,,,,,,,,,,,,,,,,,,trotch,nw,h,lower,h,1,0.5389015864348039,,,,,,,,,,,,,,,,,,,,,,,,,,,,333,2023-11-17_12h23.02.470,leap3,2022.2.5,60.059870830479156,
,,,,,,,,0,0,0,0,12,0,12,0,,,,,,,,,,,,,,,,,,grimace,w,g,lower,g,1,0.5313809946965193,,,,,,,,,,,,,,,,,,,,,,,,,,,,333,2023-11-17_12h23.02.470,leap3,2022.2.5,60.059870830479156,
,,,,,,,,0,0,0,0,13,0,13,0,,,,,,,,,,,,,,,,,,lurshing,nw,h,lower,g,0,0.3811608495307155,,,,,,,,,,,,,,,,,,,,,,,,,,,,333,2023-11-17_12h23.02.470,leap3,2022.2.5,60.059870830479156,
,,,,,,,,0,0,0,0,,,,,,,,,,,,,,,,,,,,,,,,,,,,,,,,,,,,,,,,,,,,,,,,,,,,,,,,333,2023-11-17_12h23.02.470,leap3,2022.2.5,60.059870830479156,
,,,,,,,,1,0,1,0,0,0,0,0,,,,,,,,,,,,,,,,,,grocus,nw,h,upper,h,1,0.5964948977489257,,,,,,,,,,,,,,,,,,,,,,,,,,,,333,2023-11-17_12h23.02.470,leap3,2022.2.5,60.059870830479156,
,,,,,,,,1,0,1,0,1,0,1,0,,,,,,,,,,,,,,,,,,latador,nw,h,upper,h,1,0.42724880762398243,,,,,,,,,,,,,,,,,,,,,,,,,,,,333,2023-11-17_12h23.02.470,leap3,2022.2.5,60.059870830479156,
,,,,,,,,1,0,1,0,2,0,2,0,,,,,,,,,,,,,,,,,,hasking,nw,h,upper,h,1,0.544711538212141,,,,,,,,,,,,,,,,,,,,,,,,,,,,333,2023-11-17_12h23.02.470,leap3,2022.2.5,60.059870830479156,
,,,,,,,,1,0,1,0,3,0,3,0,,,,,,,,,,,,,,,,,,grutch,nw,h,upper,g,0,0.45010987034766003,,,,,,,,,,,,,,,,,,,,,,,,,,,,333,2023-11-17_12h23.02.470,leap3,2022.2.5,60.059870830479156,
,,,,,,,,1,0,1,0,4,0,4,0,,,,,,,,,,,,,,,,,,crinklo,nw,h,upper,h,1,0.5589260392880533,,,,,,,,,,,,,,,,,,,,,,,,,,,,333,2023-11-17_12h23.02.470,leap3,2022.2.5,60.059870830479156,
,,,,,,,,1,0,1,0,5,0,5,0,,,,,,,,,,,,,,,,,,overshoot,w,g,upper,g,1,0.4460453209176194,,,,,,,,,,,,,,,,,,,,,,,,,,,,333,2023-11-17_12h23.02.470,leap3,2022.2.5,60.059870830479156,
,,,,,,,,1,0,1,0,6,0,6,0,,,,,,,,,,,,,,,,,,sponsor,w,g,upper,g,1,0.3948876841313904,,,,,,,,,,,,,,,,,,,,,,,,,,,,333,2023-11-17_12h23.02.470,leap3,2022.2.5,60.059870830479156,
,,,,,,,,1,0,1,0,7,0,7,0,,,,,,,,,,,,,,,,,,tricycle,w,g,upper,g,1,0.41761201484769117,,,,,,,,,,,,,,,,,,,,,,,,,,,,333,2023-11-17_12h23.02.470,leap3,2022.2.5,60.059870830479156,
,,,,,,,,1,0,1,0,8,0,8,0,,,,,,,,,,,,,,,,,,slumber,w,g,upper,g,1,0.4151349472667789,,,,,,,,,,,,,,,,,,,,,,,,,,,,333,2023-11-17_12h23.02.470,leap3,2022.2.5,60.059870830479156,
,,,,,,,,1,0,1,0,9,0,9,0,,,,,,,,,,,,,,,,,,umpire,w,g,upper,g,1,0.8532633806607919,,,,,,,,,,,,,,,,,,,,,,,,,,,,333,2023-11-17_12h23.02.470,leap3,2022.2.5,60.059870830479156,
,,,,,,,,1,0,1,0,10,0,10,0,,,,,,,,,,,,,,,,,,infinity,w,g,upper,g,1,0.4413669672503602,,,,,,,,,,,,,,,,,,,,,,,,,,,,333,2023-11-17_12h23.02.470,leap3,2022.2.5,60.059870830479156,
,,,,,,,,1,0,1,0,11,0,11,0,,,,,,,,,,,,,,,,,,lumbigo,nw,h,upper,h,1,0.46918878656288143,,,,,,,,,,,,,,,,,,,,,,,,,,,,333,2023-11-17_12h23.02.470,leap3,2022.2.5,60.059870830479156,
,,,,,,,,1,0,1,0,12,0,12,0,,,,,,,,,,,,,,,,,,summary,w,g,upper,g,1,0.39260197515250184,,,,,,,,,,,,,,,,,,,,,,,,,,,,333,2023-11-17_12h23.02.470,leap3,2022.2.5,60.059870830479156,
,,,,,,,,1,0,1,0,13,0,13,0,,,,,,,,,,,,,,,,,,curlecs,nw,h,upper,h,1,0.5753570556698833,,,,,,,,,,,,,,,,,,,,,,,,,,,,333,2023-11-17_12h23.02.470,leap3,2022.2.5,60.059870830479156,
,,,,,,,,1,0,1,0,,,,,,,,,,,,,,,,,,,,,,,,,,,,,,,,,,,,,,,,,,,,,,,,,,,,,,,,333,2023-11-17_12h23.02.470,leap3,2022.2.5,60.059870830479156,
,,,,,,,,,,,,,,,,0,0,0,0,,,,,,,,,,,,,,,,,,,,,y,,,,,,,,,,,,,,,,,,,,,,,,,,,333,2023-11-17_12h23.02.470,leap3,2022.2.5,60.059870830479156,
,,,,,,,,,,,,,,,,,,,,0,0,0,0,0,0,0,0,,,,,,impirt,nw,h,upper,,,,,animal,"
q ",4,nw,LoDemTar,h,1,0.6628665366879432,,,,,,,,,,,,,,,,,,,333,2023-11-17_12h23.02.470,leap3,2022.2.5,60.059870830479156,
,,,,,,,,,,,,,,,,,,,,0,0,0,0,1,0,1,0,,,,,,flieves,nw,h,upper,,,,,,,4,nw,LoDemTar,h,1,0.46665278846921865,,,,,,,,,,,,,,,,,,,333,2023-11-17_12h23.02.470,leap3,2022.2.5,60.059870830479156,
,,,,,,,,,,,,,,,,,,,,0,0,0,0,2,0,2,0,,,,,,tusied,nw,h,upper,,,,,,,4,nw,LoDemTar,h,1,0.519220784510253,,,,,,,,,,,,,,,,,,,333,2023-11-17_12h23.02.470,leap3,2022.2.5,60.059870830479156,
,,,,,,,,,,,,,,,,,,,,0,0,0,0,3,0,3,0,,,,,,disease,w,g,upper,,,,,,,4,w,LoDemTar,g,1,0.4412911521649221,,,,,,,,,,,,,,,,,,,333,2023-11-17_12h23.02.470,leap3,2022.2.5,60.059870830479156,
,,,,,,,,,,,,,,,,,,,,0,0,0,0,4,0,4,0,,,,,,handbook,w,g,upper,,,,,,,4,w,LoDemTar,g,1,0.39061952650081366,,,,,,,,,,,,,,,,,,,333,2023-11-17_12h23.02.470,leap3,2022.2.5,60.059870830479156,
,,,,,,,,,,,,,,,,,,,,0,0,0,0,5,0,5,0,,,,,,leather,w,g,upper,,,,,,,4,w,LoDemTar,g,1,0.4059782063559396,,,,,,,,,,,,,,,,,,,333,2023-11-17_12h23.02.470,leap3,2022.2.5,60.059870830479156,
,,,,,,,,,,,,,,,,,,,,0,0,0,0,6,0,6,0,,,,,,troven,nw,h,upper,,,,,,,4,nw,LoDemTar,g,0,0.3887642088375287,,,,,,,,,,,,,,,,,,,333,2023-11-17_12h23.02.470,leap3,2022.2.5,60.059870830479156,
,,,,,,,,,,,,,,,,,,,,0,0,0,0,7,0,7,0,,,,,,theery,nw,h,upper,,,,,,,4,nw,LoDemTar,h,1,0.8761939681426156,,,,,,,,,,,,,,,,,,,333,2023-11-17_12h23.02.470,leap3,2022.2.5,60.059870830479156,
,,,,,,,,,,,,,,,,,,,,0,0,0,0,8,0,8,0,,,,,,sazer,nw,h,upper,,,,,,,4,nw,LoDemTar,h,1,0.45530866643821355,,,,,,,,,,,,,,,,,,,333,2023-11-17_12h23.02.470,leap3,2022.2.5,60.059870830479156,
,,,,,,,,,,,,,,,,,,,,0,0,0,0,9,0,9,0,,,,,,moozy,nw,h,upper,,,,,,,4,nw,LoDemTar,h,1,0.5089135744929081,,,,,,,,,,,,,,,,,,,333,2023-11-17_12h23.02.470,leap3,2022.2.5,60.059870830479156,
,,,,,,,,,,,,,,,,,,,,0,0,0,0,10,0,10,0,,,,,,nameplate,w,g,upper,,,,,,,4,w,LoDemTar,g,1,0.4858359918289352,,,,,,,,,,,,,,,,,,,333,2023-11-17_12h23.02.470,leap3,2022.2.5,60.059870830479156,
,,,,,,,,,,,,,,,,,,,,0,0,0,0,11,0,11,0,,,,,,parent,w,g,upper,,,,,,,4,w,LoDemTar,g,1,0.4180506829288788,,,,,,,,,,,,,,,,,,,333,2023-11-17_12h23.02.470,leap3,2022.2.5,60.059870830479156,
,,,,,,,,,,,,,,,,,,,,0,0,0,0,12,0,12,0,,,,,,acroad,nw,h,upper,,,,,,,4,nw,LoDemTar,g,0,0.4566875740274554,,,,,,,,,,,,,,,,,,,333,2023-11-17_12h23.02.470,leap3,2022.2.5,60.059870830479156,
,,,,,,,,,,,,,,,,,,,,0,0,0,0,13,0,13,0,,,,,,affluent,w,g,upper,,,,,,,4,w,LoDemTar,g,1,0.5653037765441695,,,,,,,,,,,,,,,,,,,333,2023-11-17_12h23.02.470,leap3,2022.2.5,60.059870830479156,
,,,,,,,,,,,,,,,,,,,,0,0,0,0,14,0,14,0,,,,,,paterways,nw,h,upper,,,,,,,4,nw,LoDemTar,h,1,0.6940656036167638,,,,,,,,,,,,,,,,,,,333,2023-11-17_12h23.02.470,leap3,2022.2.5,60.059870830479156,
,,,,,,,,,,,,,,,,,,,,0,0,0,0,15,0,15,0,,,,,,glaims,nw,h,upper,,,,,,,4,nw,LoDemTar,h,1,0.5454117517801933,,,,,,,,,,,,,,,,,,,333,2023-11-17_12h23.02.470,leap3,2022.2.5,60.059870830479156,
,,,,,,,,,,,,,,,,,,,,0,0,0,0,16,0,16,0,,,,,,lizard,target,q,upper,,,,,,,4,target,LoDemTar,g,0,0.7708086801867466,1,1,,,,,,,,,,,,,,,,,333,2023-11-17_12h23.02.470,leap3,2022.2.5,60.059870830479156,
,,,,,,,,,,,,,,,,,,,,0,0,0,0,17,0,17,0,,,,,,ordinary,w,g,upper,,,,,,,4,aftertar1,LoDemTar,g,1,1.2429115423874464,,,,,,,,,,,,,,,,,,,333,2023-11-17_12h23.02.470,leap3,2022.2.5,60.059870830479156,
,,,,,,,,,,,,,,,,,,,,0,0,0,0,18,0,18,0,,,,,,terrify,w,g,upper,,,,,,,4,aftertar2,LoDemTar,g,1,0.7283475966687547,,,,,,,,,,,,,,,,,,,333,2023-11-17_12h23.02.470,leap3,2022.2.5,60.059870830479156,
,,,,,,,,,,,,,,,,,,,,0,0,0,0,19,0,19,0,,,,,,dariner,nw,h,upper,,,,,,,4,aftertar3,LoDemTar,h,1,1.218432539346395,,,,,,,,,,,,,,,,,,,333,2023-11-17_12h23.02.470,leap3,2022.2.5,60.059870830479156,
,,,,,,,,,,,,,,,,,,,,0,0,0,0,20,0,20,0,,,,,,naxis,nw,h,upper,,,,,,,4,nw,LoDemTar,h,1,0.47148177909548394,,,,,,,,,,,,,,,,,,,333,2023-11-17_12h23.02.470,leap3,2022.2.5,60.059870830479156,
,,,,,,,,,,,,,,,,,,,,0,0,0,0,21,0,21,0,,,,,,subpoena,w,g,upper,,,,,,,4,nw,LoDemTar,h,0,0.5236018370924285,,,,,,,,,,,,,,,,,,,333,2023-11-17_12h23.02.470,leap3,2022.2.5,60.059870830479156,
,,,,,,,,,,,,,,,,,,,,0,0,0,0,22,0,22,0,,,,,,sength,nw,h,upper,,,,,,,4,w,LoDemTar,h,1,0.6376608344726264,,,,,,,,,,,,,,,,,,,333,2023-11-17_12h23.02.470,leap3,2022.2.5,60.059870830479156,
,,,,,,,,,,,,,,,,,,,,0,0,0,0,23,0,23,0,,,,,,melodic,w,g,upper,,,,,,,4,nw,LoDemTar,g,1,0.5710713513253722,,,,,,,,,,,,,,,,,,,333,2023-11-17_12h23.02.470,leap3,2022.2.5,60.059870830479156,
,,,,,,,,,,,,,,,,,,,,0,0,0,0,24,0,24,0,,,,,,angry,w,g,upper,,,,,,,4,w,LoDemTar,g,1,0.4752102922211634,,,,,,,,,,,,,,,,,,,333,2023-11-17_12h23.02.470,leap3,2022.2.5,60.059870830479156,
,,,,,,,,,,,,,,,,,,,,0,0,0,0,25,0,25,0,,,,,,addition,w,g,upper,,,,,,,4,w,LoDemTar,g,1,0.46318151692685205,,,,,,,,,,,,,,,,,,,333,2023-11-17_12h23.02.470,leap3,2022.2.5,60.059870830479156,
,,,,,,,,,,,,,,,,,,,,0,0,0,0,26,0,26,0,,,,,,personify,w,g,upper,,,,,,,4,w,LoDemTar,g,1,0.4998955520277377,,,,,,,,,,,,,,,,,,,333,2023-11-17_12h23.02.470,leap3,2022.2.5,60.059870830479156,
,,,,,,,,,,,,,,,,,,,,0,0,0,0,27,0,27,0,,,,,,poars,nw,h,upper,,,,,,,4,w,LoDemTar,h,1,0.48728409307659604,,,,,,,,,,,,,,,,,,,333,2023-11-17_12h23.02.470,leap3,2022.2.5,60.059870830479156,
,,,,,,,,,,,,,,,,,,,,0,0,0,0,28,0,28,0,,,,,,meteoroid,w,g,upper,,,,,,,4,nw,LoDemTar,g,1,0.9387947169598192,,,,,,,,,,,,,,,,,,,333,2023-11-17_12h23.02.470,leap3,2022.2.5,60.059870830479156,
,,,,,,,,,,,,,,,,,,,,0,0,0,0,29,0,29,0,,,,,,etuip,nw,h,upper,,,,,,,4,w,LoDemTar,h,1,0.5230823878810043,,,,,,,,,,,,,,,,,,,333,2023-11-17_12h23.02.470,leap3,2022.2.5,60.059870830479156,
,,,,,,,,,,,,,,,,,,,,0,0,0,0,,,,,,,,,,,,,,,,,,,,,,,,,,,,1,,,,,,,,,,,,,,,,333,2023-11-17_12h23.02.470,leap3,2022.2.5,60.059870830479156,
,,,,,,,,,,,,,,,,,,,,1,0,1,0,0,0,0,0,,,,,,relaying,w,g,upper,,,,,,,3,w,LoDemNoTar,g,1,0.509231070856913,,,,,,,,,,,,,,,,,,,333,2023-11-17_12h23.02.470,leap3,2022.2.5,60.059870830479156,
,,,,,,,,,,,,,,,,,,,,1,0,1,0,1,0,1,0,,,,,,bamboo,w,g,upper,,,,,,,3,w,LoDemNoTar,g,1,0.42394108476582915,,,,,,,,,,,,,,,,,,,333,2023-11-17_12h23.02.470,leap3,2022.2.5,60.059870830479156,
,,,,,,,,,,,,,,,,,,,,1,0,1,0,2,0,2,0,,,,,,befin,nw,h,upper,,,,,,,3,nw,LoDemNoTar,h,1,0.9500004516303306,,,,,,,,,,,,,,,,,,,333,2023-11-17_12h23.02.470,leap3,2022.2.5,60.059870830479156,
,,,,,,,,,,,,,,,,,,,,1,0,1,0,3,0,3,0,,,,,,susher,nw,h,upper,,,,,,,3,nw,LoDemNoTar,g,0,0.5675037383189192,,,,,,,,,,,,,,,,,,,333,2023-11-17_12h23.02.470,leap3,2022.2.5,60.059870830479156,
,,,,,,,,,,,,,,,,,,,,1,0,1,0,4,0,4,0,,,,,,purpose,w,g,upper,,,,,,,3,w,LoDemNoTar,g,1,0.4144840631633997,,,,,,,,,,,,,,,,,,,333,2023-11-17_12h23.02.470,leap3,2022.2.5,60.059870830479156,
,,,,,,,,,,,,,,,,,,,,1,0,1,0,5,0,5,0,,,,,,wrestle,w,g,upper,,,,,,,3,w,LoDemNoTar,g,1,0.45396253481158055,,,,,,,,,,,,,,,,,,,333,2023-11-17_12h23.02.470,leap3,2022.2.5,60.059870830479156,
,,,,,,,,,,,,,,,,,,,,1,0,1,0,6,0,6,0,,,,,,brimitive,nw,h,upper,,,,,,,3,nw,LoDemNoTar,g,0,0.5546304028248414,,,,,,,,,,,,,,,,,,,333,2023-11-17_12h23.02.470,leap3,2022.2.5,60.059870830479156,
,,,,,,,,,,,,,,,,,,,,1,0,1,0,7,0,7,0,,,,,,ebciting,nw,h,upper,,,,,,,3,nw,LoDemNoTar,h,1,0.5954285204934422,,,,,,,,,,,,,,,,,,,333,2023-11-17_12h23.02.470,leap3,2022.2.5,60.059870830479156,
,,,,,,,,,,,,,,,,,,,,1,0,1,0,8,0,8,0,,,,,,sustain,w,g,upper,,,,,,,3,w,LoDemNoTar,g,1,0.5308168509945972,,,,,,,,,,,,,,,,,,,333,2023-11-17_12h23.02.470,leap3,2022.2.5,60.059870830479156,
,,,,,,,,,,,,,,,,,,,,1,0,1,0,9,0,9,0,,,,,,bother,w,g,upper,,,,,,,3,w,LoDemNoTar,g,1,0.5170916717470391,,,,,,,,,,,,,,,,,,,333,2023-11-17_12h23.02.470,leap3,2022.2.5,60.059870830479156,
,,,,,,,,,,,,,,,,,,,,1,0,1,0,10,0,10,0,,,,,,ignoble,w,g,upper,,,,,,,3,w,LoDemNoTar,h,0,0.6630847119959071,,,,,,,,,,,,,,,,,,,333,2023-11-17_12h23.02.470,leap3,2022.2.5,60.059870830479156,
,,,,,,,,,,,,,,,,,,,,1,0,1,0,11,0,11,0,,,,,,intended,w,g,upper,,,,,,,3,w,LoDemNoTar,g,1,0.5158054638304748,,,,,,,,,,,,,,,,,,,333,2023-11-17_12h23.02.470,leap3,2022.2.5,60.059870830479156,
,,,,,,,,,,,,,,,,,,,,1,0,1,0,12,0,12,0,,,,,,priant,nw,h,upper,,,,,,,3,nw,LoDemNoTar,h,1,0.5185132873884868,,,,,,,,,,,,,,,,,,,333,2023-11-17_12h23.02.470,leap3,2022.2.5,60.059870830479156,
,,,,,,,,,,,,,,,,,,,,1,0,1,0,13,0,13,0,,,,,,sonnet,w,g,upper,,,,,,,3,w,LoDemNoTar,h,0,0.5525198300019838,,,,,,,,,,,,,,,,,,,333,2023-11-17_12h23.02.470,leap3,2022.2.5,60.059870830479156,
,,,,,,,,,,,,,,,,,,,,1,0,1,0,14,0,14,0,,,,,,triplet,w,g,upper,,,,,,,3,w,LoDemNoTar,g,1,0.6093139377480838,,,,,,,,,,,,,,,,,,,333,2023-11-17_12h23.02.470,leap3,2022.2.5,60.059870830479156,
,,,,,,,,,,,,,,,,,,,,1,0,1,0,15,0,15,0,,,,,,ringlat,nw,h,upper,,,,,,,3,nw,LoDemNoTar,h,1,0.7190431984345196,,,,,,,,,,,,,,,,,,,333,2023-11-17_12h23.02.470,leap3,2022.2.5,60.059870830479156,
,,,,,,,,,,,,,,,,,,,,1,0,1,0,16,0,16,0,,,,,,previous,w,g,upper,,,,,,,3,w,LoDemNoTar,g,1,0.4970778131537372,,,,,,,,,,,,,,,,,,,333,2023-11-17_12h23.02.470,leap3,2022.2.5,60.059870830479156,
,,,,,,,,,,,,,,,,,,,,1,0,1,0,17,0,17,0,,,,,,plogging,nw,h,upper,,,,,,,3,nw,LoDemNoTar,h,1,0.6045279862446478,,,,,,,,,,,,,,,,,,,333,2023-11-17_12h23.02.470,leap3,2022.2.5,60.059870830479156,
,,,,,,,,,,,,,,,,,,,,1,0,1,0,18,0,18,0,,,,,,topefuls,nw,h,upper,,,,,,,3,nw,LoDemNoTar,h,1,0.5552220253593987,,,,,,,,,,,,,,,,,,,333,2023-11-17_12h23.02.470,leap3,2022.2.5,60.059870830479156,
,,,,,,,,,,,,,,,,,,,,1,0,1,0,19,0,19,0,,,,,,sonkers,nw,h,upper,,,,,,,3,nw,LoDemNoTar,h,1,0.5799533039098606,,,,,,,,,,,,,,,,,,,333,2023-11-17_12h23.02.470,leap3,2022.2.5,60.059870830479156,
,,,,,,,,,,,,,,,,,,,,1,0,1,0,20,0,20,0,,,,,,surfaced,w,g,upper,,,,,,,3,w,LoDemNoTar,g,1,0.5480474020296242,,,,,,,,,,,,,,,,,,,333,2023-11-17_12h23.02.470,leap3,2022.2.5,60.059870830479156,
,,,,,,,,,,,,,,,,,,,,1,0,1,0,21,0,21,0,,,,,,fivalve,nw,h,upper,,,,,,,3,nw,LoDemNoTar,h,1,0.5574643641448347,,,,,,,,,,,,,,,,,,,333,2023-11-17_12h23.02.470,leap3,2022.2.5,60.059870830479156,
,,,,,,,,,,,,,,,,,,,,1,0,1,0,22,0,22,0,,,,,,rarely,w,g,upper,,,,,,,3,w,LoDemNoTar,g,1,0.4782243557710899,,,,,,,,,,,,,,,,,,,333,2023-11-17_12h23.02.470,leap3,2022.2.5,60.059870830479156,
,,,,,,,,,,,,,,,,,,,,1,0,1,0,23,0,23,0,,,,,,bloves,nw,h,upper,,,,,,,3,nw,LoDemNoTar,h,1,0.5533633969898801,,,,,,,,,,,,,,,,,,,333,2023-11-17_12h23.02.470,leap3,2022.2.5,60.059870830479156,
,,,,,,,,,,,,,,,,,,,,1,0,1,0,24,0,24,0,,,,,,baladroit,nw,h,upper,,,,,,,3,nw,LoDemNoTar,h,1,0.5230012756655924,,,,,,,,,,,,,,,,,,,333,2023-11-17_12h23.02.470,leap3,2022.2.5,60.059870830479156,
,,,,,,,,,,,,,,,,,,,,1,0,1,0,25,0,25,0,,,,,,nearsipe,nw,h,upper,,,,,,,3,nw,LoDemNoTar,h,1,0.4760502174467547,,,,,,,,,,,,,,,,,,,333,2023-11-17_12h23.02.470,leap3,2022.2.5,60.059870830479156,
,,,,,,,,,,,,,,,,,,,,1,0,1,0,26,0,26,0,,,,,,roaned,nw,h,upper,,,,,,,3,nw,LoDemNoTar,h,1,0.5680357682140311,,,,,,,,,,,,,,,,,,,333,2023-11-17_12h23.02.470,leap3,2022.2.5,60.059870830479156,
,,,,,,,,,,,,,,,,,,,,1,0,1,0,27,0,27,0,,,,,,laser,w,g,upper,,,,,,,3,w,LoDemNoTar,g,1,0.8081202970788581,,,,,,,,,,,,,,,,,,,333,2023-11-17_12h23.02.470,leap3,2022.2.5,60.059870830479156,
,,,,,,,,,,,,,,,,,,,,1,0,1,0,28,0,28,0,,,,,,chraps,nw,h,upper,,,,,,,3,nw,LoDemNoTar,h,1,0.4948424268368399,,,,,,,,,,,,,,,,,,,333,2023-11-17_12h23.02.470,leap3,2022.2.5,60.059870830479156,
,,,,,,,,,,,,,,,,,,,,1,0,1,0,29,0,29,0,,,,,,maroon,w,g,upper,,,,,,,3,w,LoDemNoTar,g,1,0.5302967396419263,,,,,,,,,,,,,,,,,,,333,2023-11-17_12h23.02.470,leap3,2022.2.5,60.059870830479156,
,,,,,,,,,,,,,,,,,,,,1,0,1,0,,,,,,,,,,,,,,,,,,,,,,,,,,,,NA,,,,,,,,,,,,,,,,333,2023-11-17_12h23.02.470,leap3,2022.2.5,60.059870830479156,
,,,,,,,,,,,,,,,,,,,,2,0,2,0,0,0,0,0,,,,,,unrealon,nw,h,lower,,,,,,,1,nw,HiDemTar,h,1,0.6109858425043058,,,,,,,,,,,,,,,,,,,333,2023-11-17_12h23.02.470,leap3,2022.2.5,60.059870830479156,
,,,,,,,,,,,,,,,,,,,,2,0,2,0,1,0,1,0,,,,,,cervical,w,g,lower,,,,,,,1,w,HiDemTar,g,1,0.6269288613257231,,,,,,,,,,,,,,,,,,,333,2023-11-17_12h23.02.470,leap3,2022.2.5,60.059870830479156,
,,,,,,,,,,,,,,,,,,,,2,0,2,0,2,0,2,0,,,,,,frunted,nw,h,lower,,,,,,,1,nw,HiDemTar,h,1,0.5690819502051454,,,,,,,,,,,,,,,,,,,333,2023-11-17_12h23.02.470,leap3,2022.2.5,60.059870830479156,
,,,,,,,,,,,,,,,,,,,,2,0,2,0,3,0,3,0,,,,,,endgume,nw,h,lower,,,,,,,1,nw,HiDemTar,h,1,0.7130832718248712,,,,,,,,,,,,,,,,,,,333,2023-11-17_12h23.02.470,leap3,2022.2.5,60.059870830479156,
,,,,,,,,,,,,,,,,,,,,2,0,2,0,4,0,4,0,,,,,,tablet,w,g,lower,,,,,,,1,w,HiDemTar,g,1,0.45987246980075724,,,,,,,,,,,,,,,,,,,333,2023-11-17_12h23.02.470,leap3,2022.2.5,60.059870830479156,
,,,,,,,,,,,,,,,,,,,,2,0,2,0,5,0,5,0,,,,,,parody,w,g,lower,,,,,,,1,w,HiDemTar,g,1,0.504630518698832,,,,,,,,,,,,,,,,,,,333,2023-11-17_12h23.02.470,leap3,2022.2.5,60.059870830479156,
,,,,,,,,,,,,,,,,,,,,2,0,2,0,6,0,6,0,,,,,,harfing,nw,h,lower,,,,,,,1,nw,HiDemTar,h,1,0.5073558889707783,,,,,,,,,,,,,,,,,,,333,2023-11-17_12h23.02.470,leap3,2022.2.5,60.059870830479156,
,,,,,,,,,,,,,,,,,,,,2,0,2,0,7,0,7,0,,,,,,country,w,g,lower,,,,,,,1,w,HiDemTar,g,1,0.5021292829915183,,,,,,,,,,,,,,,,,,,333,2023-11-17_12h23.02.470,leap3,2022.2.5,60.059870830479156,
,,,,,,,,,,,,,,,,,,,,2,0,2,0,8,0,8,0,,,,,,acoustic,w,g,lower,,,,,,,1,w,HiDemTar,g,1,0.4648342196160229,,,,,,,,,,,,,,,,,,,333,2023-11-17_12h23.02.470,leap3,2022.2.5,60.059870830479156,
,,,,,,,,,,,,,,,,,,,,2,0,2,0,9,0,9,0,,,,,,afternoon,w,g,lower,,,,,,,1,w,HiDemTar,g,1,0.437589455730631,,,,,,,,,,,,,,,,,,,333,2023-11-17_12h23.02.470,leap3,2022.2.5,60.059870830479156,
,,,,,,,,,,,,,,,,,,,,2,0,2,0,10,0,10,0,,,,,,chonemic,nw,h,lower,,,,,,,1,nw,HiDemTar,g,0,0.5619983711949317,,,,,,,,,,,,,,,,,,,333,2023-11-17_12h23.02.470,leap3,2022.2.5,60.059870830479156,
,,,,,,,,,,,,,,,,,,,,2,0,2,0,11,0,11,0,,,,,,noils,nw,h,lower,,,,,,,1,nw,HiDemTar,h,1,0.46674085316772107,,,,,,,,,,,,,,,,,,,333,2023-11-17_12h23.02.470,leap3,2022.2.5,60.059870830479156,
,,,,,,,,,,,,,,,,,,,,2,0,2,0,12,0,12,0,,,,,,exemplify,w,g,lower,,,,,,,1,w,HiDemTar,g,1,0.4874522767640883,,,,,,,,,,,,,,,,,,,333,2023-11-17_12h23.02.470,leap3,2022.2.5,60.059870830479156,
,,,,,,,,,,,,,,,,,,,,2,0,2,0,13,0,13,0,,,,,,egpended,nw,h,lower,,,,,,,1,nw,HiDemTar,h,1,0.5948435193568002,,,,,,,,,,,,,,,,,,,333,2023-11-17_12h23.02.470,leap3,2022.2.5,60.059870830479156,
,,,,,,,,,,,,,,,,,,,,2,0,2,0,14,0,14,0,,,,,,measure,w,g,lower,,,,,,,1,w,HiDemTar,g,1,0.5142348665831378,,,,,,,,,,,,,,,,,,,333,2023-11-17_12h23.02.470,leap3,2022.2.5,60.059870830479156,
,,,,,,,,,,,,,,,,,,,,2,0,2,0,15,0,15,0,,,,,,standard,w,g,lower,,,,,,,1,w,HiDemTar,g,1,0.5810104112169938,,,,,,,,,,,,,,,,,,,333,2023-11-17_12h23.02.470,leap3,2022.2.5,60.059870830479156,
,,,,,,,,,,,,,,,,,,,,2,0,2,0,16,0,16,0,,,,,,equitable,w,g,lower,,,,,,,1,w,HiDemTar,g,1,0.620399824983906,,,,,,,,,,,,,,,,,,,333,2023-11-17_12h23.02.470,leap3,2022.2.5,60.059870830479156,
,,,,,,,,,,,,,,,,,,,,2,0,2,0,17,0,17,0,,,,,,latpin,nw,h,lower,,,,,,,1,nw,HiDemTar,h,1,0.6344878572272137,,,,,,,,,,,,,,,,,,,333,2023-11-17_12h23.02.470,leap3,2022.2.5,60.059870830479156,
,,,,,,,,,,,,,,,,,,,,2,0,2,0,18,0,18,0,,,,,,chining,nw,h,lower,,,,,,,1,nw,HiDemTar,h,1,0.5990130180725828,,,,,,,,,,,,,,,,,,,333,2023-11-17_12h23.02.470,leap3,2022.2.5,60.059870830479156,
,,,,,,,,,,,,,,,,,,,,2,0,2,0,19,0,19,0,,,,,,issue,w,g,lower,,,,,,,1,w,HiDemTar,g,1,0.5192926267482108,,,,,,,,,,,,,,,,,,,333,2023-11-17_12h23.02.470,leap3,2022.2.5,60.059870830479156,
,,,,,,,,,,,,,,,,,,,,2,0,2,0,20,0,20,0,,,,,,lindo,nw,h,lower,,,,,,,1,nw,HiDemTar,h,1,0.5363950535975164,,,,,,,,,,,,,,,,,,,333,2023-11-17_12h23.02.470,leap3,2022.2.5,60.059870830479156,
,,,,,,,,,,,,,,,,,,,,2,0,2,0,21,0,21,0,,,,,,sporidic,nw,h,lower,,,,,,,1,nw,HiDemTar,h,1,0.4896995816088747,,,,,,,,,,,,,,,,,,,333,2023-11-17_12h23.02.470,leap3,2022.2.5,60.059870830479156,
,,,,,,,,,,,,,,,,,,,,2,0,2,0,22,0,22,0,,,,,,inversion,w,g,lower,,,,,,,1,w,HiDemTar,g,1,0.43719415785744786,,,,,,,,,,,,,,,,,,,333,2023-11-17_12h23.02.470,leap3,2022.2.5,60.059870830479156,
,,,,,,,,,,,,,,,,,,,,2,0,2,0,23,0,23,0,,,,,,nogwhell,nw,h,lower,,,,,,,1,nw,HiDemTar,h,1,0.5544678473379463,,,,,,,,,,,,,,,,,,,333,2023-11-17_12h23.02.470,leap3,2022.2.5,60.059870830479156,
,,,,,,,,,,,,,,,,,,,,2,0,2,0,24,0,24,0,,,,,,illness,w,g,lower,,,,,,,1,w,HiDemTar,g,1,0.4512192867405247,,,,,,,,,,,,,,,,,,,333,2023-11-17_12h23.02.470,leap3,2022.2.5,60.059870830479156,
,,,,,,,,,,,,,,,,,,,,2,0,2,0,25,0,25,0,,,,,,spider,target,q,lower,,,,,,,1,target,HiDemTar,q,1,0.5120289455226157,1,,,,,,,,,,,,,,,,,,333,2023-11-17_12h23.02.470,leap3,2022.2.5,60.059870830479156,
,,,,,,,,,,,,,,,,,,,,2,0,2,0,26,0,26,0,,,,,,felevance,nw,h,lower,,,,,,,1,aftertar1,HiDemTar,h,1,0.5706280482554575,,,,,,,,,,,,,,,,,,,333,2023-11-17_12h23.02.470,leap3,2022.2.5,60.059870830479156,
,,,,,,,,,,,,,,,,,,,,2,0,2,0,27,0,27,0,,,,,,senalize,nw,h,lower,,,,,,,1,aftertar2,HiDemTar,g,0,0.6506616320111789,,,,,,,,,,,,,,,,,,,333,2023-11-17_12h23.02.470,leap3,2022.2.5,60.059870830479156,
,,,,,,,,,,,,,,,,,,,,2,0,2,0,28,0,28,0,,,,,,decant,w,g,lower,,,,,,,1,aftertar3,HiDemTar,g,1,0.455448709151824,,,,,,,,,,,,,,,,,,,333,2023-11-17_12h23.02.470,leap3,2022.2.5,60.059870830479156,
,,,,,,,,,,,,,,,,,,,,2,0,2,0,29,0,29,0,,,,,,praiged,nw,h,lower,,,,,,,1,w,HiDemTar,h,1,0.5396570887387497,,,,,,,,,,,,,,,,,,,333,2023-11-17_12h23.02.470,leap3,2022.2.5,60.059870830479156,
,,,,,,,,,,,,,,,,,,,,2,0,2,0,,,,,,,,,,,,,,,,,,,,,,,,,,,,1,,,,,,,,,,,,,,,,333,2023-11-17_12h23.02.470,leap3,2022.2.5,60.059870830479156,
,,,,,,,,,,,,,,,,,,,,3,0,3,0,0,0,0,0,,,,,,prominent,w,g,lower,,,,,,,2,w,HiDemNoTar,g,1,0.5969775981939165,,,,,,,,,,,,,,,,,,,333,2023-11-17_12h23.02.470,leap3,2022.2.5,60.059870830479156,
,,,,,,,,,,,,,,,,,,,,3,0,3,0,1,0,1,0,,,,,,olerates,nw,h,lower,,,,,,,2,nw,HiDemNoTar,h,1,0.46039225009735674,,,,,,,,,,,,,,,,,,,333,2023-11-17_12h23.02.470,leap3,2022.2.5,60.059870830479156,
,,,,,,,,,,,,,,,,,,,,3,0,3,0,2,0,2,0,,,,,,lovud,nw,h,lower,,,,,,,2,nw,HiDemNoTar,h,1,0.473095415494754,,,,,,,,,,,,,,,,,,,333,2023-11-17_12h23.02.470,leap3,2022.2.5,60.059870830479156,
,,,,,,,,,,,,,,,,,,,,3,0,3,0,3,0,3,0,,,,,,ilterfere,nw,h,lower,,,,,,,2,nw,HiDemNoTar,h,1,0.5011794424353866,,,,,,,,,,,,,,,,,,,333,2023-11-17_12h23.02.470,leap3,2022.2.5,60.059870830479156,
,,,,,,,,,,,,,,,,,,,,3,0,3,0,4,0,4,0,,,,,,lanthers,nw,h,lower,,,,,,,2,nw,HiDemNoTar,h,1,0.5669508510181913,,,,,,,,,,,,,,,,,,,333,2023-11-17_12h23.02.470,leap3,2022.2.5,60.059870830479156,
,,,,,,,,,,,,,,,,,,,,3,0,3,0,5,0,5,0,,,,,,slimped,nw,h,lower,,,,,,,2,nw,HiDemNoTar,h,1,0.5516911611775868,,,,,,,,,,,,,,,,,,,333,2023-11-17_12h23.02.470,leap3,2022.2.5,60.059870830479156,
,,,,,,,,,,,,,,,,,,,,3,0,3,0,6,0,6,0,,,,,,actual,w,g,lower,,,,,,,2,w,HiDemNoTar,g,1,0.44837108939827885,,,,,,,,,,,,,,,,,,,333,2023-11-17_12h23.02.470,leap3,2022.2.5,60.059870830479156,
,,,,,,,,,,,,,,,,,,,,3,0,3,0,7,0,7,0,,,,,,neliefs,nw,h,lower,,,,,,,2,nw,HiDemNoTar,h,1,0.46174069921835326,,,,,,,,,,,,,,,,,,,333,2023-11-17_12h23.02.470,leap3,2022.2.5,60.059870830479156,
,,,,,,,,,,,,,,,,,,,,3,0,3,0,8,0,8,0,,,,,,urgent,w,g,lower,,,,,,,2,w,HiDemNoTar,g,1,0.49848585491417907,,,,,,,,,,,,,,,,,,,333,2023-11-17_12h23.02.470,leap3,2022.2.5,60.059870830479156,
,,,,,,,,,,,,,,,,,,,,3,0,3,0,9,0,9,0,,,,,,puyer,nw,h,lower,,,,,,,2,nw,HiDemNoTar,h,1,0.4858734027657192,,,,,,,,,,,,,,,,,,,333,2023-11-17_12h23.02.470,leap3,2022.2.5,60.059870830479156,
,,,,,,,,,,,,,,,,,,,,3,0,3,0,10,0,10,0,,,,,,extend,w,g,lower,,,,,,,2,w,HiDemNoTar,g,1,0.5692600659967866,,,,,,,,,,,,,,,,,,,333,2023-11-17_12h23.02.470,leap3,2022.2.5,60.059870830479156,
,,,,,,,,,,,,,,,,,,,,3,0,3,0,11,0,11,0,,,,,,gunrunker,nw,h,lower,,,,,,,2,nw,HiDemNoTar,h,1,0.505338677961845,,,,,,,,,,,,,,,,,,,333,2023-11-17_12h23.02.470,leap3,2022.2.5,60.059870830479156,
,,,,,,,,,,,,,,,,,,,,3,0,3,0,12,0,12,0,,,,,,hardest,w,g,lower,,,,,,,2,w,HiDemNoTar,g,1,0.492046207524254,,,,,,,,,,,,,,,,,,,333,2023-11-17_12h23.02.470,leap3,2022.2.5,60.059870830479156,
,,,,,,,,,,,,,,,,,,,,3,0,3,0,13,0,13,0,,,,,,blanned,nw,h,lower,,,,,,,2,nw,HiDemNoTar,h,1,0.5114939360064454,,,,,,,,,,,,,,,,,,,333,2023-11-17_12h23.02.470,leap3,2022.2.5,60.059870830479156,
,,,,,,,,,,,,,,,,,,,,3,0,3,0,14,0,14,0,,,,,,snays,nw,h,lower,,,,,,,2,nw,HiDemNoTar,h,1,0.5622281339456094,,,,,,,,,,,,,,,,,,,333,2023-11-17_12h23.02.470,leap3,2022.2.5,60.059870830479156,
,,,,,,,,,,,,,,,,,,,,3,0,3,0,15,0,15,0,,,,,,brudent,nw,h,lower,,,,,,,2,nw,HiDemNoTar,h,1,0.5140140427247388,,,,,,,,,,,,,,,,,,,333,2023-11-17_12h23.02.470,leap3,2022.2.5,60.059870830479156,
,,,,,,,,,,,,,,,,,,,,3,0,3,0,16,0,16,0,,,,,,nomma,nw,h,lower,,,,,,,2,nw,HiDemNoTar,h,1,0.39664268752676435,,,,,,,,,,,,,,,,,,,333,2023-11-17_12h23.02.470,leap3,2022.2.5,60.059870830479156,
,,,,,,,,,,,,,,,,,,,,3,0,3,0,17,0,17,0,,,,,,rowel,nw,h,lower,,,,,,,2,nw,HiDemNoTar,h,1,0.396050071780337,,,,,,,,,,,,,,,,,,,333,2023-11-17_12h23.02.470,leap3,2022.2.5,60.059870830479156,
,,,,,,,,,,,,,,,,,,,,3,0,3,0,18,0,18,0,,,,,,condensed,w,g,lower,,,,,,,2,w,HiDemNoTar,g,1,0.45146593407844193,,,,,,,,,,,,,,,,,,,333,2023-11-17_12h23.02.470,leap3,2022.2.5,60.059870830479156,
,,,,,,,,,,,,,,,,,,,,3,0,3,0,19,0,19,0,,,,,,trembles,w,g,lower,,,,,,,2,w,HiDemNoTar,g,1,0.5601202096586348,,,,,,,,,,,,,,,,,,,333,2023-11-17_12h23.02.470,leap3,2022.2.5,60.059870830479156,
,,,,,,,,,,,,,,,,,,,,3,0,3,0,20,0,20,0,,,,,,breiled,nw,h,lower,,,,,,,2,nw,HiDemNoTar,h,1,0.5368731190392282,,,,,,,,,,,,,,,,,,,333,2023-11-17_12h23.02.470,leap3,2022.2.5,60.059870830479156,
,,,,,,,,,,,,,,,,,,,,3,0,3,0,21,0,21,0,,,,,,skiing,w,g,lower,,,,,,,2,w,HiDemNoTar,g,1,0.6583202800538857,,,,,,,,,,,,,,,,,,,333,2023-11-17_12h23.02.470,leap3,2022.2.5,60.059870830479156,
,,,,,,,,,,,,,,,,,,,,3,0,3,0,22,0,22,0,,,,,,arbitrary,w,g,lower,,,,,,,2,w,HiDemNoTar,g,1,0.5990110316488426,,,,,,,,,,,,,,,,,,,333,2023-11-17_12h23.02.470,leap3,2022.2.5,60.059870830479156,
,,,,,,,,,,,,,,,,,,,,3,0,3,0,23,0,23,0,,,,,,distrust,w,g,lower,,,,,,,2,w,HiDemNoTar,g,1,0.534343080202234,,,,,,,,,,,,,,,,,,,333,2023-11-17_12h23.02.470,leap3,2022.2.5,60.059870830479156,
,,,,,,,,,,,,,,,,,,,,3,0,3,0,24,0,24,0,,,,,,martial,w,g,lower,,,,,,,2,w,HiDemNoTar,g,1,0.5917427154345205,,,,,,,,,,,,,,,,,,,333,2023-11-17_12h23.02.470,leap3,2022.2.5,60.059870830479156,
,,,,,,,,,,,,,,,,,,,,3,0,3,0,25,0,25,0,,,,,,perishing,w,g,lower,,,,,,,2,w,HiDemNoTar,g,1,0.5734934612555662,,,,,,,,,,,,,,,,,,,333,2023-11-17_12h23.02.470,leap3,2022.2.5,60.059870830479156,
,,,,,,,,,,,,,,,,,,,,3,0,3,0,26,0,26,0,,,,,,ausht,nw,h,lower,,,,,,,2,nw,HiDemNoTar,h,1,0.534114972804673,,,,,,,,,,,,,,,,,,,333,2023-11-17_12h23.02.470,leap3,2022.2.5,60.059870830479156,
,,,,,,,,,,,,,,,,,,,,3,0,3,0,27,0,27,0,,,,,,shockwave,w,g,lower,,,,,,,2,w,HiDemNoTar,g,1,0.536334467746201,,,,,,,,,,,,,,,,,,,333,2023-11-17_12h23.02.470,leap3,2022.2.5,60.059870830479156,
,,,,,,,,,,,,,,,,,,,,3,0,3,0,28,0,28,0,,,,,,compose,w,g,lower,,,,,,,2,w,HiDemNoTar,g,1,0.5137154173717136,,,,,,,,,,,,,,,,,,,333,2023-11-17_12h23.02.470,leap3,2022.2.5,60.059870830479156,
,,,,,,,,,,,,,,,,,,,,3,0,3,0,29,0,29,0,,,,,,elderly,w,g,lower,,,,,,,2,w,HiDemNoTar,g,1,0.524409979567281,,,,,,,,,,,,,,,,,,,333,2023-11-17_12h23.02.470,leap3,2022.2.5,60.059870830479156,
,,,,,,,,,,,,,,,,,,,,3,0,3,0,,,,,,,,,,,,,,,,,,,,,,,,,,,,NA,,,,,,,,,,,,,,,,333,2023-11-17_12h23.02.470,leap3,2022.2.5,60.059870830479156,
,,,,,,,,,,,,,,,,,,,,4,0,4,0,0,0,0,0,,,,,,stranded,w,g,lower,,,,,,,1,w,HiDemTar,g,1,0.5829345914971782,,,,,,,,,,,,,,,,,,,333,2023-11-17_12h23.02.470,leap3,2022.2.5,60.059870830479156,
,,,,,,,,,,,,,,,,,,,,4,0,4,0,1,0,1,0,,,,,,intercede,w,g,lower,,,,,,,1,w,HiDemTar,g,1,0.573997019091621,,,,,,,,,,,,,,,,,,,333,2023-11-17_12h23.02.470,leap3,2022.2.5,60.059870830479156,
,,,,,,,,,,,,,,,,,,,,4,0,4,0,2,0,2,0,,,,,,dorth,nw,h,lower,,,,,,,1,nw,HiDemTar,h,1,0.5580526759731583,,,,,,,,,,,,,,,,,,,333,2023-11-17_12h23.02.470,leap3,2022.2.5,60.059870830479156,
,,,,,,,,,,,,,,,,,,,,4,0,4,0,3,0,3,0,,,,,,require,w,g,lower,,,,,,,1,w,HiDemTar,g,1,0.5107874320965493,,,,,,,,,,,,,,,,,,,333,2023-11-17_12h23.02.470,leap3,2022.2.5,60.059870830479156,
,,,,,,,,,,,,,,,,,,,,4,0,4,0,4,0,4,0,,,,,,ifkling,nw,h,lower,,,,,,,1,nw,HiDemTar,h,1,0.44149509143608157,,,,,,,,,,,,,,,,,,,333,2023-11-17_12h23.02.470,leap3,2022.2.5,60.059870830479156,
,,,,,,,,,,,,,,,,,,,,4,0,4,0,5,0,5,0,,,,,,cassette,w,g,lower,,,,,,,1,w,HiDemTar,g,1,0.5988931706378935,,,,,,,,,,,,,,,,,,,333,2023-11-17_12h23.02.470,leap3,2022.2.5,60.059870830479156,
,,,,,,,,,,,,,,,,,,,,4,0,4,0,6,0,6,0,,,,,,maunches,nw,h,lower,,,,,,,1,nw,HiDemTar,h,1,0.7183022632234497,,,,,,,,,,,,,,,,,,,333,2023-11-17_12h23.02.470,leap3,2022.2.5,60.059870830479156,
,,,,,,,,,,,,,,,,,,,,4,0,4,0,7,0,7,0,,,,,,refebs,nw,h,lower,,,,,,,1,nw,HiDemTar,h,1,0.5684628488379531,,,,,,,,,,,,,,,,,,,333,2023-11-17_12h23.02.470,leap3,2022.2.5,60.059870830479156,
,,,,,,,,,,,,,,,,,,,,4,0,4,0,8,0,8,0,,,,,,stagger,w,g,lower,,,,,,,1,w,HiDemTar,g,1,0.5044196269591339,,,,,,,,,,,,,,,,,,,333,2023-11-17_12h23.02.470,leap3,2022.2.5,60.059870830479156,
,,,,,,,,,,,,,,,,,,,,4,0,4,0,9,0,9,0,,,,,,trallion,nw,h,lower,,,,,,,1,nw,HiDemTar,h,1,0.611040800155024,,,,,,,,,,,,,,,,,,,333,2023-11-17_12h23.02.470,leap3,2022.2.5,60.059870830479156,
,,,,,,,,,,,,,,,,,,,,4,0,4,0,10,0,10,0,,,,,,galashes,nw,h,lower,,,,,,,1,nw,HiDemTar,g,0,0.7377079457801301,,,,,,,,,,,,,,,,,,,333,2023-11-17_12h23.02.470,leap3,2022.2.5,60.059870830479156,
,,,,,,,,,,,,,,,,,,,,4,0,4,0,11,0,11,0,,,,,,season,w,g,lower,,,,,,,1,w,HiDemTar,g,1,0.5220030988712097,,,,,,,,,,,,,,,,,,,333,2023-11-17_12h23.02.470,leap3,2022.2.5,60.059870830479156,
,,,,,,,,,,,,,,,,,,,,4,0,4,0,12,0,12,0,,,,,,buttress,w,g,lower,,,,,,,1,w,HiDemTar,g,1,0.6280468855693471,,,,,,,,,,,,,,,,,,,333,2023-11-17_12h23.02.470,leap3,2022.2.5,60.059870830479156,
,,,,,,,,,,,,,,,,,,,,4,0,4,0,13,0,13,0,,,,,,tracing,w,g,lower,,,,,,,1,w,HiDemTar,g,1,0.5700639045680873,,,,,,,,,,,,,,,,,,,333,2023-11-17_12h23.02.470,leap3,2022.2.5,60.059870830479156,
,,,,,,,,,,,,,,,,,,,,4,0,4,0,14,0,14,0,,,,,,educate,w,g,lower,,,,,,,1,w,HiDemTar,g,1,0.5300530719250673,,,,,,,,,,,,,,,,,,,333,2023-11-17_12h23.02.470,leap3,2022.2.5,60.059870830479156,
,,,,,,,,,,,,,,,,,,,,4,0,4,0,15,0,15,0,,,,,,expected,w,g,lower,,,,,,,1,w,HiDemTar,g,1,0.4681349899765337,,,,,,,,,,,,,,,,,,,333,2023-11-17_12h23.02.470,leap3,2022.2.5,60.059870830479156,
,,,,,,,,,,,,,,,,,,,,4,0,4,0,16,0,16,0,,,,,,godomy,nw,h,lower,,,,,,,1,nw,HiDemTar,h,1,0.5362288563337643,,,,,,,,,,,,,,,,,,,333,2023-11-17_12h23.02.470,leap3,2022.2.5,60.059870830479156,
,,,,,,,,,,,,,,,,,,,,4,0,4,0,17,0,17,0,,,,,,gaining,w,g,lower,,,,,,,1,w,HiDemTar,g,1,0.5856152672931785,,,,,,,,,,,,,,,,,,,333,2023-11-17_12h23.02.470,leap3,2022.2.5,60.059870830479156,
,,,,,,,,,,,,,,,,,,,,4,0,4,0,18,0,18,0,,,,,,butterfly,target,q,lower,,,,,,,1,target,HiDemTar,g,0,0.42506606147799175,,,,,,,,,,,,,,,,,,,333,2023-11-17_12h23.02.470,leap3,2022.2.5,60.059870830479156,
,,,,,,,,,,,,,,,,,,,,4,0,4,0,19,0,19,0,,,,,,medium,w,g,lower,,,,,,,1,aftertar1,HiDemTar,g,1,0.43903987448720727,,,,,,,,,,,,,,,,,,,333,2023-11-17_12h23.02.470,leap3,2022.2.5,60.059870830479156,
,,,,,,,,,,,,,,,,,,,,4,0,4,0,20,0,20,0,,,,,,passet,nw,h,lower,,,,,,,1,aftertar2,HiDemTar,h,1,0.8263579638005467,,,,,,,,,,,,,,,,,,,333,2023-11-17_12h23.02.470,leap3,2022.2.5,60.059870830479156,
,,,,,,,,,,,,,,,,,,,,4,0,4,0,21,0,21,0,,,,,,harmful,w,g,lower,,,,,,,1,aftertar3,HiDemTar,g,1,0.5055628125264775,,,,,,,,,,,,,,,,,,,333,2023-11-17_12h23.02.470,leap3,2022.2.5,60.059870830479156,
,,,,,,,,,,,,,,,,,,,,4,0,4,0,22,0,22,0,,,,,,tasher,nw,h,lower,,,,,,,1,w,HiDemTar,h,1,0.628319687442854,,,,,,,,,,,,,,,,,,,333,2023-11-17_12h23.02.470,leap3,2022.2.5,60.059870830479156,
,,,,,,,,,,,,,,,,,,,,4,0,4,0,23,0,23,0,,,,,,mineluyer,nw,h,lower,,,,,,,1,nw,HiDemTar,h,1,0.8743859935202636,,,,,,,,,,,,,,,,,,,333,2023-11-17_12h23.02.470,leap3,2022.2.5,60.059870830479156,
,,,,,,,,,,,,,,,,,,,,4,0,4,0,24,0,24,0,,,,,,halents,nw,h,lower,,,,,,,1,nw,HiDemTar,h,1,0.6144614179502241,,,,,,,,,,,,,,,,,,,333,2023-11-17_12h23.02.470,leap3,2022.2.5,60.059870830479156,
,,,,,,,,,,,,,,,,,,,,4,0,4,0,25,0,25,0,,,,,,podes,nw,h,lower,,,,,,,1,nw,HiDemTar,h,1,0.5493137457233388,,,,,,,,,,,,,,,,,,,333,2023-11-17_12h23.02.470,leap3,2022.2.5,60.059870830479156,
,,,,,,,,,,,,,,,,,,,,4,0,4,0,26,0,26,0,,,,,,sponto,nw,h,lower,,,,,,,1,nw,HiDemTar,h,1,0.5186629311501747,,,,,,,,,,,,,,,,,,,333,2023-11-17_12h23.02.470,leap3,2022.2.5,60.059870830479156,
,,,,,,,,,,,,,,,,,,,,4,0,4,0,27,0,27,0,,,,,,paying,w,g,lower,,,,,,,1,nw,HiDemTar,g,1,0.5367122189054498,,,,,,,,,,,,,,,,,,,333,2023-11-17_12h23.02.470,leap3,2022.2.5,60.059870830479156,
,,,,,,,,,,,,,,,,,,,,4,0,4,0,28,0,28,0,,,,,,minister,w,g,lower,,,,,,,1,w,HiDemTar,g,1,0.5061445029423339,,,,,,,,,,,,,,,,,,,333,2023-11-17_12h23.02.470,leap3,2022.2.5,60.059870830479156,
,,,,,,,,,,,,,,,,,,,,4,0,4,0,29,0,29,0,,,,,,shimble,nw,h,lower,,,,,,,1,w,HiDemTar,h,1,0.755959517438896,,,,,,,,,,,,,,,,,,,333,2023-11-17_12h23.02.470,leap3,2022.2.5,60.059870830479156,
,,,,,,,,,,,,,,,,,,,,4,0,4,0,,,,,,,,,,,,,,,,,,,,,,,,,,,,0,,,,,,,,,,,,,,,,333,2023-11-17_12h23.02.470,leap3,2022.2.5,60.059870830479156,
,,,,,,,,,,,,,,,,,,,,5,0,5,0,0,0,0,0,,,,,,deeper,w,g,upper,,,,,,,3,w,LoDemNoTar,g,1,0.4769182836462278,,,,,,,,,,,,,,,,,,,333,2023-11-17_12h23.02.470,leap3,2022.2.5,60.059870830479156,
,,,,,,,,,,,,,,,,,,,,5,0,5,0,1,0,1,0,,,,,,chappef,nw,h,upper,,,,,,,3,nw,LoDemNoTar,h,1,0.4890073137212312,,,,,,,,,,,,,,,,,,,333,2023-11-17_12h23.02.470,leap3,2022.2.5,60.059870830479156,
,,,,,,,,,,,,,,,,,,,,5,0,5,0,2,0,2,0,,,,,,forgery,w,g,upper,,,,,,,3,w,LoDemNoTar,g,1,0.5804227615299169,,,,,,,,,,,,,,,,,,,333,2023-11-17_12h23.02.470,leap3,2022.2.5,60.059870830479156,
,,,,,,,,,,,,,,,,,,,,5,0,5,0,3,0,3,0,,,,,,bamps,nw,h,upper,,,,,,,3,nw,LoDemNoTar,g,0,0.5404794672358548,,,,,,,,,,,,,,,,,,,333,2023-11-17_12h23.02.470,leap3,2022.2.5,60.059870830479156,
,,,,,,,,,,,,,,,,,,,,5,0,5,0,4,0,4,0,,,,,,curricula,w,g,upper,,,,,,,3,w,LoDemNoTar,g,1,0.5978499682823895,,,,,,,,,,,,,,,,,,,333,2023-11-17_12h23.02.470,leap3,2022.2.5,60.059870830479156,
,,,,,,,,,,,,,,,,,,,,5,0,5,0,5,0,5,0,,,,,,fatho,nw,h,upper,,,,,,,3,nw,LoDemNoTar,h,1,0.49232364440103993,,,,,,,,,,,,,,,,,,,333,2023-11-17_12h23.02.470,leap3,2022.2.5,60.059870830479156,
,,,,,,,,,,,,,,,,,,,,5,0,5,0,6,0,6,0,,,,,,eyesight,w,g,upper,,,,,,,3,w,LoDemNoTar,g,1,0.4876260886521777,,,,,,,,,,,,,,,,,,,333,2023-11-17_12h23.02.470,leap3,2022.2.5,60.059870830479156,
,,,,,,,,,,,,,,,,,,,,5,0,5,0,7,0,7,0,,,,,,ufionize,nw,h,upper,,,,,,,3,nw,LoDemNoTar,h,1,0.5950739442632766,,,,,,,,,,,,,,,,,,,333,2023-11-17_12h23.02.470,leap3,2022.2.5,60.059870830479156,
,,,,,,,,,,,,,,,,,,,,5,0,5,0,8,0,8,0,,,,,,gerby,nw,h,upper,,,,,,,3,nw,LoDemNoTar,h,1,0.7064919942786219,,,,,,,,,,,,,,,,,,,333,2023-11-17_12h23.02.470,leap3,2022.2.5,60.059870830479156,
,,,,,,,,,,,,,,,,,,,,5,0,5,0,9,0,9,0,,,,,,absent,w,g,upper,,,,,,,3,w,LoDemNoTar,g,1,0.49323110793193337,,,,,,,,,,,,,,,,,,,333,2023-11-17_12h23.02.470,leap3,2022.2.5,60.059870830479156,
,,,,,,,,,,,,,,,,,,,,5,0,5,0,10,0,10,0,,,,,,tucker,w,g,upper,,,,,,,3,w,LoDemNoTar,h,0,1.2165874848724343,,,,,,,,,,,,,,,,,,,333,2023-11-17_12h23.02.470,leap3,2022.2.5,60.059870830479156,
,,,,,,,,,,,,,,,,,,,,5,0,5,0,11,0,11,0,,,,,,natch,nw,h,upper,,,,,,,3,nw,LoDemNoTar,h,1,0.9033950307493797,,,,,,,,,,,,,,,,,,,333,2023-11-17_12h23.02.470,leap3,2022.2.5,60.059870830479156,
,,,,,,,,,,,,,,,,,,,,5,0,5,0,12,0,12,0,,,,,,anonymous,w,g,upper,,,,,,,3,w,LoDemNoTar,g,1,0.5380381552240578,,,,,,,,,,,,,,,,,,,333,2023-11-17_12h23.02.470,leap3,2022.2.5,60.059870830479156,
,,,,,,,,,,,,,,,,,,,,5,0,5,0,13,0,13,0,,,,,,arcients,nw,h,upper,,,,,,,3,nw,LoDemNoTar,h,1,0.6594482364016585,,,,,,,,,,,,,,,,,,,333,2023-11-17_12h23.02.470,leap3,2022.2.5,60.059870830479156,
,,,,,,,,,,,,,,,,,,,,5,0,5,0,14,0,14,0,,,,,,thrapping,nw,h,upper,,,,,,,3,nw,LoDemNoTar,h,1,0.6872498604352586,,,,,,,,,,,,,,,,,,,333,2023-11-17_12h23.02.470,leap3,2022.2.5,60.059870830479156,
,,,,,,,,,,,,,,,,,,,,5,0,5,0,15,0,15,0,,,,,,burrowing,w,g,upper,,,,,,,3,w,LoDemNoTar,g,1,0.5371982300130185,,,,,,,,,,,,,,,,,,,333,2023-11-17_12h23.02.470,leap3,2022.2.5,60.059870830479156,
,,,,,,,,,,,,,,,,,,,,5,0,5,0,16,0,16,0,,,,,,gazes,w,g,upper,,,,,,,3,w,LoDemNoTar,g,1,0.6041677818138851,,,,,,,,,,,,,,,,,,,333,2023-11-17_12h23.02.470,leap3,2022.2.5,60.059870830479156,
,,,,,,,,,,,,,,,,,,,,5,0,5,0,17,0,17,0,,,,,,oginous,nw,h,upper,,,,,,,3,nw,LoDemNoTar,h,1,0.7066922917729244,,,,,,,,,,,,,,,,,,,333,2023-11-17_12h23.02.470,leap3,2022.2.5,60.059870830479156,
,,,,,,,,,,,,,,,,,,,,5,0,5,0,18,0,18,0,,,,,,warmer,w,g,upper,,,,,,,3,w,LoDemNoTar,g,1,0.5815046990901465,,,,,,,,,,,,,,,,,,,333,2023-11-17_12h23.02.470,leap3,2022.2.5,60.059870830479156,
,,,,,,,,,,,,,,,,,,,,5,0,5,0,19,0,19,0,,,,,,serfume,nw,h,upper,,,,,,,3,nw,LoDemNoTar,h,1,0.6855882188538089,,,,,,,,,,,,,,,,,,,333,2023-11-17_12h23.02.470,leap3,2022.2.5,60.059870830479156,
,,,,,,,,,,,,,,,,,,,,5,0,5,0,20,0,20,0,,,,,,selongs,nw,h,upper,,,,,,,3,nw,LoDemNoTar,h,1,0.7290689987275982,,,,,,,,,,,,,,,,,,,333,2023-11-17_12h23.02.470,leap3,2022.2.5,60.059870830479156,
,,,,,,,,,,,,,,,,,,,,5,0,5,0,21,0,21,0,,,,,,downtrund,nw,h,upper,,,,,,,3,nw,LoDemNoTar,h,1,1.091165825520875,,,,,,,,,,,,,,,,,,,333,2023-11-17_12h23.02.470,leap3,2022.2.5,60.059870830479156,
,,,,,,,,,,,,,,,,,,,,5,0,5,0,22,0,22,0,,,,,,tycoon,w,g,upper,,,,,,,3,w,LoDemNoTar,g,1,0.7025996013835538,,,,,,,,,,,,,,,,,,,333,2023-11-17_12h23.02.470,leap3,2022.2.5,60.059870830479156,
,,,,,,,,,,,,,,,,,,,,5,0,5,0,23,0,23,0,,,,,,vibrate,w,g,upper,,,,,,,3,w,LoDemNoTar,g,1,0.5052963009657105,,,,,,,,,,,,,,,,,,,333,2023-11-17_12h23.02.470,leap3,2022.2.5,60.059870830479156,
,,,,,,,,,,,,,,,,,,,,5,0,5,0,24,0,24,0,,,,,,agony,w,g,upper,,,,,,,3,w,LoDemNoTar,g,1,0.4749785430612974,,,,,,,,,,,,,,,,,,,333,2023-11-17_12h23.02.470,leap3,2022.2.5,60.059870830479156,
,,,,,,,,,,,,,,,,,,,,5,0,5,0,25,0,25,0,,,,,,fravity,nw,h,upper,,,,,,,3,nw,LoDemNoTar,h,1,0.5591356067598099,,,,,,,,,,,,,,,,,,,333,2023-11-17_12h23.02.470,leap3,2022.2.5,60.059870830479156,
,,,,,,,,,,,,,,,,,,,,5,0,5,0,26,0,26,0,,,,,,triangle,w,g,upper,,,,,,,3,w,LoDemNoTar,g,1,0.4718270853772992,,,,,,,,,,,,,,,,,,,333,2023-11-17_12h23.02.470,leap3,2022.2.5,60.059870830479156,
,,,,,,,,,,,,,,,,,,,,5,0,5,0,27,0,27,0,,,,,,attrove,nw,h,upper,,,,,,,3,nw,LoDemNoTar,g,0,0.579913575478713,,,,,,,,,,,,,,,,,,,333,2023-11-17_12h23.02.470,leap3,2022.2.5,60.059870830479156,
,,,,,,,,,,,,,,,,,,,,5,0,5,0,28,0,28,0,,,,,,gallon,w,g,upper,,,,,,,3,w,LoDemNoTar,g,1,0.4839902751991758,,,,,,,,,,,,,,,,,,,333,2023-11-17_12h23.02.470,leap3,2022.2.5,60.059870830479156,
,,,,,,,,,,,,,,,,,,,,5,0,5,0,29,0,29,0,,,,,,glates,nw,h,upper,,,,,,,3,nw,LoDemNoTar,h,1,0.6633836684195558,,,,,,,,,,,,,,,,,,,333,2023-11-17_12h23.02.470,leap3,2022.2.5,60.059870830479156,
,,,,,,,,,,,,,,,,,,,,5,0,5,0,,,,,,,,,,,,,,,,,,,,,,,,,,,,NA,,,,,,,,,,,,,,,,333,2023-11-17_12h23.02.470,leap3,2022.2.5,60.059870830479156,
,,,,,,,,,,,,,,,,,,,,6,0,6,0,0,0,0,0,,,,,,submit,w,g,lower,,,,,,,1,w,HiDemTar,g,1,0.5394144142483128,,,,,,,,,,,,,,,,,,,333,2023-11-17_12h23.02.470,leap3,2022.2.5,60.059870830479156,
,,,,,,,,,,,,,,,,,,,,6,0,6,0,1,0,1,0,,,,,,glapula,nw,h,lower,,,,,,,1,nw,HiDemTar,h,1,0.4848616520903306,,,,,,,,,,,,,,,,,,,333,2023-11-17_12h23.02.470,leap3,2022.2.5,60.059870830479156,
,,,,,,,,,,,,,,,,,,,,6,0,6,0,2,0,2,0,,,,,,matter,w,g,lower,,,,,,,1,w,HiDemTar,g,1,0.5522327920916723,,,,,,,,,,,,,,,,,,,333,2023-11-17_12h23.02.470,leap3,2022.2.5,60.059870830479156,
,,,,,,,,,,,,,,,,,,,,6,0,6,0,3,0,3,0,,,,,,elpired,nw,h,lower,,,,,,,1,nw,HiDemTar,h,1,0.5369197999389144,,,,,,,,,,,,,,,,,,,333,2023-11-17_12h23.02.470,leap3,2022.2.5,60.059870830479156,
,,,,,,,,,,,,,,,,,,,,6,0,6,0,4,0,4,0,,,,,,potatoes,w,g,lower,,,,,,,1,w,HiDemTar,g,1,0.4663697234063875,,,,,,,,,,,,,,,,,,,333,2023-11-17_12h23.02.470,leap3,2022.2.5,60.059870830479156,
,,,,,,,,,,,,,,,,,,,,6,0,6,0,5,0,5,0,,,,,,slooping,nw,h,lower,,,,,,,1,nw,HiDemTar,h,1,0.5350300509599037,,,,,,,,,,,,,,,,,,,333,2023-11-17_12h23.02.470,leap3,2022.2.5,60.059870830479156,
,,,,,,,,,,,,,,,,,,,,6,0,6,0,6,0,6,0,,,,,,marinate,w,g,lower,,,,,,,1,w,HiDemTar,g,1,0.4084986441594083,,,,,,,,,,,,,,,,,,,333,2023-11-17_12h23.02.470,leap3,2022.2.5,60.059870830479156,
,,,,,,,,,,,,,,,,,,,,6,0,6,0,7,0,7,0,,,,,,beartiset,nw,h,lower,,,,,,,1,nw,HiDemTar,h,1,0.5272214280994376,,,,,,,,,,,,,,,,,,,333,2023-11-17_12h23.02.470,leap3,2022.2.5,60.059870830479156,
,,,,,,,,,,,,,,,,,,,,6,0,6,0,8,0,8,0,,,,,,mining,w,g,lower,,,,,,,1,w,HiDemTar,g,1,0.43319085641996935,,,,,,,,,,,,,,,,,,,333,2023-11-17_12h23.02.470,leap3,2022.2.5,60.059870830479156,
,,,,,,,,,,,,,,,,,,,,6,0,6,0,9,0,9,0,,,,,,allained,nw,h,lower,,,,,,,1,nw,HiDemTar,h,1,0.5183311987493653,,,,,,,,,,,,,,,,,,,333,2023-11-17_12h23.02.470,leap3,2022.2.5,60.059870830479156,
,,,,,,,,,,,,,,,,,,,,6,0,6,0,10,0,10,0,,,,,,etcess,nw,h,lower,,,,,,,1,nw,HiDemTar,h,1,0.4964083890954498,,,,,,,,,,,,,,,,,,,333,2023-11-17_12h23.02.470,leap3,2022.2.5,60.059870830479156,
,,,,,,,,,,,,,,,,,,,,6,0,6,0,11,0,11,0,,,,,,bedding,w,g,lower,,,,,,,1,w,HiDemTar,g,1,0.6913207001780393,,,,,,,,,,,,,,,,,,,333,2023-11-17_12h23.02.470,leap3,2022.2.5,60.059870830479156,
,,,,,,,,,,,,,,,,,,,,6,0,6,0,12,0,12,0,,,,,,fracture,w,g,lower,,,,,,,1,w,HiDemTar,g,1,0.5351899578963639,,,,,,,,,,,,,,,,,,,333,2023-11-17_12h23.02.470,leap3,2022.2.5,60.059870830479156,
,,,,,,,,,,,,,,,,,,,,6,0,6,0,13,0,13,0,,,,,,prawls,nw,h,lower,,,,,,,1,nw,HiDemTar,h,1,0.5286771439859876,,,,,,,,,,,,,,,,,,,333,2023-11-17_12h23.02.470,leap3,2022.2.5,60.059870830479156,
,,,,,,,,,,,,,,,,,,,,6,0,6,0,14,0,14,0,,,,,,mebase,nw,h,lower,,,,,,,1,nw,HiDemTar,h,1,0.5866442336264299,,,,,,,,,,,,,,,,,,,333,2023-11-17_12h23.02.470,leap3,2022.2.5,60.059870830479156,
,,,,,,,,,,,,,,,,,,,,6,0,6,0,15,0,15,0,,,,,,dusmy,nw,h,lower,,,,,,,1,nw,HiDemTar,h,1,1.1620880250120535,,,,,,,,,,,,,,,,,,,333,2023-11-17_12h23.02.470,leap3,2022.2.5,60.059870830479156,
,,,,,,,,,,,,,,,,,,,,6,0,6,0,16,0,16,0,,,,,,warden,w,g,lower,,,,,,,1,w,HiDemTar,g,1,0.6029275926703122,,,,,,,,,,,,,,,,,,,333,2023-11-17_12h23.02.470,leap3,2022.2.5,60.059870830479156,
,,,,,,,,,,,,,,,,,,,,6,0,6,0,17,0,17,0,,,,,,calming,w,g,lower,,,,,,,1,w,HiDemTar,g,1,0.4656254775036359,,,,,,,,,,,,,,,,,,,333,2023-11-17_12h23.02.470,leap3,2022.2.5,60.059870830479156,
,,,,,,,,,,,,,,,,,,,,6,0,6,0,18,0,18,0,,,,,,populace,w,g,lower,,,,,,,1,w,HiDemTar,g,1,0.6304097339161672,,,,,,,,,,,,,,,,,,,333,2023-11-17_12h23.02.470,leap3,2022.2.5,60.059870830479156,
,,,,,,,,,,,,,,,,,,,,6,0,6,0,19,0,19,0,,,,,,contain,w,g,lower,,,,,,,1,w,HiDemTar,g,1,0.4834681774082128,,,,,,,,,,,,,,,,,,,333,2023-11-17_12h23.02.470,leap3,2022.2.5,60.059870830479156,
,,,,,,,,,,,,,,,,,,,,6,0,6,0,20,0,20,0,,,,,,boulder,w,g,lower,,,,,,,1,w,HiDemTar,g,1,0.5515282746055163,,,,,,,,,,,,,,,,,,,333,2023-11-17_12h23.02.470,leap3,2022.2.5,60.059870830479156,
,,,,,,,,,,,,,,,,,,,,6,0,6,0,21,0,21,0,,,,,,actively,w,g,lower,,,,,,,1,w,HiDemTar,g,1,0.4642512049031211,,,,,,,,,,,,,,,,,,,333,2023-11-17_12h23.02.470,leap3,2022.2.5,60.059870830479156,
,,,,,,,,,,,,,,,,,,,,6,0,6,0,22,0,22,0,,,,,,balign,nw,h,lower,,,,,,,1,nw,HiDemTar,h,1,0.509059576477739,,,,,,,,,,,,,,,,,,,333,2023-11-17_12h23.02.470,leap3,2022.2.5,60.059870830479156,
,,,,,,,,,,,,,,,,,,,,6,0,6,0,23,0,23,0,,,,,,sodent,nw,h,lower,,,,,,,1,nw,HiDemTar,h,1,0.6716968423424987,,,,,,,,,,,,,,,,,,,333,2023-11-17_12h23.02.470,leap3,2022.2.5,60.059870830479156,
,,,,,,,,,,,,,,,,,,,,6,0,6,0,24,0,24,0,,,,,,ludictous,nw,h,lower,,,,,,,1,nw,HiDemTar,h,1,1.083896847165306,,,,,,,,,,,,,,,,,,,333,2023-11-17_12h23.02.470,leap3,2022.2.5,60.059870830479156,
,,,,,,,,,,,,,,,,,,,,6,0,6,0,25,0,25,0,,,,,,vorm,nw,h,lower,,,,,,,1,nw,HiDemTar,h,1,0.6071861492673634,,,,,,,,,,,,,,,,,,,333,2023-11-17_12h23.02.470,leap3,2022.2.5,60.059870830479156,
,,,,,,,,,,,,,,,,,,,,6,0,6,0,26,0,26,0,,,,,,phraining,nw,h,lower,,,,,,,1,nw,HiDemTar,h,1,0.9979235320934094,,,,,,,,,,,,,,,,,,,333,2023-11-17_12h23.02.470,leap3,2022.2.5,60.059870830479156,
,,,,,,,,,,,,,,,,,,,,6,0,6,0,27,0,27,0,,,,,,lifetime,w,g,lower,,,,,,,1,w,HiDemTar,g,1,0.5573061125614913,,,,,,,,,,,,,,,,,,,333,2023-11-17_12h23.02.470,leap3,2022.2.5,60.059870830479156,
,,,,,,,,,,,,,,,,,,,,6,0,6,0,28,0,28,0,,,,,,reloant,nw,h,lower,,,,,,,1,nw,HiDemTar,h,1,0.6290970403788378,,,,,,,,,,,,,,,,,,,333,2023-11-17_12h23.02.470,leap3,2022.2.5,60.059870830479156,
,,,,,,,,,,,,,,,,,,,,6,0,6,0,29,0,29,0,,,,,,squirrel,target,q,lower,,,,,,,1,target,HiDemTar,g,0,0.5951653196534608,,,,,,,,,,,,,,,,,,,333,2023-11-17_12h23.02.470,leap3,2022.2.5,60.059870830479156,
,,,,,,,,,,,,,,,,,,,,6,0,6,0,,,,,,,,,,,,,,,,,,,,,,,,,,,,0,,,,,,,,,,,,,,,,333,2023-11-17_12h23.02.470,leap3,2022.2.5,60.059870830479156,
,,,,,,,,,,,,,,,,,,,,7,0,7,0,0,0,0,0,,,,,,acting,w,g,upper,,,,,,,3,w,LoDemNoTar,g,1,0.7548868498415686,,,,,,,,,,,,,,,,,,,333,2023-11-17_12h23.02.470,leap3,2022.2.5,60.059870830479156,
,,,,,,,,,,,,,,,,,,,,7,0,7,0,1,0,1,0,,,,,,lonnote,nw,h,upper,,,,,,,3,nw,LoDemNoTar,h,1,0.5228810971602798,,,,,,,,,,,,,,,,,,,333,2023-11-17_12h23.02.470,leap3,2022.2.5,60.059870830479156,
,,,,,,,,,,,,,,,,,,,,7,0,7,0,2,0,2,0,,,,,,huntry,nw,h,upper,,,,,,,3,nw,LoDemNoTar,h,1,0.6850280479848152,,,,,,,,,,,,,,,,,,,333,2023-11-17_12h23.02.470,leap3,2022.2.5,60.059870830479156,
,,,,,,,,,,,,,,,,,,,,7,0,7,0,3,0,3,0,,,,,,partner,w,g,upper,,,,,,,3,w,LoDemNoTar,g,1,0.6153622600977542,,,,,,,,,,,,,,,,,,,333,2023-11-17_12h23.02.470,leap3,2022.2.5,60.059870830479156,
,,,,,,,,,,,,,,,,,,,,7,0,7,0,4,0,4,0,,,,,,alomalous,nw,h,upper,,,,,,,3,nw,LoDemNoTar,h,1,0.5093780660390621,,,,,,,,,,,,,,,,,,,333,2023-11-17_12h23.02.470,leap3,2022.2.5,60.059870830479156,
,,,,,,,,,,,,,,,,,,,,7,0,7,0,5,0,5,0,,,,,,irfirm,nw,h,upper,,,,,,,3,nw,LoDemNoTar,h,1,0.5362172688764986,,,,,,,,,,,,,,,,,,,333,2023-11-17_12h23.02.470,leap3,2022.2.5,60.059870830479156,
,,,,,,,,,,,,,,,,,,,,7,0,7,0,6,0,6,0,,,,,,comment,w,g,upper,,,,,,,3,w,LoDemNoTar,g,1,0.513645561542944,,,,,,,,,,,,,,,,,,,333,2023-11-17_12h23.02.470,leap3,2022.2.5,60.059870830479156,
,,,,,,,,,,,,,,,,,,,,7,0,7,0,7,0,7,0,,,,,,scack,nw,h,upper,,,,,,,3,nw,LoDemNoTar,h,1,0.5476156864315271,,,,,,,,,,,,,,,,,,,333,2023-11-17_12h23.02.470,leap3,2022.2.5,60.059870830479156,
,,,,,,,,,,,,,,,,,,,,7,0,7,0,8,0,8,0,,,,,,intrude,w,g,upper,,,,,,,3,w,LoDemNoTar,g,1,0.5004613510827767,,,,,,,,,,,,,,,,,,,333,2023-11-17_12h23.02.470,leap3,2022.2.5,60.059870830479156,
,,,,,,,,,,,,,,,,,,,,7,0,7,0,9,0,9,0,,,,,,huffle,nw,h,upper,,,,,,,3,nw,LoDemNoTar,h,1,0.6158231098816032,,,,,,,,,,,,,,,,,,,333,2023-11-17_12h23.02.470,leap3,2022.2.5,60.059870830479156,
,,,,,,,,,,,,,,,,,,,,7,0,7,0,10,0,10,0,,,,,,menarthe,nw,h,upper,,,,,,,3,nw,LoDemNoTar,h,1,0.5019074659212492,,,,,,,,,,,,,,,,,,,333,2023-11-17_12h23.02.470,leap3,2022.2.5,60.059870830479156,
,,,,,,,,,,,,,,,,,,,,7,0,7,0,11,0,11,0,,,,,,persona,w,g,upper,,,,,,,3,w,LoDemNoTar,g,1,0.6167014392412966,,,,,,,,,,,,,,,,,,,333,2023-11-17_12h23.02.470,leap3,2022.2.5,60.059870830479156,
,,,,,,,,,,,,,,,,,,,,7,0,7,0,12,0,12,0,,,,,,ahead,w,g,upper,,,,,,,3,w,LoDemNoTar,g,1,0.48669545019220095,,,,,,,,,,,,,,,,,,,333,2023-11-17_12h23.02.470,leap3,2022.2.5,60.059870830479156,
,,,,,,,,,,,,,,,,,,,,7,0,7,0,13,0,13,0,,,,,,system,w,g,upper,,,,,,,3,w,LoDemNoTar,g,1,0.47250611044000834,,,,,,,,,,,,,,,,,,,333,2023-11-17_12h23.02.470,leap3,2022.2.5,60.059870830479156,
,,,,,,,,,,,,,,,,,,,,7,0,7,0,14,0,14,0,,,,,,rawhide,w,g,upper,,,,,,,3,w,LoDemNoTar,g,1,0.6999368033721112,,,,,,,,,,,,,,,,,,,333,2023-11-17_12h23.02.470,leap3,2022.2.5,60.059870830479156,
,,,,,,,,,,,,,,,,,,,,7,0,7,0,15,0,15,0,,,,,,runabouk,nw,h,upper,,,,,,,3,nw,LoDemNoTar,h,1,0.6392807611846365,,,,,,,,,,,,,,,,,,,333,2023-11-17_12h23.02.470,leap3,2022.2.5,60.059870830479156,
,,,,,,,,,,,,,,,,,,,,7,0,7,0,16,0,16,0,,,,,,filny,nw,h,upper,,,,,,,3,nw,LoDemNoTar,h,1,0.5240179924003314,,,,,,,,,,,,,,,,,,,333,2023-11-17_12h23.02.470,leap3,2022.2.5,60.059870830479156,
,,,,,,,,,,,,,,,,,,,,7,0,7,0,17,0,17,0,,,,,,disuse,w,g,upper,,,,,,,3,w,LoDemNoTar,h,0,0.7413675962889101,,,,,,,,,,,,,,,,,,,333,2023-11-17_12h23.02.470,leap3,2022.2.5,60.059870830479156,
,,,,,,,,,,,,,,,,,,,,7,0,7,0,18,0,18,0,,,,,,vented,w,g,upper,,,,,,,3,w,LoDemNoTar,g,1,0.702237410529051,,,,,,,,,,,,,,,,,,,333,2023-11-17_12h23.02.470,leap3,2022.2.5,60.059870830479156,
,,,,,,,,,,,,,,,,,,,,7,0,7,0,19,0,19,0,,,,,,abhorrent,w,g,upper,,,,,,,3,w,LoDemNoTar,g,1,0.6168726025643991,,,,,,,,,,,,,,,,,,,333,2023-11-17_12h23.02.470,leap3,2022.2.5,60.059870830479156,
,,,,,,,,,,,,,,,,,,,,7,0,7,0,20,0,20,0,,,,,,fillings,w,g,upper,,,,,,,3,w,LoDemNoTar,g,1,0.5349631747812964,,,,,,,,,,,,,,,,,,,333,2023-11-17_12h23.02.470,leap3,2022.2.5,60.059870830479156,
,,,,,,,,,,,,,,,,,,,,7,0,7,0,21,0,21,0,,,,,,blipover,nw,h,upper,,,,,,,3,nw,LoDemNoTar,h,1,0.848391019841074,,,,,,,,,,,,,,,,,,,333,2023-11-17_12h23.02.470,leap3,2022.2.5,60.059870830479156,
,,,,,,,,,,,,,,,,,,,,7,0,7,0,22,0,22,0,,,,,,thaken,nw,h,upper,,,,,,,3,nw,LoDemNoTar,h,1,1.0360724256315734,,,,,,,,,,,,,,,,,,,333,2023-11-17_12h23.02.470,leap3,2022.2.5,60.059870830479156,
,,,,,,,,,,,,,,,,,,,,7,0,7,0,23,0,23,0,,,,,,student,w,g,upper,,,,,,,3,w,LoDemNoTar,g,1,0.4888692574313609,,,,,,,,,,,,,,,,,,,333,2023-11-17_12h23.02.470,leap3,2022.2.5,60.059870830479156,
,,,,,,,,,,,,,,,,,,,,7,0,7,0,24,0,24,0,,,,,,sprea,nw,h,upper,,,,,,,3,nw,LoDemNoTar,h,1,0.4838138147460995,,,,,,,,,,,,,,,,,,,333,2023-11-17_12h23.02.470,leap3,2022.2.5,60.059870830479156,
,,,,,,,,,,,,,,,,,,,,7,0,7,0,25,0,25,0,,,,,,pretzel,w,g,upper,,,,,,,3,w,LoDemNoTar,g,1,0.6629777762864251,,,,,,,,,,,,,,,,,,,333,2023-11-17_12h23.02.470,leap3,2022.2.5,60.059870830479156,
,,,,,,,,,,,,,,,,,,,,7,0,7,0,26,0,26,0,,,,,,veclors,nw,h,upper,,,,,,,3,nw,LoDemNoTar,h,1,0.5630885855061933,,,,,,,,,,,,,,,,,,,333,2023-11-17_12h23.02.470,leap3,2022.2.5,60.059870830479156,
,,,,,,,,,,,,,,,,,,,,7,0,7,0,27,0,27,0,,,,,,tenpince,nw,h,upper,,,,,,,3,nw,LoDemNoTar,g,0,0.6191771825542673,,,,,,,,,,,,,,,,,,,333,2023-11-17_12h23.02.470,leap3,2022.2.5,60.059870830479156,
,,,,,,,,,,,,,,,,,,,,7,0,7,0,28,0,28,0,,,,,,single,w,g,upper,,,,,,,3,w,LoDemNoTar,g,1,0.6492360435368028,,,,,,,,,,,,,,,,,,,333,2023-11-17_12h23.02.470,leap3,2022.2.5,60.059870830479156,
,,,,,,,,,,,,,,,,,,,,7,0,7,0,29,0,29,0,,,,,,mabit,nw,h,upper,,,,,,,3,nw,LoDemNoTar,h,1,0.6218830196885392,,,,,,,,,,,,,,,,,,,333,2023-11-17_12h23.02.470,leap3,2022.2.5,60.059870830479156,
,,,,,,,,,,,,,,,,,,,,7,0,7,0,,,,,,,,,,,,,,,,,,,,,,,,,,,,NA,,,,,,,,,,,,,,,,333,2023-11-17_12h23.02.470,leap3,2022.2.5,60.059870830479156,
,,,,,,,,,,,,,,,,,,,,8,0,8,0,0,0,0,0,,,,,,pegend,nw,h,lower,,,,,,,1,nw,HiDemTar,h,1,0.6591648402536521,,,,,,,,,,,,,,,,,,,333,2023-11-17_12h23.02.470,leap3,2022.2.5,60.059870830479156,
,,,,,,,,,,,,,,,,,,,,8,0,8,0,1,0,1,0,,,,,,gettle,nw,h,lower,,,,,,,1,nw,HiDemTar,h,1,0.5591995033173589,,,,,,,,,,,,,,,,,,,333,2023-11-17_12h23.02.470,leap3,2022.2.5,60.059870830479156,
,,,,,,,,,,,,,,,,,,,,8,0,8,0,2,0,2,0,,,,,,clooped,nw,h,lower,,,,,,,1,nw,HiDemTar,h,1,0.5992616518196883,,,,,,,,,,,,,,,,,,,333,2023-11-17_12h23.02.470,leap3,2022.2.5,60.059870830479156,
,,,,,,,,,,,,,,,,,,,,8,0,8,0,3,0,3,0,,,,,,regiment,w,g,lower,,,,,,,1,w,HiDemTar,g,1,0.5980244422971737,,,,,,,,,,,,,,,,,,,333,2023-11-17_12h23.02.470,leap3,2022.2.5,60.059870830479156,
,,,,,,,,,,,,,,,,,,,,8,0,8,0,4,0,4,0,,,,,,chone,nw,h,lower,,,,,,,1,nw,HiDemTar,h,1,0.5808425586001249,,,,,,,,,,,,,,,,,,,333,2023-11-17_12h23.02.470,leap3,2022.2.5,60.059870830479156,
,,,,,,,,,,,,,,,,,,,,8,0,8,0,5,0,5,0,,,,,,whirlpool,w,g,lower,,,,,,,1,w,HiDemTar,g,1,0.5082355426275171,,,,,,,,,,,,,,,,,,,333,2023-11-17_12h23.02.470,leap3,2022.2.5,60.059870830479156,
,,,,,,,,,,,,,,,,,,,,8,0,8,0,6,0,6,0,,,,,,potter,w,g,lower,,,,,,,1,w,HiDemTar,h,0,0.45431082071445417,,,,,,,,,,,,,,,,,,,333,2023-11-17_12h23.02.470,leap3,2022.2.5,60.059870830479156,
,,,,,,,,,,,,,,,,,,,,8,0,8,0,7,0,7,0,,,,,,telecast,w,g,lower,,,,,,,1,w,HiDemTar,g,1,0.5773911512660561,,,,,,,,,,,,,,,,,,,333,2023-11-17_12h23.02.470,leap3,2022.2.5,60.059870830479156,
,,,,,,,,,,,,,,,,,,,,8,0,8,0,8,0,8,0,,,,,,esdings,nw,h,lower,,,,,,,1,nw,HiDemTar,h,1,0.6007465018774383,,,,,,,,,,,,,,,,,,,333,2023-11-17_12h23.02.470,leap3,2022.2.5,60.059870830479156,
,,,,,,,,,,,,,,,,,,,,8,0,8,0,9,0,9,0,,,,,,prohibit,w,g,lower,,,,,,,1,w,HiDemTar,g,1,0.5995665675145574,,,,,,,,,,,,,,,,,,,333,2023-11-17_12h23.02.470,leap3,2022.2.5,60.059870830479156,
,,,,,,,,,,,,,,,,,,,,8,0,8,0,10,0,10,0,,,,,,demise,w,g,lower,,,,,,,1,w,HiDemTar,g,1,0.5742522742511937,,,,,,,,,,,,,,,,,,,333,2023-11-17_12h23.02.470,leap3,2022.2.5,60.059870830479156,
,,,,,,,,,,,,,,,,,,,,8,0,8,0,11,0,11,0,,,,,,schides,nw,h,lower,,,,,,,1,nw,HiDemTar,h,1,0.6456571741582593,,,,,,,,,,,,,,,,,,,333,2023-11-17_12h23.02.470,leap3,2022.2.5,60.059870830479156,
,,,,,,,,,,,,,,,,,,,,8,0,8,0,12,0,12,0,,,,,,paranoid,w,g,lower,,,,,,,1,w,HiDemTar,g,1,0.5063918124214979,,,,,,,,,,,,,,,,,,,333,2023-11-17_12h23.02.470,leap3,2022.2.5,60.059870830479156,
,,,,,,,,,,,,,,,,,,,,8,0,8,0,13,0,13,0,,,,,,gorilla,target,q,lower,,,,,,,1,target,HiDemTar,g,0,0.500561996421311,,,,,,,,,,,,,,,,,,,333,2023-11-17_12h23.02.470,leap3,2022.2.5,60.059870830479156,
,,,,,,,,,,,,,,,,,,,,8,0,8,0,14,0,14,0,,,,,,argue,w,g,lower,,,,,,,1,aftertar1,HiDemTar,g,1,0.5591766594588989,,,,,,,,,,,,,,,,,,,333,2023-11-17_12h23.02.470,leap3,2022.2.5,60.059870830479156,
,,,,,,,,,,,,,,,,,,,,8,0,8,0,15,0,15,0,,,,,,mustled,nw,h,lower,,,,,,,1,aftertar2,HiDemTar,g,0,0.5504006493429188,,,,,,,,,,,,,,,,,,,333,2023-11-17_12h23.02.470,leap3,2022.2.5,60.059870830479156,
,,,,,,,,,,,,,,,,,,,,8,0,8,0,16,0,16,0,,,,,,handle,w,g,lower,,,,,,,1,aftertar3,HiDemTar,g,1,0.5672203422000166,,,,,,,,,,,,,,,,,,,333,2023-11-17_12h23.02.470,leap3,2022.2.5,60.059870830479156,
,,,,,,,,,,,,,,,,,,,,8,0,8,0,17,0,17,0,,,,,,welayed,nw,h,lower,,,,,,,1,w,HiDemTar,h,1,0.7270186806999845,,,,,,,,,,,,,,,,,,,333,2023-11-17_12h23.02.470,leap3,2022.2.5,60.059870830479156,
,,,,,,,,,,,,,,,,,,,,8,0,8,0,18,0,18,0,,,,,,bloodless,w,g,lower,,,,,,,1,nw,HiDemTar,g,1,0.6005286576692015,,,,,,,,,,,,,,,,,,,333,2023-11-17_12h23.02.470,leap3,2022.2.5,60.059870830479156,
,,,,,,,,,,,,,,,,,,,,8,0,8,0,19,0,19,0,,,,,,rarren,nw,h,lower,,,,,,,1,w,HiDemTar,h,1,0.5992835024662782,,,,,,,,,,,,,,,,,,,333,2023-11-17_12h23.02.470,leap3,2022.2.5,60.059870830479156,
,,,,,,,,,,,,,,,,,,,,8,0,8,0,20,0,20,0,,,,,,scrooner,nw,h,lower,,,,,,,1,nw,HiDemTar,h,1,0.7099616104678717,,,,,,,,,,,,,,,,,,,333,2023-11-17_12h23.02.470,leap3,2022.2.5,60.059870830479156,
,,,,,,,,,,,,,,,,,,,,8,0,8,0,21,0,21,0,,,,,,horks,nw,h,lower,,,,,,,1,nw,HiDemTar,h,1,0.5200775943085318,,,,,,,,,,,,,,,,,,,333,2023-11-17_12h23.02.470,leap3,2022.2.5,60.059870830479156,
,,,,,,,,,,,,,,,,,,,,8,0,8,0,22,0,22,0,,,,,,rantho,nw,h,lower,,,,,,,1,nw,HiDemTar,h,1,0.465438422805164,,,,,,,,,,,,,,,,,,,333,2023-11-17_12h23.02.470,leap3,2022.2.5,60.059870830479156,
,,,,,,,,,,,,,,,,,,,,8,0,8,0,23,0,23,0,,,,,,upstairs,w,g,lower,,,,,,,1,nw,HiDemTar,g,1,0.5654285900091054,,,,,,,,,,,,,,,,,,,333,2023-11-17_12h23.02.470,leap3,2022.2.5,60.059870830479156,
,,,,,,,,,,,,,,,,,,,,8,0,8,0,24,0,24,0,,,,,,eaglot,nw,h,lower,,,,,,,1,w,HiDemTar,h,1,0.6615508635295555,,,,,,,,,,,,,,,,,,,333,2023-11-17_12h23.02.470,leap3,2022.2.5,60.059870830479156,
,,,,,,,,,,,,,,,,,,,,8,0,8,0,25,0,25,0,,,,,,loached,nw,h,lower,,,,,,,1,nw,HiDemTar,h,1,0.7456178761349292,,,,,,,,,,,,,,,,,,,333,2023-11-17_12h23.02.470,leap3,2022.2.5,60.059870830479156,
,,,,,,,,,,,,,,,,,,,,8,0,8,0,26,0,26,0,,,,,,despise,w,g,lower,,,,,,,1,nw,HiDemTar,g,1,0.5213167902547866,,,,,,,,,,,,,,,,,,,333,2023-11-17_12h23.02.470,leap3,2022.2.5,60.059870830479156,
,,,,,,,,,,,,,,,,,,,,8,0,8,0,27,0,27,0,,,,,,anterior,w,g,lower,,,,,,,1,w,HiDemTar,g,1,0.5626956051128218,,,,,,,,,,,,,,,,,,,333,2023-11-17_12h23.02.470,leap3,2022.2.5,60.059870830479156,
,,,,,,,,,,,,,,,,,,,,8,0,8,0,28,0,28,0,,,,,,itself,w,g,lower,,,,,,,1,w,HiDemTar,g,1,0.498706678772578,,,,,,,,,,,,,,,,,,,333,2023-11-17_12h23.02.470,leap3,2022.2.5,60.059870830479156,
,,,,,,,,,,,,,,,,,,,,8,0,8,0,29,0,29,0,,,,,,official,w,g,lower,,,,,,,1,w,HiDemTar,g,1,0.46898153658548836,,,,,,,,,,,,,,,,,,,333,2023-11-17_12h23.02.470,leap3,2022.2.5,60.059870830479156,
,,,,,,,,,,,,,,,,,,,,8,0,8,0,,,,,,,,,,,,,,,,,,,,,,,,,,,,0,,,,,,,,,,,,,,,,333,2023-11-17_12h23.02.470,leap3,2022.2.5,60.059870830479156,
,,,,,,,,,,,,,,,,,,,,9,0,9,0,0,0,0,0,,,,,,phambled,nw,h,upper,,,,,,,3,nw,LoDemNoTar,h,1,0.601970137518947,,,,,,,,,,,,,,,,,,,333,2023-11-17_12h23.02.470,leap3,2022.2.5,60.059870830479156,
,,,,,,,,,,,,,,,,,,,,9,0,9,0,1,0,1,0,,,,,,monopoly,w,g,upper,,,,,,,3,w,LoDemNoTar,g,1,0.5846746967145009,,,,,,,,,,,,,,,,,,,333,2023-11-17_12h23.02.470,leap3,2022.2.5,60.059870830479156,
,,,,,,,,,,,,,,,,,,,,9,0,9,0,2,0,2,0,,,,,,exit,w,g,upper,,,,,,,3,w,LoDemNoTar,g,1,0.5990583746897755,,,,,,,,,,,,,,,,,,,333,2023-11-17_12h23.02.470,leap3,2022.2.5,60.059870830479156,
,,,,,,,,,,,,,,,,,,,,9,0,9,0,3,0,3,0,,,,,,swatches,w,g,upper,,,,,,,3,w,LoDemNoTar,g,1,0.5417842150782235,,,,,,,,,,,,,,,,,,,333,2023-11-17_12h23.02.470,leap3,2022.2.5,60.059870830479156,
,,,,,,,,,,,,,,,,,,,,9,0,9,0,4,0,4,0,,,,,,cooray,nw,h,upper,,,,,,,3,nw,LoDemNoTar,h,1,0.5425546155456686,,,,,,,,,,,,,,,,,,,333,2023-11-17_12h23.02.470,leap3,2022.2.5,60.059870830479156,
,,,,,,,,,,,,,,,,,,,,9,0,9,0,5,0,5,0,,,,,,forgive,w,g,upper,,,,,,,3,w,LoDemNoTar,g,1,0.5272568526270334,,,,,,,,,,,,,,,,,,,333,2023-11-17_12h23.02.470,leap3,2022.2.5,60.059870830479156,
,,,,,,,,,,,,,,,,,,,,9,0,9,0,6,0,6,0,,,,,,uncorked,w,g,upper,,,,,,,3,w,LoDemNoTar,g,1,0.5446645262418315,,,,,,,,,,,,,,,,,,,333,2023-11-17_12h23.02.470,leap3,2022.2.5,60.059870830479156,
,,,,,,,,,,,,,,,,,,,,9,0,9,0,7,0,7,0,,,,,,pranny,nw,h,upper,,,,,,,3,nw,LoDemNoTar,h,1,0.5534491441794671,,,,,,,,,,,,,,,,,,,333,2023-11-17_12h23.02.470,leap3,2022.2.5,60.059870830479156,
,,,,,,,,,,,,,,,,,,,,9,0,9,0,8,0,8,0,,,,,,cheathe,nw,h,upper,,,,,,,3,nw,LoDemNoTar,h,1,0.5935155966144521,,,,,,,,,,,,,,,,,,,333,2023-11-17_12h23.02.470,leap3,2022.2.5,60.059870830479156,
,,,,,,,,,,,,,,,,,,,,9,0,9,0,9,0,9,0,,,,,,arrigns,nw,h,upper,,,,,,,3,nw,LoDemNoTar,g,0,0.5282086795923533,,,,,,,,,,,,,,,,,,,333,2023-11-17_12h23.02.470,leap3,2022.2.5,60.059870830479156,
,,,,,,,,,,,,,,,,,,,,9,0,9,0,10,0,10,0,,,,,,hangar,w,g,upper,,,,,,,3,w,LoDemNoTar,g,1,0.6337767183285905,,,,,,,,,,,,,,,,,,,333,2023-11-17_12h23.02.470,leap3,2022.2.5,60.059870830479156,
,,,,,,,,,,,,,,,,,,,,9,0,9,0,11,0,11,0,,,,,,vintnel,nw,h,upper,,,,,,,3,nw,LoDemNoTar,h,1,0.5020332726126071,,,,,,,,,,,,,,,,,,,333,2023-11-17_12h23.02.470,leap3,2022.2.5,60.059870830479156,
,,,,,,,,,,,,,,,,,,,,9,0,9,0,12,0,12,0,,,,,,rational,w,g,upper,,,,,,,3,w,LoDemNoTar,g,1,0.536766183344298,,,,,,,,,,,,,,,,,,,333,2023-11-17_12h23.02.470,leap3,2022.2.5,60.059870830479156,
,,,,,,,,,,,,,,,,,,,,9,0,9,0,13,0,13,0,,,,,,prillway,nw,h,upper,,,,,,,3,nw,LoDemNoTar,h,1,0.6095552879560273,,,,,,,,,,,,,,,,,,,333,2023-11-17_12h23.02.470,leap3,2022.2.5,60.059870830479156,
,,,,,,,,,,,,,,,,,,,,9,0,9,0,14,0,14,0,,,,,,collute,nw,h,upper,,,,,,,3,nw,LoDemNoTar,h,1,0.4955621735425666,,,,,,,,,,,,,,,,,,,333,2023-11-17_12h23.02.470,leap3,2022.2.5,60.059870830479156,
,,,,,,,,,,,,,,,,,,,,9,0,9,0,15,0,15,0,,,,,,omission,w,g,upper,,,,,,,3,w,LoDemNoTar,g,1,0.5622423699533101,,,,,,,,,,,,,,,,,,,333,2023-11-17_12h23.02.470,leap3,2022.2.5,60.059870830479156,
,,,,,,,,,,,,,,,,,,,,9,0,9,0,16,0,16,0,,,,,,flougy,nw,h,upper,,,,,,,3,nw,LoDemNoTar,h,1,0.5544231528474484,,,,,,,,,,,,,,,,,,,333,2023-11-17_12h23.02.470,leap3,2022.2.5,60.059870830479156,
,,,,,,,,,,,,,,,,,,,,9,0,9,0,17,0,17,0,,,,,,hostade,nw,h,upper,,,,,,,3,nw,LoDemNoTar,h,1,0.5144775410735747,,,,,,,,,,,,,,,,,,,333,2023-11-17_12h23.02.470,leap3,2022.2.5,60.059870830479156,
,,,,,,,,,,,,,,,,,,,,9,0,9,0,18,0,18,0,,,,,,decantel,nw,h,upper,,,,,,,3,nw,LoDemNoTar,h,1,0.7565574303152971,,,,,,,,,,,,,,,,,,,333,2023-11-17_12h23.02.470,leap3,2022.2.5,60.059870830479156,
,,,,,,,,,,,,,,,,,,,,9,0,9,0,19,0,19,0,,,,,,athcan,nw,h,upper,,,,,,,3,nw,LoDemNoTar,h,1,0.564577739482047,,,,,,,,,,,,,,,,,,,333,2023-11-17_12h23.02.470,leap3,2022.2.5,60.059870830479156,
,,,,,,,,,,,,,,,,,,,,9,0,9,0,20,0,20,0,,,,,,sopes,nw,h,upper,,,,,,,3,nw,LoDemNoTar,h,1,0.524623519871966,,,,,,,,,,,,,,,,,,,333,2023-11-17_12h23.02.470,leap3,2022.2.5,60.059870830479156,
,,,,,,,,,,,,,,,,,,,,9,0,9,0,21,0,21,0,,,,,,arrow,w,g,upper,,,,,,,3,w,LoDemNoTar,g,1,0.47710070334142074,,,,,,,,,,,,,,,,,,,333,2023-11-17_12h23.02.470,leap3,2022.2.5,60.059870830479156,
,,,,,,,,,,,,,,,,,,,,9,0,9,0,22,0,22,0,,,,,,erlighten,nw,h,upper,,,,,,,3,nw,LoDemNoTar,h,1,0.4563432609720621,,,,,,,,,,,,,,,,,,,333,2023-11-17_12h23.02.470,leap3,2022.2.5,60.059870830479156,
,,,,,,,,,,,,,,,,,,,,9,0,9,0,23,0,23,0,,,,,,hustle,w,g,upper,,,,,,,3,w,LoDemNoTar,g,1,0.5324533312377753,,,,,,,,,,,,,,,,,,,333,2023-11-17_12h23.02.470,leap3,2022.2.5,60.059870830479156,
,,,,,,,,,,,,,,,,,,,,9,0,9,0,24,0,24,0,,,,,,stretches,w,g,upper,,,,,,,3,w,LoDemNoTar,g,1,0.5179282862663968,,,,,,,,,,,,,,,,,,,333,2023-11-17_12h23.02.470,leap3,2022.2.5,60.059870830479156,
,,,,,,,,,,,,,,,,,,,,9,0,9,0,25,0,25,0,,,,,,patio,w,g,upper,,,,,,,3,w,LoDemNoTar,g,1,0.5839221740461653,,,,,,,,,,,,,,,,,,,333,2023-11-17_12h23.02.470,leap3,2022.2.5,60.059870830479156,
,,,,,,,,,,,,,,,,,,,,9,0,9,0,26,0,26,0,,,,,,greft,nw,h,upper,,,,,,,3,nw,LoDemNoTar,h,1,0.5513455238251481,,,,,,,,,,,,,,,,,,,333,2023-11-17_12h23.02.470,leap3,2022.2.5,60.059870830479156,
,,,,,,,,,,,,,,,,,,,,9,0,9,0,27,0,27,0,,,,,,threaded,w,g,upper,,,,,,,3,w,LoDemNoTar,g,1,0.5040736585506238,,,,,,,,,,,,,,,,,,,333,2023-11-17_12h23.02.470,leap3,2022.2.5,60.059870830479156,
,,,,,,,,,,,,,,,,,,,,9,0,9,0,28,0,28,0,,,,,,achieve,w,g,upper,,,,,,,3,w,LoDemNoTar,g,1,0.562166554867872,,,,,,,,,,,,,,,,,,,333,2023-11-17_12h23.02.470,leap3,2022.2.5,60.059870830479156,
,,,,,,,,,,,,,,,,,,,,9,0,9,0,29,0,29,0,,,,,,enacted,w,g,upper,,,,,,,3,w,LoDemNoTar,g,1,0.6102478868997423,,,,,,,,,,,,,,,,,,,333,2023-11-17_12h23.02.470,leap3,2022.2.5,60.059870830479156,
,,,,,,,,,,,,,,,,,,,,9,0,9,0,,,,,,,,,,,,,,,,,,,,,,,,,,,,NA,,,,,,,,,,,,,,,,333,2023-11-17_12h23.02.470,leap3,2022.2.5,60.059870830479156,
,,,,,,,,,,,,,,,,,,,,10,0,10,0,0,0,0,0,,,,,,trooper,w,g,upper,,,,,,,4,w,LoDemTar,g,1,0.7843785874865716,,,,,,,,,,,,,,,,,,,333,2023-11-17_12h23.02.470,leap3,2022.2.5,60.059870830479156,
,,,,,,,,,,,,,,,,,,,,10,0,10,0,1,0,1,0,,,,,,inforl,nw,h,upper,,,,,,,4,nw,LoDemTar,h,1,0.6157896717777476,,,,,,,,,,,,,,,,,,,333,2023-11-17_12h23.02.470,leap3,2022.2.5,60.059870830479156,
,,,,,,,,,,,,,,,,,,,,10,0,10,0,2,0,2,0,,,,,,neuran,nw,h,upper,,,,,,,4,nw,LoDemTar,g,0,0.6696395718172425,,,,,,,,,,,,,,,,,,,333,2023-11-17_12h23.02.470,leap3,2022.2.5,60.059870830479156,
,,,,,,,,,,,,,,,,,,,,10,0,10,0,3,0,3,0,,,,,,strenuous,w,g,upper,,,,,,,4,w,LoDemTar,g,1,0.6088749385962728,,,,,,,,,,,,,,,,,,,333,2023-11-17_12h23.02.470,leap3,2022.2.5,60.059870830479156,
,,,,,,,,,,,,,,,,,,,,10,0,10,0,4,0,4,0,,,,,,expensive,w,g,upper,,,,,,,4,w,LoDemTar,g,1,0.5108721860742662,,,,,,,,,,,,,,,,,,,333,2023-11-17_12h23.02.470,leap3,2022.2.5,60.059870830479156,
,,,,,,,,,,,,,,,,,,,,10,0,10,0,5,0,5,0,,,,,,tiery,nw,h,upper,,,,,,,4,nw,LoDemTar,h,1,0.6398389456298901,,,,,,,,,,,,,,,,,,,333,2023-11-17_12h23.02.470,leap3,2022.2.5,60.059870830479156,
,,,,,,,,,,,,,,,,,,,,10,0,10,0,6,0,6,0,,,,,,spaceship,w,g,upper,,,,,,,4,w,LoDemTar,g,1,0.5005096873355797,,,,,,,,,,,,,,,,,,,333,2023-11-17_12h23.02.470,leap3,2022.2.5,60.059870830479156,
,,,,,,,,,,,,,,,,,,,,10,0,10,0,7,0,7,0,,,,,,lightels,nw,h,upper,,,,,,,4,nw,LoDemTar,h,1,0.5190535940346308,,,,,,,,,,,,,,,,,,,333,2023-11-17_12h23.02.470,leap3,2022.2.5,60.059870830479156,
,,,,,,,,,,,,,,,,,,,,10,0,10,0,8,0,8,0,,,,,,dredigest,nw,h,upper,,,,,,,4,nw,LoDemTar,h,1,0.48918377415975556,,,,,,,,,,,,,,,,,,,333,2023-11-17_12h23.02.470,leap3,2022.2.5,60.059870830479156,
,,,,,,,,,,,,,,,,,,,,10,0,10,0,9,0,9,0,,,,,,become,w,g,upper,,,,,,,4,w,LoDemTar,g,1,0.5637149704270996,,,,,,,,,,,,,,,,,,,333,2023-11-17_12h23.02.470,leap3,2022.2.5,60.059870830479156,
,,,,,,,,,,,,,,,,,,,,10,0,10,0,10,0,10,0,,,,,,frigs,nw,h,upper,,,,,,,4,nw,LoDemTar,h,1,0.5316147302946774,,,,,,,,,,,,,,,,,,,333,2023-11-17_12h23.02.470,leap3,2022.2.5,60.059870830479156,
,,,,,,,,,,,,,,,,,,,,10,0,10,0,11,0,11,0,,,,,,apticle,nw,h,upper,,,,,,,4,nw,LoDemTar,h,1,0.5010549600265222,,,,,,,,,,,,,,,,,,,333,2023-11-17_12h23.02.470,leap3,2022.2.5,60.059870830479156,
,,,,,,,,,,,,,,,,,,,,10,0,10,0,12,0,12,0,,,,,,pircus,nw,h,upper,,,,,,,4,nw,LoDemTar,h,1,0.5036310176219558,,,,,,,,,,,,,,,,,,,333,2023-11-17_12h23.02.470,leap3,2022.2.5,60.059870830479156,
,,,,,,,,,,,,,,,,,,,,10,0,10,0,13,0,13,0,,,,,,casino,w,g,upper,,,,,,,4,w,LoDemTar,g,1,0.5376104124734411,,,,,,,,,,,,,,,,,,,333,2023-11-17_12h23.02.470,leap3,2022.2.5,60.059870830479156,
,,,,,,,,,,,,,,,,,,,,10,0,10,0,14,0,14,0,,,,,,childhood,w,g,upper,,,,,,,4,w,LoDemTar,g,1,0.4903253043885343,,,,,,,,,,,,,,,,,,,333,2023-11-17_12h23.02.470,leap3,2022.2.5,60.059870830479156,
,,,,,,,,,,,,,,,,,,,,10,0,10,0,15,0,15,0,,,,,,earterner,nw,h,upper,,,,,,,4,nw,LoDemTar,h,1,0.6531767726846738,,,,,,,,,,,,,,,,,,,333,2023-11-17_12h23.02.470,leap3,2022.2.5,60.059870830479156,
,,,,,,,,,,,,,,,,,,,,10,0,10,0,16,0,16,0,,,,,,explosion,w,g,upper,,,,,,,4,w,LoDemTar,g,1,0.45611018751515076,,,,,,,,,,,,,,,,,,,333,2023-11-17_12h23.02.470,leap3,2022.2.5,60.059870830479156,
,,,,,,,,,,,,,,,,,,,,10,0,10,0,17,0,17,0,,,,,,brongs,nw,h,upper,,,,,,,4,nw,LoDemTar,h,1,0.4921783045574557,,,,,,,,,,,,,,,,,,,333,2023-11-17_12h23.02.470,leap3,2022.2.5,60.059870830479156,
,,,,,,,,,,,,,,,,,,,,10,0,10,0,18,0,18,0,,,,,,mystery,w,g,upper,,,,,,,4,w,LoDemTar,g,1,0.5511028493347112,,,,,,,,,,,,,,,,,,,333,2023-11-17_12h23.02.470,leap3,2022.2.5,60.059870830479156,
,,,,,,,,,,,,,,,,,,,,10,0,10,0,19,0,19,0,,,,,,turning,w,g,upper,,,,,,,4,w,LoDemTar,g,1,0.5677715741621796,,,,,,,,,,,,,,,,,,,333,2023-11-17_12h23.02.470,leap3,2022.2.5,60.059870830479156,
,,,,,,,,,,,,,,,,,,,,10,0,10,0,20,0,20,0,,,,,,dominion,w,g,upper,,,,,,,4,w,LoDemTar,g,1,0.5117568057903554,,,,,,,,,,,,,,,,,,,333,2023-11-17_12h23.02.470,leap3,2022.2.5,60.059870830479156,
,,,,,,,,,,,,,,,,,,,,10,0,10,0,21,0,21,0,,,,,,slending,nw,h,upper,,,,,,,4,nw,LoDemTar,g,0,0.4978412611380918,,,,,,,,,,,,,,,,,,,333,2023-11-17_12h23.02.470,leap3,2022.2.5,60.059870830479156,
,,,,,,,,,,,,,,,,,,,,10,0,10,0,22,0,22,0,,,,,,unburnid,nw,h,upper,,,,,,,4,nw,LoDemTar,h,1,0.6125597504433244,,,,,,,,,,,,,,,,,,,333,2023-11-17_12h23.02.470,leap3,2022.2.5,60.059870830479156,
,,,,,,,,,,,,,,,,,,,,10,0,10,0,23,0,23,0,,,,,,uncle,w,g,upper,,,,,,,4,w,LoDemTar,g,1,0.49870469233428594,,,,,,,,,,,,,,,,,,,333,2023-11-17_12h23.02.470,leap3,2022.2.5,60.059870830479156,
,,,,,,,,,,,,,,,,,,,,10,0,10,0,24,0,24,0,,,,,,chicken,target,q,upper,,,,,,,4,target,LoDemTar,g,0,0.44545634694804903,,,,,,,,,,,,,,,,,,,333,2023-11-17_12h23.02.470,leap3,2022.2.5,60.059870830479156,
,,,,,,,,,,,,,,,,,,,,10,0,10,0,25,0,25,0,,,,,,crundle,nw,h,upper,,,,,,,4,aftertar1,LoDemTar,h,1,0.8502145547681721,,,,,,,,,,,,,,,,,,,333,2023-11-17_12h23.02.470,leap3,2022.2.5,60.059870830479156,
,,,,,,,,,,,,,,,,,,,,10,0,10,0,26,0,26,0,,,,,,unmarked,w,g,upper,,,,,,,4,aftertar2,LoDemTar,g,1,0.5979218105348991,,,,,,,,,,,,,,,,,,,333,2023-11-17_12h23.02.470,leap3,2022.2.5,60.059870830479156,
,,,,,,,,,,,,,,,,,,,,10,0,10,0,27,0,27,0,,,,,,preserve,w,g,upper,,,,,,,4,aftertar3,LoDemTar,g,1,0.5327757936465787,,,,,,,,,,,,,,,,,,,333,2023-11-17_12h23.02.470,leap3,2022.2.5,60.059870830479156,
,,,,,,,,,,,,,,,,,,,,10,0,10,0,28,0,28,0,,,,,,graiking,nw,h,upper,,,,,,,4,w,LoDemTar,h,1,0.5661860787513433,,,,,,,,,,,,,,,,,,,333,2023-11-17_12h23.02.470,leap3,2022.2.5,60.059870830479156,
,,,,,,,,,,,,,,,,,,,,10,0,10,0,29,0,29,0,,,,,,reddar,nw,h,upper,,,,,,,4,nw,LoDemTar,h,1,0.8061401659215335,,,,,,,,,,,,,,,,,,,333,2023-11-17_12h23.02.470,leap3,2022.2.5,60.059870830479156,
,,,,,,,,,,,,,,,,,,,,10,0,10,0,,,,,,,,,,,,,,,,,,,,,,,,,,,,0,,,,,,,,,,,,,,,,333,2023-11-17_12h23.02.470,leap3,2022.2.5,60.059870830479156,
,,,,,,,,,,,,,,,,,,,,11,0,11,0,0,0,0,0,,,,,,aviation,w,g,upper,,,,,,,3,w,LoDemNoTar,g,1,0.5967766385438154,,,,,,,,,,,,,,,,,,,333,2023-11-17_12h23.02.470,leap3,2022.2.5,60.059870830479156,
,,,,,,,,,,,,,,,,,,,,11,0,11,0,1,0,1,0,,,,,,ebuating,nw,h,upper,,,,,,,3,nw,LoDemNoTar,h,1,0.5785038783651544,,,,,,,,,,,,,,,,,,,333,2023-11-17_12h23.02.470,leap3,2022.2.5,60.059870830479156,
,,,,,,,,,,,,,,,,,,,,11,0,11,0,2,0,2,0,,,,,,rationale,w,g,upper,,,,,,,3,w,LoDemNoTar,g,1,0.5378772550902795,,,,,,,,,,,,,,,,,,,333,2023-11-17_12h23.02.470,leap3,2022.2.5,60.059870830479156,
,,,,,,,,,,,,,,,,,,,,11,0,11,0,3,0,3,0,,,,,,reborn,w,g,upper,,,,,,,3,w,LoDemNoTar,g,1,0.5626115132909035,,,,,,,,,,,,,,,,,,,333,2023-11-17_12h23.02.470,leap3,2022.2.5,60.059870830479156,
,,,,,,,,,,,,,,,,,,,,11,0,11,0,4,0,4,0,,,,,,urique,nw,h,upper,,,,,,,3,nw,LoDemNoTar,h,1,0.602730274797068,,,,,,,,,,,,,,,,,,,333,2023-11-17_12h23.02.470,leap3,2022.2.5,60.059870830479156,
,,,,,,,,,,,,,,,,,,,,11,0,11,0,5,0,5,0,,,,,,pallir,nw,h,upper,,,,,,,3,nw,LoDemNoTar,h,1,0.4807828666380374,,,,,,,,,,,,,,,,,,,333,2023-11-17_12h23.02.470,leap3,2022.2.5,60.059870830479156,
,,,,,,,,,,,,,,,,,,,,11,0,11,0,6,0,6,0,,,,,,armada,w,g,upper,,,,,,,3,w,LoDemNoTar,h,0,0.5081501265085535,,,,,,,,,,,,,,,,,,,333,2023-11-17_12h23.02.470,leap3,2022.2.5,60.059870830479156,
,,,,,,,,,,,,,,,,,,,,11,0,11,0,7,0,7,0,,,,,,incorrect,w,g,upper,,,,,,,3,w,LoDemNoTar,g,1,0.45420785786700435,,,,,,,,,,,,,,,,,,,333,2023-11-17_12h23.02.470,leap3,2022.2.5,60.059870830479156,
,,,,,,,,,,,,,,,,,,,,11,0,11,0,8,0,8,0,,,,,,ucility,nw,h,upper,,,,,,,3,nw,LoDemNoTar,h,1,0.43433006913983263,,,,,,,,,,,,,,,,,,,333,2023-11-17_12h23.02.470,leap3,2022.2.5,60.059870830479156,
,,,,,,,,,,,,,,,,,,,,11,0,11,0,9,0,9,0,,,,,,undertake,w,g,upper,,,,,,,3,w,LoDemNoTar,g,1,0.4636016450676834,,,,,,,,,,,,,,,,,,,333,2023-11-17_12h23.02.470,leap3,2022.2.5,60.059870830479156,
,,,,,,,,,,,,,,,,,,,,11,0,11,0,10,0,10,0,,,,,,flicking,w,g,upper,,,,,,,3,w,LoDemNoTar,g,1,0.46680143900448456,,,,,,,,,,,,,,,,,,,333,2023-11-17_12h23.02.470,leap3,2022.2.5,60.059870830479156,
,,,,,,,,,,,,,,,,,,,,11,0,11,0,11,0,11,0,,,,,,ilcurring,nw,h,upper,,,,,,,3,nw,LoDemNoTar,h,1,0.4706888658547541,,,,,,,,,,,,,,,,,,,333,2023-11-17_12h23.02.470,leap3,2022.2.5,60.059870830479156,
,,,,,,,,,,,,,,,,,,,,11,0,11,0,12,0,12,0,,,,,,collision,w,g,upper,,,,,,,3,w,LoDemNoTar,g,1,0.4341483115713345,,,,,,,,,,,,,,,,,,,333,2023-11-17_12h23.02.470,leap3,2022.2.5,60.059870830479156,
,,,,,,,,,,,,,,,,,,,,11,0,11,0,13,0,13,0,,,,,,reason,w,g,upper,,,,,,,3,w,LoDemNoTar,g,1,0.46973670783336274,,,,,,,,,,,,,,,,,,,333,2023-11-17_12h23.02.470,leap3,2022.2.5,60.059870830479156,
,,,,,,,,,,,,,,,,,,,,11,0,11,0,14,0,14,0,,,,,,zears,nw,h,upper,,,,,,,3,nw,LoDemNoTar,h,1,0.5149417015636573,,,,,,,,,,,,,,,,,,,333,2023-11-17_12h23.02.470,leap3,2022.2.5,60.059870830479156,
,,,,,,,,,,,,,,,,,,,,11,0,11,0,15,0,15,0,,,,,,numbled,nw,h,upper,,,,,,,3,nw,LoDemNoTar,h,1,1.0290444664278766,,,,,,,,,,,,,,,,,,,333,2023-11-17_12h23.02.470,leap3,2022.2.5,60.059870830479156,
,,,,,,,,,,,,,,,,,,,,11,0,11,0,16,0,16,0,,,,,,bettled,nw,h,upper,,,,,,,3,nw,LoDemNoTar,h,1,0.4983832231373526,,,,,,,,,,,,,,,,,,,333,2023-11-17_12h23.02.470,leap3,2022.2.5,60.059870830479156,
,,,,,,,,,,,,,,,,,,,,11,0,11,0,17,0,17,0,,,,,,contact,w,g,upper,,,,,,,3,w,LoDemNoTar,g,1,0.4691834894474596,,,,,,,,,,,,,,,,,,,333,2023-11-17_12h23.02.470,leap3,2022.2.5,60.059870830479156,
,,,,,,,,,,,,,,,,,,,,11,0,11,0,18,0,18,0,,,,,,planar,w,g,upper,,,,,,,3,w,LoDemNoTar,h,0,0.4333203048881842,,,,,,,,,,,,,,,,,,,333,2023-11-17_12h23.02.470,leap3,2022.2.5,60.059870830479156,
,,,,,,,,,,,,,,,,,,,,11,0,11,0,19,0,19,0,,,,,,peahem,nw,h,upper,,,,,,,3,nw,LoDemNoTar,h,1,0.590712755889399,,,,,,,,,,,,,,,,,,,333,2023-11-17_12h23.02.470,leap3,2022.2.5,60.059870830479156,
,,,,,,,,,,,,,,,,,,,,11,0,11,0,20,0,20,0,,,,,,shillac,nw,h,upper,,,,,,,3,nw,LoDemNoTar,h,1,0.5085205940995365,,,,,,,,,,,,,,,,,,,333,2023-11-17_12h23.02.470,leap3,2022.2.5,60.059870830479156,
,,,,,,,,,,,,,,,,,,,,11,0,11,0,21,0,21,0,,,,,,razelle,nw,h,upper,,,,,,,3,nw,LoDemNoTar,h,1,0.5425350824079942,,,,,,,,,,,,,,,,,,,333,2023-11-17_12h23.02.470,leap3,2022.2.5,60.059870830479156,
,,,,,,,,,,,,,,,,,,,,11,0,11,0,22,0,22,0,,,,,,fuhrek,nw,h,upper,,,,,,,3,nw,LoDemNoTar,h,1,0.49527745314117055,,,,,,,,,,,,,,,,,,,333,2023-11-17_12h23.02.470,leap3,2022.2.5,60.059870830479156,
,,,,,,,,,,,,,,,,,,,,11,0,11,0,23,0,23,0,,,,,,bypassed,w,g,upper,,,,,,,3,w,LoDemNoTar,g,1,0.5380490805400768,,,,,,,,,,,,,,,,,,,333,2023-11-17_12h23.02.470,leap3,2022.2.5,60.059870830479156,
,,,,,,,,,,,,,,,,,,,,11,0,11,0,24,0,24,0,,,,,,finish,w,g,upper,,,,,,,3,w,LoDemNoTar,g,1,0.5067301662056707,,,,,,,,,,,,,,,,,,,333,2023-11-17_12h23.02.470,leap3,2022.2.5,60.059870830479156,
,,,,,,,,,,,,,,,,,,,,11,0,11,0,25,0,25,0,,,,,,germeated,nw,h,upper,,,,,,,3,nw,LoDemNoTar,h,1,1.3010156951058889,,,,,,,,,,,,,,,,,,,333,2023-11-17_12h23.02.470,leap3,2022.2.5,60.059870830479156,
,,,,,,,,,,,,,,,,,,,,11,0,11,0,26,0,26,0,,,,,,hubris,w,g,upper,,,,,,,3,w,LoDemNoTar,g,1,0.5515872051182669,,,,,,,,,,,,,,,,,,,333,2023-11-17_12h23.02.470,leap3,2022.2.5,60.059870830479156,
,,,,,,,,,,,,,,,,,,,,11,0,11,0,27,0,27,0,,,,,,fards,nw,h,upper,,,,,,,3,nw,LoDemNoTar,h,1,0.49630509519192856,,,,,,,,,,,,,,,,,,,333,2023-11-17_12h23.02.470,leap3,2022.2.5,60.059870830479156,
,,,,,,,,,,,,,,,,,,,,11,0,11,0,28,0,28,0,,,,,,igiom,nw,h,upper,,,,,,,3,nw,LoDemNoTar,h,1,0.48309208161663264,,,,,,,,,,,,,,,,,,,333,2023-11-17_12h23.02.470,leap3,2022.2.5,60.059870830479156,
,,,,,,,,,,,,,,,,,,,,11,0,11,0,29,0,29,0,,,,,,slightly,w,g,upper,,,,,,,3,w,LoDemNoTar,h,0,0.550559563052957,,,,,,,,,,,,,,,,,,,333,2023-11-17_12h23.02.470,leap3,2022.2.5,60.059870830479156,
,,,,,,,,,,,,,,,,,,,,11,0,11,0,,,,,,,,,,,,,,,,,,,,,,,,,,,,NA,,,,,,,,,,,,,,,,333,2023-11-17_12h23.02.470,leap3,2022.2.5,60.059870830479156,
,,,,,,,,,,,,,,,,,,,,12,0,12,0,0,0,0,0,,,,,,embrace,w,g,lower,,,,,,,1,w,HiDemTar,g,1,0.5902360147301806,,,,,,,,,,,,,,,,,,,333,2023-11-17_12h23.02.470,leap3,2022.2.5,60.059870830479156,
,,,,,,,,,,,,,,,,,,,,12,0,12,0,1,0,1,0,,,,,,efcorted,nw,h,lower,,,,,,,1,nw,HiDemTar,h,1,0.5089791264035739,,,,,,,,,,,,,,,,,,,333,2023-11-17_12h23.02.470,leap3,2022.2.5,60.059870830479156,
,,,,,,,,,,,,,,,,,,,,12,0,12,0,2,0,2,0,,,,,,miability,nw,h,lower,,,,,,,1,nw,HiDemTar,h,1,0.6066991449333727,,,,,,,,,,,,,,,,,,,333,2023-11-17_12h23.02.470,leap3,2022.2.5,60.059870830479156,
,,,,,,,,,,,,,,,,,,,,12,0,12,0,3,0,3,0,,,,,,oppose,w,g,lower,,,,,,,1,w,HiDemTar,g,1,0.4448157260194421,,,,,,,,,,,,,,,,,,,333,2023-11-17_12h23.02.470,leap3,2022.2.5,60.059870830479156,
,,,,,,,,,,,,,,,,,,,,12,0,12,0,4,0,4,0,,,,,,region,w,g,lower,,,,,,,1,w,HiDemTar,g,1,0.48948736557213124,,,,,,,,,,,,,,,,,,,333,2023-11-17_12h23.02.470,leap3,2022.2.5,60.059870830479156,
,,,,,,,,,,,,,,,,,,,,12,0,12,0,5,0,5,0,,,,,,dehydrate,w,g,lower,,,,,,,1,w,HiDemTar,g,1,0.5392680812074104,,,,,,,,,,,,,,,,,,,333,2023-11-17_12h23.02.470,leap3,2022.2.5,60.059870830479156,
,,,,,,,,,,,,,,,,,,,,12,0,12,0,6,0,6,0,,,,,,foster,w,g,lower,,,,,,,1,w,HiDemTar,g,1,0.5400345088273752,,,,,,,,,,,,,,,,,,,333,2023-11-17_12h23.02.470,leap3,2022.2.5,60.059870830479156,
,,,,,,,,,,,,,,,,,,,,12,0,12,0,7,0,7,0,,,,,,fisco,nw,h,lower,,,,,,,1,nw,HiDemTar,g,0,0.5486939822294516,,,,,,,,,,,,,,,,,,,333,2023-11-17_12h23.02.470,leap3,2022.2.5,60.059870830479156,
,,,,,,,,,,,,,,,,,,,,12,0,12,0,8,0,8,0,,,,,,burning,w,g,lower,,,,,,,1,w,HiDemTar,g,1,0.4455288513418054,,,,,,,,,,,,,,,,,,,333,2023-11-17_12h23.02.470,leap3,2022.2.5,60.059870830479156,
,,,,,,,,,,,,,,,,,,,,12,0,12,0,9,0,9,0,,,,,,coyote,target,q,lower,,,,,,,1,target,HiDemTar,g,0,0.5382507023314247,,,,,,,,,,,,,,,,,,,333,2023-11-17_12h23.02.470,leap3,2022.2.5,60.059870830479156,
,,,,,,,,,,,,,,,,,,,,12,0,12,0,10,0,10,0,,,,,,harder,w,g,lower,,,,,,,1,aftertar1,HiDemTar,g,1,0.4349041449459037,,,,,,,,,,,,,,,,,,,333,2023-11-17_12h23.02.470,leap3,2022.2.5,60.059870830479156,
,,,,,,,,,,,,,,,,,,,,12,0,12,0,11,0,11,0,,,,,,gelfry,nw,h,lower,,,,,,,1,aftertar2,HiDemTar,h,1,0.5284066595922923,,,,,,,,,,,,,,,,,,,333,2023-11-17_12h23.02.470,leap3,2022.2.5,60.059870830479156,
,,,,,,,,,,,,,,,,,,,,12,0,12,0,12,0,12,0,,,,,,edasion,nw,h,lower,,,,,,,1,aftertar3,HiDemTar,h,1,0.6177704650763189,,,,,,,,,,,,,,,,,,,333,2023-11-17_12h23.02.470,leap3,2022.2.5,60.059870830479156,
,,,,,,,,,,,,,,,,,,,,12,0,12,0,13,0,13,0,,,,,,professor,w,g,lower,,,,,,,1,nw,HiDemTar,g,1,0.5277524647972314,,,,,,,,,,,,,,,,,,,333,2023-11-17_12h23.02.470,leap3,2022.2.5,60.059870830479156,
,,,,,,,,,,,,,,,,,,,,12,0,12,0,14,0,14,0,,,,,,sullen,w,g,lower,,,,,,,1,w,HiDemTar,g,1,0.5533011557854479,,,,,,,,,,,,,,,,,,,333,2023-11-17_12h23.02.470,leap3,2022.2.5,60.059870830479156,
,,,,,,,,,,,,,,,,,,,,12,0,12,0,15,0,15,0,,,,,,begut,nw,h,lower,,,,,,,1,w,HiDemTar,h,1,0.8243076457583811,,,,,,,,,,,,,,,,,,,333,2023-11-17_12h23.02.470,leap3,2022.2.5,60.059870830479156,
,,,,,,,,,,,,,,,,,,,,12,0,12,0,16,0,16,0,,,,,,veranpah,nw,h,lower,,,,,,,1,nw,HiDemTar,h,1,0.5413531616213731,,,,,,,,,,,,,,,,,,,333,2023-11-17_12h23.02.470,leap3,2022.2.5,60.059870830479156,
,,,,,,,,,,,,,,,,,,,,12,0,12,0,17,0,17,0,,,,,,kilotin,nw,h,lower,,,,,,,1,nw,HiDemTar,h,1,0.48608594985853415,,,,,,,,,,,,,,,,,,,333,2023-11-17_12h23.02.470,leap3,2022.2.5,60.059870830479156,
,,,,,,,,,,,,,,,,,,,,12,0,12,0,18,0,18,0,,,,,,louches,nw,h,lower,,,,,,,1,nw,HiDemTar,h,1,0.6088150148716522,,,,,,,,,,,,,,,,,,,333,2023-11-17_12h23.02.470,leap3,2022.2.5,60.059870830479156,
,,,,,,,,,,,,,,,,,,,,12,0,12,0,19,0,19,0,,,,,,latter,w,g,lower,,,,,,,1,nw,HiDemTar,g,1,0.6069249348365702,,,,,,,,,,,,,,,,,,,333,2023-11-17_12h23.02.470,leap3,2022.2.5,60.059870830479156,
,,,,,,,,,,,,,,,,,,,,12,0,12,0,20,0,20,0,,,,,,funtair,nw,h,lower,,,,,,,1,w,HiDemTar,h,1,0.5969948138372274,,,,,,,,,,,,,,,,,,,333,2023-11-17_12h23.02.470,leap3,2022.2.5,60.059870830479156,
,,,,,,,,,,,,,,,,,,,,12,0,12,0,21,0,21,0,,,,,,ements,nw,h,lower,,,,,,,1,nw,HiDemTar,h,1,0.6037367283570347,,,,,,,,,,,,,,,,,,,333,2023-11-17_12h23.02.470,leap3,2022.2.5,60.059870830479156,
,,,,,,,,,,,,,,,,,,,,12,0,12,0,22,0,22,0,,,,,,stuggard,nw,h,lower,,,,,,,1,nw,HiDemTar,h,1,0.5938095869933022,,,,,,,,,,,,,,,,,,,333,2023-11-17_12h23.02.470,leap3,2022.2.5,60.059870830479156,
,,,,,,,,,,,,,,,,,,,,12,0,12,0,23,0,23,0,,,,,,reconcile,w,g,lower,,,,,,,1,nw,HiDemTar,g,1,0.5836646013922291,,,,,,,,,,,,,,,,,,,333,2023-11-17_12h23.02.470,leap3,2022.2.5,60.059870830479156,
,,,,,,,,,,,,,,,,,,,,12,0,12,0,24,0,24,0,,,,,,derived,w,g,lower,,,,,,,1,w,HiDemTar,g,1,0.5439113414176973,,,,,,,,,,,,,,,,,,,333,2023-11-17_12h23.02.470,leap3,2022.2.5,60.059870830479156,
,,,,,,,,,,,,,,,,,,,,12,0,12,0,25,0,25,0,,,,,,bullet,w,g,lower,,,,,,,1,w,HiDemTar,g,1,0.5037525204097619,,,,,,,,,,,,,,,,,,,333,2023-11-17_12h23.02.470,leap3,2022.2.5,60.059870830479156,
,,,,,,,,,,,,,,,,,,,,12,0,12,0,26,0,26,0,,,,,,labitable,nw,h,lower,,,,,,,1,w,HiDemTar,h,1,0.7377278099884279,,,,,,,,,,,,,,,,,,,333,2023-11-17_12h23.02.470,leap3,2022.2.5,60.059870830479156,
,,,,,,,,,,,,,,,,,,,,12,0,12,0,27,0,27,0,,,,,,houted,nw,h,lower,,,,,,,1,nw,HiDemTar,h,1,0.5864720770769054,,,,,,,,,,,,,,,,,,,333,2023-11-17_12h23.02.470,leap3,2022.2.5,60.059870830479156,
,,,,,,,,,,,,,,,,,,,,12,0,12,0,28,0,28,0,,,,,,ifling,nw,h,lower,,,,,,,1,nw,HiDemTar,h,1,0.5049000098806573,,,,,,,,,,,,,,,,,,,333,2023-11-17_12h23.02.470,leap3,2022.2.5,60.059870830479156,
,,,,,,,,,,,,,,,,,,,,12,0,12,0,29,0,29,0,,,,,,crazy,w,g,lower,,,,,,,1,nw,HiDemTar,g,1,0.522963533658185,,,,,,,,,,,,,,,,,,,333,2023-11-17_12h23.02.470,leap3,2022.2.5,60.059870830479156,
,,,,,,,,,,,,,,,,,,,,12,0,12,0,,,,,,,,,,,,,,,,,,,,,,,,,,,,0,,,,,,,,,,,,,,,,333,2023-11-17_12h23.02.470,leap3,2022.2.5,60.059870830479156,
,,,,,,,,,,,,,,,,,,,,13,0,13,0,0,0,0,0,,,,,,tredits,nw,h,lower,,,,,,,2,nw,HiDemNoTar,h,1,0.6684013690974098,,,,,,,,,,,,,,,,,,,333,2023-11-17_12h23.02.470,leap3,2022.2.5,60.059870830479156,
,,,,,,,,,,,,,,,,,,,,13,0,13,0,1,0,1,0,,,,,,plapping,nw,h,lower,,,,,,,2,nw,HiDemNoTar,h,1,0.6154112584918039,,,,,,,,,,,,,,,,,,,333,2023-11-17_12h23.02.470,leap3,2022.2.5,60.059870830479156,
,,,,,,,,,,,,,,,,,,,,13,0,13,0,2,0,2,0,,,,,,ralliep,nw,h,lower,,,,,,,2,nw,HiDemNoTar,h,1,0.4777555602922803,,,,,,,,,,,,,,,,,,,333,2023-11-17_12h23.02.470,leap3,2022.2.5,60.059870830479156,
,,,,,,,,,,,,,,,,,,,,13,0,13,0,3,0,3,0,,,,,,maiden,w,g,lower,,,,,,,2,w,HiDemNoTar,g,1,0.5771123901213286,,,,,,,,,,,,,,,,,,,333,2023-11-17_12h23.02.470,leap3,2022.2.5,60.059870830479156,
,,,,,,,,,,,,,,,,,,,,13,0,13,0,4,0,4,0,,,,,,splinging,nw,h,lower,,,,,,,2,nw,HiDemNoTar,g,0,0.5525579030654626,,,,,,,,,,,,,,,,,,,333,2023-11-17_12h23.02.470,leap3,2022.2.5,60.059870830479156,
,,,,,,,,,,,,,,,,,,,,13,0,13,0,5,0,5,0,,,,,,superstar,w,g,lower,,,,,,,2,w,HiDemNoTar,g,1,0.5366552748164395,,,,,,,,,,,,,,,,,,,333,2023-11-17_12h23.02.470,leap3,2022.2.5,60.059870830479156,
,,,,,,,,,,,,,,,,,,,,13,0,13,0,6,0,6,0,,,,,,apology,w,g,lower,,,,,,,2,w,HiDemNoTar,g,1,0.5294223831151612,,,,,,,,,,,,,,,,,,,333,2023-11-17_12h23.02.470,leap3,2022.2.5,60.059870830479156,
,,,,,,,,,,,,,,,,,,,,13,0,13,0,7,0,7,0,,,,,,remade,w,g,lower,,,,,,,2,w,HiDemNoTar,g,1,0.5148350969393505,,,,,,,,,,,,,,,,,,,333,2023-11-17_12h23.02.470,leap3,2022.2.5,60.059870830479156,
,,,,,,,,,,,,,,,,,,,,13,0,13,0,8,0,8,0,,,,,,trises,nw,h,lower,,,,,,,2,nw,HiDemNoTar,h,1,0.8449518621055176,,,,,,,,,,,,,,,,,,,333,2023-11-17_12h23.02.470,leap3,2022.2.5,60.059870830479156,
,,,,,,,,,,,,,,,,,,,,13,0,13,0,9,0,9,0,,,,,,senior,w,g,lower,,,,,,,2,w,HiDemNoTar,g,1,0.536761548355571,,,,,,,,,,,,,,,,,,,333,2023-11-17_12h23.02.470,leap3,2022.2.5,60.059870830479156,
,,,,,,,,,,,,,,,,,,,,13,0,13,0,10,0,10,0,,,,,,scrobby,nw,h,lower,,,,,,,2,nw,HiDemNoTar,h,1,0.577434852544684,,,,,,,,,,,,,,,,,,,333,2023-11-17_12h23.02.470,leap3,2022.2.5,60.059870830479156,
,,,,,,,,,,,,,,,,,,,,13,0,13,0,11,0,11,0,,,,,,frowsed,nw,h,lower,,,,,,,2,nw,HiDemNoTar,h,1,0.6088011099345749,,,,,,,,,,,,,,,,,,,333,2023-11-17_12h23.02.470,leap3,2022.2.5,60.059870830479156,
,,,,,,,,,,,,,,,,,,,,13,0,13,0,12,0,12,0,,,,,,holdup,w,g,lower,,,,,,,2,w,HiDemNoTar,g,1,0.6388536805752665,,,,,,,,,,,,,,,,,,,333,2023-11-17_12h23.02.470,leap3,2022.2.5,60.059870830479156,
,,,,,,,,,,,,,,,,,,,,13,0,13,0,13,0,13,0,,,,,,publish,w,g,lower,,,,,,,2,w,HiDemNoTar,g,1,0.5476262806769228,,,,,,,,,,,,,,,,,,,333,2023-11-17_12h23.02.470,leap3,2022.2.5,60.059870830479156,
,,,,,,,,,,,,,,,,,,,,13,0,13,0,14,0,14,0,,,,,,unlined,w,g,lower,,,,,,,2,w,HiDemNoTar,g,1,0.7643663842318347,,,,,,,,,,,,,,,,,,,333,2023-11-17_12h23.02.470,leap3,2022.2.5,60.059870830479156,
,,,,,,,,,,,,,,,,,,,,13,0,13,0,15,0,15,0,,,,,,greakable,nw,h,lower,,,,,,,2,nw,HiDemNoTar,h,1,0.6123673986439826,,,,,,,,,,,,,,,,,,,333,2023-11-17_12h23.02.470,leap3,2022.2.5,60.059870830479156,
,,,,,,,,,,,,,,,,,,,,13,0,13,0,16,0,16,0,,,,,,elormity,nw,h,lower,,,,,,,2,nw,HiDemNoTar,h,1,0.5543724991002819,,,,,,,,,,,,,,,,,,,333,2023-11-17_12h23.02.470,leap3,2022.2.5,60.059870830479156,
,,,,,,,,,,,,,,,,,,,,13,0,13,0,17,0,17,0,,,,,,advantage,w,g,lower,,,,,,,2,w,HiDemNoTar,g,1,0.490445482879295,,,,,,,,,,,,,,,,,,,333,2023-11-17_12h23.02.470,leap3,2022.2.5,60.059870830479156,
,,,,,,,,,,,,,,,,,,,,13,0,13,0,18,0,18,0,,,,,,tyena,nw,h,lower,,,,,,,2,nw,HiDemNoTar,h,1,0.5091886938753305,,,,,,,,,,,,,,,,,,,333,2023-11-17_12h23.02.470,leap3,2022.2.5,60.059870830479156,
,,,,,,,,,,,,,,,,,,,,13,0,13,0,19,0,19,0,,,,,,erithets,nw,h,lower,,,,,,,2,nw,HiDemNoTar,h,1,0.5432366202585399,,,,,,,,,,,,,,,,,,,333,2023-11-17_12h23.02.470,leap3,2022.2.5,60.059870830479156,
,,,,,,,,,,,,,,,,,,,,13,0,13,0,20,0,20,0,,,,,,pollute,w,g,lower,,,,,,,2,w,HiDemNoTar,g,1,0.5669495267356979,,,,,,,,,,,,,,,,,,,333,2023-11-17_12h23.02.470,leap3,2022.2.5,60.059870830479156,
,,,,,,,,,,,,,,,,,,,,13,0,13,0,21,0,21,0,,,,,,thacked,nw,h,lower,,,,,,,2,nw,HiDemNoTar,h,1,0.8070211438462138,,,,,,,,,,,,,,,,,,,333,2023-11-17_12h23.02.470,leap3,2022.2.5,60.059870830479156,
,,,,,,,,,,,,,,,,,,,,13,0,13,0,22,0,22,0,,,,,,etber,nw,h,lower,,,,,,,2,nw,HiDemNoTar,h,1,0.5252035549492575,,,,,,,,,,,,,,,,,,,333,2023-11-17_12h23.02.470,leap3,2022.2.5,60.059870830479156,
,,,,,,,,,,,,,,,,,,,,13,0,13,0,23,0,23,0,,,,,,duplex,w,g,lower,,,,,,,2,w,HiDemNoTar,g,1,0.6465464288485236,,,,,,,,,,,,,,,,,,,333,2023-11-17_12h23.02.470,leap3,2022.2.5,60.059870830479156,
,,,,,,,,,,,,,,,,,,,,13,0,13,0,24,0,24,0,,,,,,undue,w,g,lower,,,,,,,2,w,HiDemNoTar,g,1,0.6032232384022791,,,,,,,,,,,,,,,,,,,333,2023-11-17_12h23.02.470,leap3,2022.2.5,60.059870830479156,
,,,,,,,,,,,,,,,,,,,,13,0,13,0,25,0,25,0,,,,,,coupling,w,g,lower,,,,,,,2,w,HiDemNoTar,g,1,0.5133217748516472,,,,,,,,,,,,,,,,,,,333,2023-11-17_12h23.02.470,leap3,2022.2.5,60.059870830479156,
,,,,,,,,,,,,,,,,,,,,13,0,13,0,26,0,26,0,,,,,,mullet,w,g,lower,,,,,,,2,w,HiDemNoTar,g,1,0.5393289981293492,,,,,,,,,,,,,,,,,,,333,2023-11-17_12h23.02.470,leap3,2022.2.5,60.059870830479156,
,,,,,,,,,,,,,,,,,,,,13,0,13,0,27,0,27,0,,,,,,rangel,nw,h,lower,,,,,,,2,nw,HiDemNoTar,h,1,0.6440511523978785,,,,,,,,,,,,,,,,,,,333,2023-11-17_12h23.02.470,leap3,2022.2.5,60.059870830479156,
,,,,,,,,,,,,,,,,,,,,13,0,13,0,28,0,28,0,,,,,,rejoiced,w,g,lower,,,,,,,2,w,HiDemNoTar,g,1,0.5767296729172813,,,,,,,,,,,,,,,,,,,333,2023-11-17_12h23.02.470,leap3,2022.2.5,60.059870830479156,
,,,,,,,,,,,,,,,,,,,,13,0,13,0,29,0,29,0,,,,,,otiates,nw,h,lower,,,,,,,2,nw,HiDemNoTar,h,1,1.031196754105622,,,,,,,,,,,,,,,,,,,333,2023-11-17_12h23.02.470,leap3,2022.2.5,60.059870830479156,
,,,,,,,,,,,,,,,,,,,,13,0,13,0,,,,,,,,,,,,,,,,,,,,,,,,,,,,NA,,,,,,,,,,,,,,,,333,2023-11-17_12h23.02.470,leap3,2022.2.5,60.059870830479156,
,,,,,,,,,,,,,,,,,,,,14,0,14,0,0,0,0,0,,,,,,caloric,w,g,lower,,,,,,,1,w,HiDemTar,g,1,0.6369291692244587,,,,,,,,,,,,,,,,,,,333,2023-11-17_12h23.02.470,leap3,2022.2.5,60.059870830479156,
,,,,,,,,,,,,,,,,,,,,14,0,14,0,1,0,1,0,,,,,,volition,w,g,lower,,,,,,,1,w,HiDemTar,g,1,0.6097410183574539,,,,,,,,,,,,,,,,,,,333,2023-11-17_12h23.02.470,leap3,2022.2.5,60.059870830479156,
,,,,,,,,,,,,,,,,,,,,14,0,14,0,2,0,2,0,,,,,,thesis,w,g,lower,,,,,,,1,w,HiDemTar,g,1,0.527789544663392,,,,,,,,,,,,,,,,,,,333,2023-11-17_12h23.02.470,leap3,2022.2.5,60.059870830479156,
,,,,,,,,,,,,,,,,,,,,14,0,14,0,3,0,3,0,,,,,,legalosm,nw,h,lower,,,,,,,1,nw,HiDemTar,h,1,0.7762978248792933,,,,,,,,,,,,,,,,,,,333,2023-11-17_12h23.02.470,leap3,2022.2.5,60.059870830479156,
,,,,,,,,,,,,,,,,,,,,14,0,14,0,4,0,4,0,,,,,,deceit,w,g,lower,,,,,,,1,w,HiDemTar,g,1,0.5756301886285655,,,,,,,,,,,,,,,,,,,333,2023-11-17_12h23.02.470,leap3,2022.2.5,60.059870830479156,
,,,,,,,,,,,,,,,,,,,,14,0,14,0,5,0,5,0,,,,,,geborn,nw,h,lower,,,,,,,1,nw,HiDemTar,h,1,0.5270247723819921,,,,,,,,,,,,,,,,,,,333,2023-11-17_12h23.02.470,leap3,2022.2.5,60.059870830479156,
,,,,,,,,,,,,,,,,,,,,14,0,14,0,6,0,6,0,,,,,,index,w,g,lower,,,,,,,1,w,HiDemTar,g,1,0.5124421211949084,,,,,,,,,,,,,,,,,,,333,2023-11-17_12h23.02.470,leap3,2022.2.5,60.059870830479156,
,,,,,,,,,,,,,,,,,,,,14,0,14,0,7,0,7,0,,,,,,retain,w,g,lower,,,,,,,1,w,HiDemTar,g,1,0.4904895152285462,,,,,,,,,,,,,,,,,,,333,2023-11-17_12h23.02.470,leap3,2022.2.5,60.059870830479156,
,,,,,,,,,,,,,,,,,,,,14,0,14,0,8,0,8,0,,,,,,define,w,g,lower,,,,,,,1,w,HiDemTar,g,1,0.5412031868036138,,,,,,,,,,,,,,,,,,,333,2023-11-17_12h23.02.470,leap3,2022.2.5,60.059870830479156,
,,,,,,,,,,,,,,,,,,,,14,0,14,0,9,0,9,0,,,,,,hanling,nw,h,lower,,,,,,,1,nw,HiDemTar,h,1,0.5740062890690751,,,,,,,,,,,,,,,,,,,333,2023-11-17_12h23.02.470,leap3,2022.2.5,60.059870830479156,
,,,,,,,,,,,,,,,,,,,,14,0,14,0,10,0,10,0,,,,,,doads,nw,h,lower,,,,,,,1,nw,HiDemTar,h,1,0.645380399437272,,,,,,,,,,,,,,,,,,,333,2023-11-17_12h23.02.470,leap3,2022.2.5,60.059870830479156,
,,,,,,,,,,,,,,,,,,,,14,0,14,0,11,0,11,0,,,,,,appain,nw,h,lower,,,,,,,1,nw,HiDemTar,h,1,0.8260927765222732,,,,,,,,,,,,,,,,,,,333,2023-11-17_12h23.02.470,leap3,2022.2.5,60.059870830479156,
,,,,,,,,,,,,,,,,,,,,14,0,14,0,12,0,12,0,,,,,,opert,nw,h,lower,,,,,,,1,nw,HiDemTar,h,1,0.598607125954004,,,,,,,,,,,,,,,,,,,333,2023-11-17_12h23.02.470,leap3,2022.2.5,60.059870830479156,
,,,,,,,,,,,,,,,,,,,,14,0,14,0,13,0,13,0,,,,,,disperse,w,g,lower,,,,,,,1,w,HiDemTar,g,1,0.6132682407769607,,,,,,,,,,,,,,,,,,,333,2023-11-17_12h23.02.470,leap3,2022.2.5,60.059870830479156,
,,,,,,,,,,,,,,,,,,,,14,0,14,0,14,0,14,0,,,,,,airline,w,g,lower,,,,,,,1,w,HiDemTar,g,1,0.491240382543765,,,,,,,,,,,,,,,,,,,333,2023-11-17_12h23.02.470,leap3,2022.2.5,60.059870830479156,
,,,,,,,,,,,,,,,,,,,,14,0,14,0,15,0,15,0,,,,,,outset,w,g,lower,,,,,,,1,w,HiDemTar,g,1,0.5180534308165079,,,,,,,,,,,,,,,,,,,333,2023-11-17_12h23.02.470,leap3,2022.2.5,60.059870830479156,
,,,,,,,,,,,,,,,,,,,,14,0,14,0,16,0,16,0,,,,,,accessory,w,g,lower,,,,,,,1,w,HiDemTar,g,1,0.5354372673755279,,,,,,,,,,,,,,,,,,,333,2023-11-17_12h23.02.470,leap3,2022.2.5,60.059870830479156,
,,,,,,,,,,,,,,,,,,,,14,0,14,0,17,0,17,0,,,,,,capobly,nw,h,lower,,,,,,,1,nw,HiDemTar,h,1,0.6002204312535468,,,,,,,,,,,,,,,,,,,333,2023-11-17_12h23.02.470,leap3,2022.2.5,60.059870830479156,
,,,,,,,,,,,,,,,,,,,,14,0,14,0,18,0,18,0,,,,,,donastic,nw,h,lower,,,,,,,1,nw,HiDemTar,h,1,1.1269624649721663,,,,,,,,,,,,,,,,,,,333,2023-11-17_12h23.02.470,leap3,2022.2.5,60.059870830479156,
,,,,,,,,,,,,,,,,,,,,14,0,14,0,19,0,19,0,,,,,,forecast,w,g,lower,,,,,,,1,w,HiDemTar,g,1,0.6883705332147656,,,,,,,,,,,,,,,,,,,333,2023-11-17_12h23.02.470,leap3,2022.2.5,60.059870830479156,
,,,,,,,,,,,,,,,,,,,,14,0,14,0,20,0,20,0,,,,,,ascending,w,g,lower,,,,,,,1,w,HiDemTar,g,1,0.6190404505468905,,,,,,,,,,,,,,,,,,,333,2023-11-17_12h23.02.470,leap3,2022.2.5,60.059870830479156,
,,,,,,,,,,,,,,,,,,,,14,0,14,0,21,0,21,0,,,,,,ladybug,target,q,lower,,,,,,,1,target,HiDemTar,q,1,0.7764948116964661,1,,,,,,,,,,,,,,,,,,333,2023-11-17_12h23.02.470,leap3,2022.2.5,60.059870830479156,
,,,,,,,,,,,,,,,,,,,,14,0,14,0,22,0,22,0,,,,,,splum,nw,h,lower,,,,,,,1,aftertar1,HiDemTar,h,1,0.7028402894356987,,,,,,,,,,,,,,,,,,,333,2023-11-17_12h23.02.470,leap3,2022.2.5,60.059870830479156,
,,,,,,,,,,,,,,,,,,,,14,0,14,0,23,0,23,0,,,,,,dazid,nw,h,lower,,,,,,,1,aftertar2,HiDemTar,g,0,0.5608531992038479,,,,,,,,,,,,,,,,,,,333,2023-11-17_12h23.02.470,leap3,2022.2.5,60.059870830479156,
,,,,,,,,,,,,,,,,,,,,14,0,14,0,24,0,24,0,,,,,,alber,nw,h,lower,,,,,,,1,aftertar3,HiDemTar,h,1,0.8647064927063184,,,,,,,,,,,,,,,,,,,333,2023-11-17_12h23.02.470,leap3,2022.2.5,60.059870830479156,
,,,,,,,,,,,,,,,,,,,,14,0,14,0,25,0,25,0,,,,,,dests,nw,h,lower,,,,,,,1,nw,HiDemTar,h,1,0.5890458171925275,,,,,,,,,,,,,,,,,,,333,2023-11-17_12h23.02.470,leap3,2022.2.5,60.059870830479156,
,,,,,,,,,,,,,,,,,,,,14,0,14,0,26,0,26,0,,,,,,emission,w,g,lower,,,,,,,1,nw,HiDemTar,g,1,0.5718718791758874,,,,,,,,,,,,,,,,,,,333,2023-11-17_12h23.02.470,leap3,2022.2.5,60.059870830479156,
,,,,,,,,,,,,,,,,,,,,14,0,14,0,27,0,27,0,,,,,,grested,nw,h,lower,,,,,,,1,w,HiDemTar,h,1,0.5952100141294068,,,,,,,,,,,,,,,,,,,333,2023-11-17_12h23.02.470,leap3,2022.2.5,60.059870830479156,
,,,,,,,,,,,,,,,,,,,,14,0,14,0,28,0,28,0,,,,,,frose,nw,h,lower,,,,,,,1,nw,HiDemTar,h,1,0.6339061667968053,,,,,,,,,,,,,,,,,,,333,2023-11-17_12h23.02.470,leap3,2022.2.5,60.059870830479156,
,,,,,,,,,,,,,,,,,,,,14,0,14,0,29,0,29,0,,,,,,trecious,nw,h,lower,,,,,,,1,nw,HiDemTar,h,1,0.5987511415005429,,,,,,,,,,,,,,,,,,,333,2023-11-17_12h23.02.470,leap3,2022.2.5,60.059870830479156,
,,,,,,,,,,,,,,,,,,,,14,0,14,0,,,,,,,,,,,,,,,,,,,,,,,,,,,,1,,,,,,,,,,,,,,,,333,2023-11-17_12h23.02.470,leap3,2022.2.5,60.059870830479156,
,,,,,,,,,,,,,,,,,,,,15,0,15,0,0,0,0,0,,,,,,fetching,w,g,upper,,,,,,,3,w,LoDemNoTar,g,1,0.9176853469252819,,,,,,,,,,,,,,,,,,,333,2023-11-17_12h23.02.470,leap3,2022.2.5,60.059870830479156,
,,,,,,,,,,,,,,,,,,,,15,0,15,0,1,0,1,0,,,,,,nelvet,nw,h,upper,,,,,,,3,nw,LoDemNoTar,h,1,0.5668697388173314,,,,,,,,,,,,,,,,,,,333,2023-11-17_12h23.02.470,leap3,2022.2.5,60.059870830479156,
,,,,,,,,,,,,,,,,,,,,15,0,15,0,2,0,2,0,,,,,,acidic,w,g,upper,,,,,,,3,w,LoDemNoTar,g,1,0.6309755329566542,,,,,,,,,,,,,,,,,,,333,2023-11-17_12h23.02.470,leap3,2022.2.5,60.059870830479156,
,,,,,,,,,,,,,,,,,,,,15,0,15,0,3,0,3,0,,,,,,rootsie,nw,h,upper,,,,,,,3,nw,LoDemNoTar,h,1,0.5563671973504825,,,,,,,,,,,,,,,,,,,333,2023-11-17_12h23.02.470,leap3,2022.2.5,60.059870830479156,
,,,,,,,,,,,,,,,,,,,,15,0,15,0,4,0,4,0,,,,,,located,w,g,upper,,,,,,,3,w,LoDemNoTar,g,1,0.5005083630530862,,,,,,,,,,,,,,,,,,,333,2023-11-17_12h23.02.470,leap3,2022.2.5,60.059870830479156,
,,,,,,,,,,,,,,,,,,,,15,0,15,0,5,0,5,0,,,,,,moral,w,g,upper,,,,,,,3,w,LoDemNoTar,g,1,0.5176614436350064,,,,,,,,,,,,,,,,,,,333,2023-11-17_12h23.02.470,leap3,2022.2.5,60.059870830479156,
,,,,,,,,,,,,,,,,,,,,15,0,15,0,6,0,6,0,,,,,,gelented,nw,h,upper,,,,,,,3,nw,LoDemNoTar,h,1,0.5758414114534389,,,,,,,,,,,,,,,,,,,333,2023-11-17_12h23.02.470,leap3,2022.2.5,60.059870830479156,
,,,,,,,,,,,,,,,,,,,,15,0,15,0,7,0,7,0,,,,,,crimb,nw,h,upper,,,,,,,3,nw,LoDemNoTar,h,1,0.6623027240566444,,,,,,,,,,,,,,,,,,,333,2023-11-17_12h23.02.470,leap3,2022.2.5,60.059870830479156,
,,,,,,,,,,,,,,,,,,,,15,0,15,0,8,0,8,0,,,,,,prama,nw,h,upper,,,,,,,3,nw,LoDemNoTar,h,1,0.5063795628229855,,,,,,,,,,,,,,,,,,,333,2023-11-17_12h23.02.470,leap3,2022.2.5,60.059870830479156,
,,,,,,,,,,,,,,,,,,,,15,0,15,0,9,0,9,0,,,,,,dricked,nw,h,upper,,,,,,,3,nw,LoDemNoTar,h,1,0.540428482418065,,,,,,,,,,,,,,,,,,,333,2023-11-17_12h23.02.470,leap3,2022.2.5,60.059870830479156,
,,,,,,,,,,,,,,,,,,,,15,0,15,0,10,0,10,0,,,,,,criminal,w,g,upper,,,,,,,3,w,LoDemNoTar,g,1,0.5172406533529283,,,,,,,,,,,,,,,,,,,333,2023-11-17_12h23.02.470,leap3,2022.2.5,60.059870830479156,
,,,,,,,,,,,,,,,,,,,,15,0,15,0,11,0,11,0,,,,,,axis,w,g,upper,,,,,,,3,w,LoDemNoTar,g,1,0.6145395505300257,,,,,,,,,,,,,,,,,,,333,2023-11-17_12h23.02.470,leap3,2022.2.5,60.059870830479156,
,,,,,,,,,,,,,,,,,,,,15,0,15,0,12,0,12,0,,,,,,wrecber,nw,h,upper,,,,,,,3,nw,LoDemNoTar,h,1,0.5246649036562303,,,,,,,,,,,,,,,,,,,333,2023-11-17_12h23.02.470,leap3,2022.2.5,60.059870830479156,
,,,,,,,,,,,,,,,,,,,,15,0,15,0,13,0,13,0,,,,,,bumbo,nw,h,upper,,,,,,,3,nw,LoDemNoTar,h,1,0.5979608768247999,,,,,,,,,,,,,,,,,,,333,2023-11-17_12h23.02.470,leap3,2022.2.5,60.059870830479156,
,,,,,,,,,,,,,,,,,,,,15,0,15,0,14,0,14,0,,,,,,eggays,nw,h,upper,,,,,,,3,nw,LoDemNoTar,h,1,0.4766961355053354,,,,,,,,,,,,,,,,,,,333,2023-11-17_12h23.02.470,leap3,2022.2.5,60.059870830479156,
,,,,,,,,,,,,,,,,,,,,15,0,15,0,15,0,15,0,,,,,,mopping,w,g,upper,,,,,,,3,w,LoDemNoTar,g,1,0.6881377908284776,,,,,,,,,,,,,,,,,,,333,2023-11-17_12h23.02.470,leap3,2022.2.5,60.059870830479156,
,,,,,,,,,,,,,,,,,,,,15,0,15,0,16,0,16,0,,,,,,guitar,w,g,upper,,,,,,,3,w,LoDemNoTar,g,1,0.5788611031748587,,,,,,,,,,,,,,,,,,,333,2023-11-17_12h23.02.470,leap3,2022.2.5,60.059870830479156,
,,,,,,,,,,,,,,,,,,,,15,0,15,0,17,0,17,0,,,,,,gumdrep,nw,h,upper,,,,,,,3,nw,LoDemNoTar,g,0,0.6251632636995055,,,,,,,,,,,,,,,,,,,333,2023-11-17_12h23.02.470,leap3,2022.2.5,60.059870830479156,
,,,,,,,,,,,,,,,,,,,,15,0,15,0,18,0,18,0,,,,,,cayward,nw,h,upper,,,,,,,3,nw,LoDemNoTar,h,1,0.7186899464722956,,,,,,,,,,,,,,,,,,,333,2023-11-17_12h23.02.470,leap3,2022.2.5,60.059870830479156,
,,,,,,,,,,,,,,,,,,,,15,0,15,0,19,0,19,0,,,,,,destroy,w,g,upper,,,,,,,3,w,LoDemNoTar,g,1,0.6725291529292008,,,,,,,,,,,,,,,,,,,333,2023-11-17_12h23.02.470,leap3,2022.2.5,60.059870830479156,
,,,,,,,,,,,,,,,,,,,,15,0,15,0,20,0,20,0,,,,,,cookbook,w,g,upper,,,,,,,3,w,LoDemNoTar,g,1,0.6041614914865931,,,,,,,,,,,,,,,,,,,333,2023-11-17_12h23.02.470,leap3,2022.2.5,60.059870830479156,
,,,,,,,,,,,,,,,,,,,,15,0,15,0,21,0,21,0,,,,,,icepick,w,g,upper,,,,,,,3,w,LoDemNoTar,g,1,0.6342614051682176,,,,,,,,,,,,,,,,,,,333,2023-11-17_12h23.02.470,leap3,2022.2.5,60.059870830479156,
,,,,,,,,,,,,,,,,,,,,15,0,15,0,22,0,22,0,,,,,,booster,w,g,upper,,,,,,,3,w,LoDemNoTar,g,1,0.6236443134112051,,,,,,,,,,,,,,,,,,,333,2023-11-17_12h23.02.470,leap3,2022.2.5,60.059870830479156,
,,,,,,,,,,,,,,,,,,,,15,0,15,0,23,0,23,0,,,,,,gensions,nw,h,upper,,,,,,,3,nw,LoDemNoTar,h,1,0.6291370998951606,,,,,,,,,,,,,,,,,,,333,2023-11-17_12h23.02.470,leap3,2022.2.5,60.059870830479156,
,,,,,,,,,,,,,,,,,,,,15,0,15,0,24,0,24,0,,,,,,landing,w,g,upper,,,,,,,3,w,LoDemNoTar,g,1,0.7625372211332433,,,,,,,,,,,,,,,,,,,333,2023-11-17_12h23.02.470,leap3,2022.2.5,60.059870830479156,
,,,,,,,,,,,,,,,,,,,,15,0,15,0,25,0,25,0,,,,,,cobalt,w,g,upper,,,,,,,3,w,LoDemNoTar,g,1,0.5946213712304598,,,,,,,,,,,,,,,,,,,333,2023-11-17_12h23.02.470,leap3,2022.2.5,60.059870830479156,
,,,,,,,,,,,,,,,,,,,,15,0,15,0,26,0,26,0,,,,,,levels,w,g,upper,,,,,,,3,w,LoDemNoTar,g,1,0.41653040835808497,,,,,,,,,,,,,,,,,,,333,2023-11-17_12h23.02.470,leap3,2022.2.5,60.059870830479156,
,,,,,,,,,,,,,,,,,,,,15,0,15,0,27,0,27,0,,,,,,thorifies,nw,h,upper,,,,,,,3,nw,LoDemNoTar,g,0,0.566493311940576,,,,,,,,,,,,,,,,,,,333,2023-11-17_12h23.02.470,leap3,2022.2.5,60.059870830479156,
,,,,,,,,,,,,,,,,,,,,15,0,15,0,28,0,28,0,,,,,,facienda,nw,h,upper,,,,,,,3,nw,LoDemNoTar,h,1,0.4624885868979618,,,,,,,,,,,,,,,,,,,333,2023-11-17_12h23.02.470,leap3,2022.2.5,60.059870830479156,
,,,,,,,,,,,,,,,,,,,,15,0,15,0,29,0,29,0,,,,,,retona,nw,h,upper,,,,,,,3,nw,LoDemNoTar,h,1,0.810566906206077,,,,,,,,,,,,,,,,,,,333,2023-11-17_12h23.02.470,leap3,2022.2.5,60.059870830479156,
,,,,,,,,,,,,,,,,,,,,15,0,15,0,,,,,,,,,,,,,,,,,,,,,,,,,,,,NA,,,,,,,,,,,,,,,,333,2023-11-17_12h23.02.470,leap3,2022.2.5,60.059870830479156,
,,,,,,,,,,,,,,,,,,,,16,0,16,0,0,0,0,0,,,,,,walsams,nw,h,lower,,,,,,,1,nw,HiDemTar,h,1,0.6575869594671531,,,,,,,,,,,,,,,,,,,333,2023-11-17_12h23.02.470,leap3,2022.2.5,60.059870830479156,
,,,,,,,,,,,,,,,,,,,,16,0,16,0,1,0,1,0,,,,,,marvel,w,g,lower,,,,,,,1,w,HiDemTar,h,0,0.6286808850709349,,,,,,,,,,,,,,,,,,,333,2023-11-17_12h23.02.470,leap3,2022.2.5,60.059870830479156,
,,,,,,,,,,,,,,,,,,,,16,0,16,0,2,0,2,0,,,,,,ergonomic,w,g,lower,,,,,,,1,w,HiDemTar,g,1,0.9541345258039655,,,,,,,,,,,,,,,,,,,333,2023-11-17_12h23.02.470,leap3,2022.2.5,60.059870830479156,
,,,,,,,,,,,,,,,,,,,,16,0,16,0,3,0,3,0,,,,,,draze,nw,h,lower,,,,,,,1,nw,HiDemTar,h,1,0.5701824277057312,,,,,,,,,,,,,,,,,,,333,2023-11-17_12h23.02.470,leap3,2022.2.5,60.059870830479156,
,,,,,,,,,,,,,,,,,,,,16,0,16,0,4,0,4,0,,,,,,currowing,nw,h,lower,,,,,,,1,nw,HiDemTar,h,1,0.7215537041047355,,,,,,,,,,,,,,,,,,,333,2023-11-17_12h23.02.470,leap3,2022.2.5,60.059870830479156,
