demoRace_loop.thisRepN,demoRace_loop.thisTrialN,demoRace_loop.thisN,demoRace_loop.thisIndex,LDTunderstand.thisRepN,LDTunderstand.thisTrialN,LDTunderstand.thisN,LDTunderstand.thisIndex,pracBlocks.thisRepN,pracBlocks.thisTrialN,pracBlocks.thisN,pracBlocks.thisIndex,pracTrial.thisRepN,pracTrial.thisTrialN,pracTrial.thisN,pracTrial.thisIndex,PMunderstand.thisRepN,PMunderstand.thisTrialN,PMunderstand.thisN,PMunderstand.thisIndex,LDT_block.thisRepN,LDT_block.thisTrialN,LDT_block.thisN,LDT_block.thisIndex,LDT_trial.thisRepN,LDT_trial.thisTrialN,LDT_trial.thisN,LDT_trial.thisIndex,ageTextbox.text,genderTextbox.text,race,raceResp,LDTunderstand,stim,word_type,corr_key,stim_location,LDTpracKey.keys,LDTpracKey.corr,LDTpracKey.rt,PMunderstand,cueTextbox.text,intentionTextbox.text,block_type,role,block_desc,LDTResp.keys,LDTResp.corr,LDTResp.rt,PM_accuracy,pressedQ,pressedQ_blank,postQ1,Q2Textbox.text,Q3Textbox.text,Q4,Q5,Q6Key.keys,Q6Key.rt,postQ7_correct,postQ7,Q8Textbox.text,education,medTextbox.text,health,healthLimit,psych,participant,date,expName,psychopyVersion,frameRate,
0,0,0,0,,,,,,,,,,,,,,,,,,,,,,,,,"
19", female ,American Indian or Alaska Native,n,,,,,,,,,,,,,,,,,,,,,,,,,,,,,,,,,,,,334,2023-11-17_13h24.41.829,leap3,2022.2.5,59.56244725059733,
1,0,1,0,,,,,,,,,,,,,,,,,,,,,,,,,,,Asian,y,,,,,,,,,,,,,,,,,,,,,,,,,,,,,,,,,,,,334,2023-11-17_13h24.41.829,leap3,2022.2.5,59.56244725059733,
2,0,2,0,,,,,,,,,,,,,,,,,,,,,,,,,,,Black or African American,n,,,,,,,,,,,,,,,,,,,,,,,,,,,,,,,,,,,,334,2023-11-17_13h24.41.829,leap3,2022.2.5,59.56244725059733,
3,0,3,0,,,,,,,,,,,,,,,,,,,,,,,,,,,Native Hawaiian or other Pacific Islander,n,,,,,,,,,,,,,,,,,,,,,,,,,,,,,,,,,,,,334,2023-11-17_13h24.41.829,leap3,2022.2.5,59.56244725059733,
4,0,4,0,,,,,,,,,,,,,,,,,,,,,,,,,,,White,n,,,,,,,,,,,,,,,,,,,,,,,,,,,,,,,,,,,,334,2023-11-17_13h24.41.829,leap3,2022.2.5,59.56244725059733,
,,,,0,0,0,0,,,,,,,,,,,,,,,,,,,,,,,,,y,,,,,,,,,,,,,,,,,,,,,,,,,,,,,,,,,,,334,2023-11-17_13h24.41.829,leap3,2022.2.5,59.56244725059733,
,,,,,,,,0,0,0,0,0,0,0,0,,,,,,,,,,,,,,,,,,infinity,w,g,upper,g,1,1.0658825974387582,,,,,,,,,,,,,,,,,,,,,,,,,,,,334,2023-11-17_13h24.41.829,leap3,2022.2.5,59.56244725059733,
,,,,,,,,0,0,0,0,1,0,1,0,,,,,,,,,,,,,,,,,,overshoot,w,g,upper,g,1,0.8107363587332657,,,,,,,,,,,,,,,,,,,,,,,,,,,,334,2023-11-17_13h24.41.829,leap3,2022.2.5,59.56244725059733,
,,,,,,,,0,0,0,0,2,0,2,0,,,,,,,,,,,,,,,,,,grimace,w,g,upper,g,1,2.1464309954462806,,,,,,,,,,,,,,,,,,,,,,,,,,,,334,2023-11-17_13h24.41.829,leap3,2022.2.5,59.56244725059733,
,,,,,,,,0,0,0,0,3,0,3,0,,,,,,,,,,,,,,,,,,treeps,nw,h,upper,h,1,0.8352468134544324,,,,,,,,,,,,,,,,,,,,,,,,,,,,334,2023-11-17_13h24.41.829,leap3,2022.2.5,59.56244725059733,
,,,,,,,,0,0,0,0,4,0,4,0,,,,,,,,,,,,,,,,,,turative,nw,h,upper,g,0,1.583355988492258,,,,,,,,,,,,,,,,,,,,,,,,,,,,334,2023-11-17_13h24.41.829,leap3,2022.2.5,59.56244725059733,
,,,,,,,,0,0,0,0,5,0,5,0,,,,,,,,,,,,,,,,,,raestro,nw,h,upper,h,1,0.6228963702887995,,,,,,,,,,,,,,,,,,,,,,,,,,,,334,2023-11-17_13h24.41.829,leap3,2022.2.5,59.56244725059733,
,,,,,,,,0,0,0,0,6,0,6,0,,,,,,,,,,,,,,,,,,sponsor,w,g,upper,g,1,0.6923396789788967,,,,,,,,,,,,,,,,,,,,,,,,,,,,334,2023-11-17_13h24.41.829,leap3,2022.2.5,59.56244725059733,
,,,,,,,,0,0,0,0,7,0,7,0,,,,,,,,,,,,,,,,,,revival,w,g,upper,h,0,0.6618255964131095,,,,,,,,,,,,,,,,,,,,,,,,,,,,334,2023-11-17_13h24.41.829,leap3,2022.2.5,59.56244725059733,
,,,,,,,,0,0,0,0,8,0,8,0,,,,,,,,,,,,,,,,,,grutch,nw,h,upper,g,0,1.410152946744347,,,,,,,,,,,,,,,,,,,,,,,,,,,,334,2023-11-17_13h24.41.829,leap3,2022.2.5,59.56244725059733,
,,,,,,,,0,0,0,0,9,0,9,0,,,,,,,,,,,,,,,,,,unscrew,w,g,upper,g,1,1.8803773163672304,,,,,,,,,,,,,,,,,,,,,,,,,,,,334,2023-11-17_13h24.41.829,leap3,2022.2.5,59.56244725059733,
,,,,,,,,0,0,0,0,10,0,10,0,,,,,,,,,,,,,,,,,,hiring,w,g,upper,g,1,0.6837854859186336,,,,,,,,,,,,,,,,,,,,,,,,,,,,334,2023-11-17_13h24.41.829,leap3,2022.2.5,59.56244725059733,
,,,,,,,,0,0,0,0,11,0,11,0,,,,,,,,,,,,,,,,,,crinklo,nw,h,upper,h,1,0.6629144864418777,,,,,,,,,,,,,,,,,,,,,,,,,,,,334,2023-11-17_13h24.41.829,leap3,2022.2.5,59.56244725059733,
,,,,,,,,0,0,0,0,12,0,12,0,,,,,,,,,,,,,,,,,,lumbigo,nw,h,upper,g,0,0.7783649720950052,,,,,,,,,,,,,,,,,,,,,,,,,,,,334,2023-11-17_13h24.41.829,leap3,2022.2.5,59.56244725059733,
,,,,,,,,0,0,0,0,13,0,13,0,,,,,,,,,,,,,,,,,,trotch,nw,h,upper,g,0,0.7378853440022795,,,,,,,,,,,,,,,,,,,,,,,,,,,,334,2023-11-17_13h24.41.829,leap3,2022.2.5,59.56244725059733,
,,,,,,,,0,0,0,0,,,,,,,,,,,,,,,,,,,,,,,,,,,,,,,,,,,,,,,,,,,,,,,,,,,,,,,,334,2023-11-17_13h24.41.829,leap3,2022.2.5,59.56244725059733,
,,,,,,,,1,0,1,0,0,0,0,0,,,,,,,,,,,,,,,,,,busted,w,g,lower,g,1,1.027479773008963,,,,,,,,,,,,,,,,,,,,,,,,,,,,334,2023-11-17_13h24.41.829,leap3,2022.2.5,59.56244725059733,
,,,,,,,,1,0,1,0,1,0,1,0,,,,,,,,,,,,,,,,,,slumber,w,g,lower,g,1,0.5921333228907315,,,,,,,,,,,,,,,,,,,,,,,,,,,,334,2023-11-17_13h24.41.829,leap3,2022.2.5,59.56244725059733,
,,,,,,,,1,0,1,0,2,0,2,0,,,,,,,,,,,,,,,,,,tricycle,w,g,lower,g,1,1.0869254223653115,,,,,,,,,,,,,,,,,,,,,,,,,,,,334,2023-11-17_13h24.41.829,leap3,2022.2.5,59.56244725059733,
,,,,,,,,1,0,1,0,3,0,3,0,,,,,,,,,,,,,,,,,,grocus,nw,h,lower,h,1,0.7617174357583281,,,,,,,,,,,,,,,,,,,,,,,,,,,,334,2023-11-17_13h24.41.829,leap3,2022.2.5,59.56244725059733,
,,,,,,,,1,0,1,0,4,0,4,0,,,,,,,,,,,,,,,,,,julled,nw,h,lower,h,1,0.7603242921613855,,,,,,,,,,,,,,,,,,,,,,,,,,,,334,2023-11-17_13h24.41.829,leap3,2022.2.5,59.56244725059733,
,,,,,,,,1,0,1,0,5,0,5,0,,,,,,,,,,,,,,,,,,lurshing,nw,h,lower,g,0,0.9626694613543805,,,,,,,,,,,,,,,,,,,,,,,,,,,,334,2023-11-17_13h24.41.829,leap3,2022.2.5,59.56244725059733,
,,,,,,,,1,0,1,0,6,0,6,0,,,,,,,,,,,,,,,,,,summary,w,g,lower,g,1,0.5706736805295805,,,,,,,,,,,,,,,,,,,,,,,,,,,,334,2023-11-17_13h24.41.829,leap3,2022.2.5,59.56244725059733,
,,,,,,,,1,0,1,0,7,0,7,0,,,,,,,,,,,,,,,,,,reputable,w,g,lower,g,1,0.6251138788065873,,,,,,,,,,,,,,,,,,,,,,,,,,,,334,2023-11-17_13h24.41.829,leap3,2022.2.5,59.56244725059733,
,,,,,,,,1,0,1,0,8,0,8,0,,,,,,,,,,,,,,,,,,curlecs,nw,h,lower,h,1,0.6305745514691807,,,,,,,,,,,,,,,,,,,,,,,,,,,,334,2023-11-17_13h24.41.829,leap3,2022.2.5,59.56244725059733,
,,,,,,,,1,0,1,0,9,0,9,0,,,,,,,,,,,,,,,,,,umpire,w,g,lower,h,0,0.6761145882919664,,,,,,,,,,,,,,,,,,,,,,,,,,,,334,2023-11-17_13h24.41.829,leap3,2022.2.5,59.56244725059733,
,,,,,,,,1,0,1,0,10,0,10,0,,,,,,,,,,,,,,,,,,picture,w,g,lower,g,1,0.50245301425457,,,,,,,,,,,,,,,,,,,,,,,,,,,,334,2023-11-17_13h24.41.829,leap3,2022.2.5,59.56244725059733,
,,,,,,,,1,0,1,0,11,0,11,0,,,,,,,,,,,,,,,,,,hasking,nw,h,lower,g,0,0.857638749628677,,,,,,,,,,,,,,,,,,,,,,,,,,,,334,2023-11-17_13h24.41.829,leap3,2022.2.5,59.56244725059733,
,,,,,,,,1,0,1,0,12,0,12,0,,,,,,,,,,,,,,,,,,alolition,nw,h,lower,h,1,1.5167916666687233,,,,,,,,,,,,,,,,,,,,,,,,,,,,334,2023-11-17_13h24.41.829,leap3,2022.2.5,59.56244725059733,
,,,,,,,,1,0,1,0,13,0,13,0,,,,,,,,,,,,,,,,,,latador,nw,h,lower,g,0,1.4390216101892292,,,,,,,,,,,,,,,,,,,,,,,,,,,,334,2023-11-17_13h24.41.829,leap3,2022.2.5,59.56244725059733,
,,,,,,,,1,0,1,0,,,,,,,,,,,,,,,,,,,,,,,,,,,,,,,,,,,,,,,,,,,,,,,,,,,,,,,,334,2023-11-17_13h24.41.829,leap3,2022.2.5,59.56244725059733,
,,,,,,,,,,,,,,,,0,0,0,0,,,,,,,,,,,,,,,,,,,,,y,,,,,,,,,,,,,,,,,,,,,,,,,,,334,2023-11-17_13h24.41.829,leap3,2022.2.5,59.56244725059733,
,,,,,,,,,,,,,,,,,,,,0,0,0,0,0,0,0,0,,,,,,filter,w,g,lower,,,,,animals,"
q ",3,w,LoDemNoTar,g,1,0.9623476610722719,,,,,,,,,,,,,,,,,,,334,2023-11-17_13h24.41.829,leap3,2022.2.5,59.56244725059733,
,,,,,,,,,,,,,,,,,,,,0,0,0,0,1,0,1,0,,,,,,filny,nw,h,lower,,,,,,,3,nw,LoDemNoTar,h,1,1.0911617972597014,,,,,,,,,,,,,,,,,,,334,2023-11-17_13h24.41.829,leap3,2022.2.5,59.56244725059733,
,,,,,,,,,,,,,,,,,,,,0,0,0,0,2,0,2,0,,,,,,peanimate,nw,h,lower,,,,,,,3,nw,LoDemNoTar,h,1,1.7015424386481754,,,,,,,,,,,,,,,,,,,334,2023-11-17_13h24.41.829,leap3,2022.2.5,59.56244725059733,
,,,,,,,,,,,,,,,,,,,,0,0,0,0,3,0,3,0,,,,,,presently,w,g,lower,,,,,,,3,w,LoDemNoTar,g,1,0.617223812660086,,,,,,,,,,,,,,,,,,,334,2023-11-17_13h24.41.829,leap3,2022.2.5,59.56244725059733,
,,,,,,,,,,,,,,,,,,,,0,0,0,0,4,0,4,0,,,,,,birn,nw,h,lower,,,,,,,3,nw,LoDemNoTar,g,0,0.6231109038053546,,,,,,,,,,,,,,,,,,,334,2023-11-17_13h24.41.829,leap3,2022.2.5,59.56244725059733,
,,,,,,,,,,,,,,,,,,,,0,0,0,0,5,0,5,0,,,,,,strenuous,w,g,lower,,,,,,,3,w,LoDemNoTar,h,0,1.2851229435182177,,,,,,,,,,,,,,,,,,,334,2023-11-17_13h24.41.829,leap3,2022.2.5,59.56244725059733,
,,,,,,,,,,,,,,,,,,,,0,0,0,0,6,0,6,0,,,,,,flieves,nw,h,lower,,,,,,,3,nw,LoDemNoTar,h,1,0.8646511485421797,,,,,,,,,,,,,,,,,,,334,2023-11-17_13h24.41.829,leap3,2022.2.5,59.56244725059733,
,,,,,,,,,,,,,,,,,,,,0,0,0,0,7,0,7,0,,,,,,perform,w,g,lower,,,,,,,3,w,LoDemNoTar,g,1,0.5336090420314576,,,,,,,,,,,,,,,,,,,334,2023-11-17_13h24.41.829,leap3,2022.2.5,59.56244725059733,
,,,,,,,,,,,,,,,,,,,,0,0,0,0,8,0,8,0,,,,,,cessation,w,g,lower,,,,,,,3,w,LoDemNoTar,h,0,1.7195198841654928,,,,,,,,,,,,,,,,,,,334,2023-11-17_13h24.41.829,leap3,2022.2.5,59.56244725059733,
,,,,,,,,,,,,,,,,,,,,0,0,0,0,9,0,9,0,,,,,,apticle,nw,h,lower,,,,,,,3,nw,LoDemNoTar,h,1,1.1776317176991142,,,,,,,,,,,,,,,,,,,334,2023-11-17_13h24.41.829,leap3,2022.2.5,59.56244725059733,
,,,,,,,,,,,,,,,,,,,,0,0,0,0,10,0,10,0,,,,,,gelfry,nw,h,lower,,,,,,,3,nw,LoDemNoTar,h,1,0.8096921631804435,,,,,,,,,,,,,,,,,,,334,2023-11-17_13h24.41.829,leap3,2022.2.5,59.56244725059733,
,,,,,,,,,,,,,,,,,,,,0,0,0,0,11,0,11,0,,,,,,riosk,nw,h,lower,,,,,,,3,nw,LoDemNoTar,h,1,0.8724359343468677,,,,,,,,,,,,,,,,,,,334,2023-11-17_13h24.41.829,leap3,2022.2.5,59.56244725059733,
,,,,,,,,,,,,,,,,,,,,0,0,0,0,12,0,12,0,,,,,,observer,w,g,lower,,,,,,,3,w,LoDemNoTar,g,1,0.6676564056106145,,,,,,,,,,,,,,,,,,,334,2023-11-17_13h24.41.829,leap3,2022.2.5,59.56244725059733,
,,,,,,,,,,,,,,,,,,,,0,0,0,0,13,0,13,0,,,,,,foster,w,g,lower,,,,,,,3,w,LoDemNoTar,g,1,1.3596021617413498,,,,,,,,,,,,,,,,,,,334,2023-11-17_13h24.41.829,leap3,2022.2.5,59.56244725059733,
,,,,,,,,,,,,,,,,,,,,0,0,0,0,14,0,14,0,,,,,,suddenly,w,g,lower,,,,,,,3,w,LoDemNoTar,g,1,0.5443618725985289,,,,,,,,,,,,,,,,,,,334,2023-11-17_13h24.41.829,leap3,2022.2.5,59.56244725059733,
,,,,,,,,,,,,,,,,,,,,0,0,0,0,15,0,15,0,,,,,,system,w,g,lower,,,,,,,3,w,LoDemNoTar,g,1,0.5137630360550247,,,,,,,,,,,,,,,,,,,334,2023-11-17_13h24.41.829,leap3,2022.2.5,59.56244725059733,
,,,,,,,,,,,,,,,,,,,,0,0,0,0,16,0,16,0,,,,,,comply,w,g,lower,,,,,,,3,w,LoDemNoTar,h,0,0.8845243022951763,,,,,,,,,,,,,,,,,,,334,2023-11-17_13h24.41.829,leap3,2022.2.5,59.56244725059733,
,,,,,,,,,,,,,,,,,,,,0,0,0,0,17,0,17,0,,,,,,outlaved,nw,h,lower,,,,,,,3,nw,LoDemNoTar,g,0,1.3599391912575811,,,,,,,,,,,,,,,,,,,334,2023-11-17_13h24.41.829,leap3,2022.2.5,59.56244725059733,
,,,,,,,,,,,,,,,,,,,,0,0,0,0,18,0,18,0,,,,,,uncorked,w,g,lower,,,,,,,3,w,LoDemNoTar,h,0,0.8726729806367075,,,,,,,,,,,,,,,,,,,334,2023-11-17_13h24.41.829,leap3,2022.2.5,59.56244725059733,
,,,,,,,,,,,,,,,,,,,,0,0,0,0,19,0,19,0,,,,,,ganter,nw,h,lower,,,,,,,3,nw,LoDemNoTar,h,1,1.7968542521994095,,,,,,,,,,,,,,,,,,,334,2023-11-17_13h24.41.829,leap3,2022.2.5,59.56244725059733,
,,,,,,,,,,,,,,,,,,,,0,0,0,0,20,0,20,0,,,,,,prillway,nw,h,lower,,,,,,,3,nw,LoDemNoTar,h,1,1.4592662247596309,,,,,,,,,,,,,,,,,,,334,2023-11-17_13h24.41.829,leap3,2022.2.5,59.56244725059733,
,,,,,,,,,,,,,,,,,,,,0,0,0,0,21,0,21,0,,,,,,lindo,nw,h,lower,,,,,,,3,nw,LoDemNoTar,h,1,0.8559492981585208,,,,,,,,,,,,,,,,,,,334,2023-11-17_13h24.41.829,leap3,2022.2.5,59.56244725059733,
,,,,,,,,,,,,,,,,,,,,0,0,0,0,22,0,22,0,,,,,,revising,w,g,lower,,,,,,,3,w,LoDemNoTar,g,1,1.6527357316954294,,,,,,,,,,,,,,,,,,,334,2023-11-17_13h24.41.829,leap3,2022.2.5,59.56244725059733,
,,,,,,,,,,,,,,,,,,,,0,0,0,0,23,0,23,0,,,,,,borrent,nw,h,lower,,,,,,,3,nw,LoDemNoTar,h,1,0.6894491046550684,,,,,,,,,,,,,,,,,,,334,2023-11-17_13h24.41.829,leap3,2022.2.5,59.56244725059733,
,,,,,,,,,,,,,,,,,,,,0,0,0,0,24,0,24,0,,,,,,afternoon,w,g,lower,,,,,,,3,w,LoDemNoTar,g,1,0.5487829846824752,,,,,,,,,,,,,,,,,,,334,2023-11-17_13h24.41.829,leap3,2022.2.5,59.56244725059733,
,,,,,,,,,,,,,,,,,,,,0,0,0,0,25,0,25,0,,,,,,garment,w,g,lower,,,,,,,3,w,LoDemNoTar,g,1,0.5980035294633126,,,,,,,,,,,,,,,,,,,334,2023-11-17_13h24.41.829,leap3,2022.2.5,59.56244725059733,
,,,,,,,,,,,,,,,,,,,,0,0,0,0,26,0,26,0,,,,,,ordinary,w,g,lower,,,,,,,3,w,LoDemNoTar,g,1,0.6290572565194452,,,,,,,,,,,,,,,,,,,334,2023-11-17_13h24.41.829,leap3,2022.2.5,59.56244725059733,
,,,,,,,,,,,,,,,,,,,,0,0,0,0,27,0,27,0,,,,,,valif,nw,h,lower,,,,,,,3,nw,LoDemNoTar,h,1,0.7237145441904431,,,,,,,,,,,,,,,,,,,334,2023-11-17_13h24.41.829,leap3,2022.2.5,59.56244725059733,
,,,,,,,,,,,,,,,,,,,,0,0,0,0,28,0,28,0,,,,,,gigglod,nw,h,lower,,,,,,,3,nw,LoDemNoTar,h,1,0.6297885906969896,,,,,,,,,,,,,,,,,,,334,2023-11-17_13h24.41.829,leap3,2022.2.5,59.56244725059733,
,,,,,,,,,,,,,,,,,,,,0,0,0,0,29,0,29,0,,,,,,kraums,nw,h,lower,,,,,,,3,nw,LoDemNoTar,h,1,1.6269655546930153,,,,,,,,,,,,,,,,,,,334,2023-11-17_13h24.41.829,leap3,2022.2.5,59.56244725059733,
,,,,,,,,,,,,,,,,,,,,0,0,0,0,,,,,,,,,,,,,,,,,,,,,,,,,,NA,,,,,,,,,,,,,,,,,,334,2023-11-17_13h24.41.829,leap3,2022.2.5,59.56244725059733,
,,,,,,,,,,,,,,,,,,,,1,0,1,0,0,0,0,0,,,,,,ebciting,nw,h,lower,,,,,,,3,nw,LoDemNoTar,h,1,0.8253838997043204,,,,,,,,,,,,,,,,,,,334,2023-11-17_13h24.41.829,leap3,2022.2.5,59.56244725059733,
,,,,,,,,,,,,,,,,,,,,1,0,1,0,1,0,1,0,,,,,,funtair,nw,h,lower,,,,,,,3,nw,LoDemNoTar,h,1,0.8474881358561106,,,,,,,,,,,,,,,,,,,334,2023-11-17_13h24.41.829,leap3,2022.2.5,59.56244725059733,
,,,,,,,,,,,,,,,,,,,,1,0,1,0,2,0,2,0,,,,,,ipiocy,nw,h,lower,,,,,,,3,nw,LoDemNoTar,h,1,1.3799762247654144,,,,,,,,,,,,,,,,,,,334,2023-11-17_13h24.41.829,leap3,2022.2.5,59.56244725059733,
,,,,,,,,,,,,,,,,,,,,1,0,1,0,3,0,3,0,,,,,,corg,nw,h,lower,,,,,,,3,nw,LoDemNoTar,h,1,0.5960035340976901,,,,,,,,,,,,,,,,,,,334,2023-11-17_13h24.41.829,leap3,2022.2.5,59.56244725059733,
,,,,,,,,,,,,,,,,,,,,1,0,1,0,4,0,4,0,,,,,,squadroim,nw,h,lower,,,,,,,3,nw,LoDemNoTar,h,1,1.633776331829722,,,,,,,,,,,,,,,,,,,334,2023-11-17_13h24.41.829,leap3,2022.2.5,59.56244725059733,
,,,,,,,,,,,,,,,,,,,,1,0,1,0,5,0,5,0,,,,,,serving,w,g,lower,,,,,,,3,w,LoDemNoTar,g,1,0.7608000400941819,,,,,,,,,,,,,,,,,,,334,2023-11-17_13h24.41.829,leap3,2022.2.5,59.56244725059733,
,,,,,,,,,,,,,,,,,,,,1,0,1,0,6,0,6,0,,,,,,childhood,w,g,lower,,,,,,,3,w,LoDemNoTar,g,1,0.5056405585928587,,,,,,,,,,,,,,,,,,,334,2023-11-17_13h24.41.829,leap3,2022.2.5,59.56244725059733,
,,,,,,,,,,,,,,,,,,,,1,0,1,0,7,0,7,0,,,,,,region,w,g,lower,,,,,,,3,w,LoDemNoTar,g,1,0.8763756702828687,,,,,,,,,,,,,,,,,,,334,2023-11-17_13h24.41.829,leap3,2022.2.5,59.56244725059733,
,,,,,,,,,,,,,,,,,,,,1,0,1,0,8,0,8,0,,,,,,pircus,nw,h,lower,,,,,,,3,nw,LoDemNoTar,h,1,0.9524364110839088,,,,,,,,,,,,,,,,,,,334,2023-11-17_13h24.41.829,leap3,2022.2.5,59.56244725059733,
,,,,,,,,,,,,,,,,,,,,1,0,1,0,9,0,9,0,,,,,,other,w,g,lower,,,,,,,3,w,LoDemNoTar,g,1,0.5131760485091945,,,,,,,,,,,,,,,,,,,334,2023-11-17_13h24.41.829,leap3,2022.2.5,59.56244725059733,
,,,,,,,,,,,,,,,,,,,,1,0,1,0,10,0,10,0,,,,,,scrib,nw,h,lower,,,,,,,3,nw,LoDemNoTar,g,0,1.1879299888241803,,,,,,,,,,,,,,,,,,,334,2023-11-17_13h24.41.829,leap3,2022.2.5,59.56244725059733,
,,,,,,,,,,,,,,,,,,,,1,0,1,0,11,0,11,0,,,,,,record,w,g,lower,,,,,,,3,w,LoDemNoTar,g,1,0.514305329110357,,,,,,,,,,,,,,,,,,,334,2023-11-17_13h24.41.829,leap3,2022.2.5,59.56244725059733,
,,,,,,,,,,,,,,,,,,,,1,0,1,0,12,0,12,0,,,,,,digested,w,g,lower,,,,,,,3,w,LoDemNoTar,g,1,0.709036544765695,,,,,,,,,,,,,,,,,,,334,2023-11-17_13h24.41.829,leap3,2022.2.5,59.56244725059733,
,,,,,,,,,,,,,,,,,,,,1,0,1,0,13,0,13,0,,,,,,achieve,w,g,lower,,,,,,,3,w,LoDemNoTar,g,1,0.5037527960375883,,,,,,,,,,,,,,,,,,,334,2023-11-17_13h24.41.829,leap3,2022.2.5,59.56244725059733,
,,,,,,,,,,,,,,,,,,,,1,0,1,0,14,0,14,0,,,,,,mestowal,nw,h,lower,,,,,,,3,nw,LoDemNoTar,h,1,1.5145311190135544,,,,,,,,,,,,,,,,,,,334,2023-11-17_13h24.41.829,leap3,2022.2.5,59.56244725059733,
,,,,,,,,,,,,,,,,,,,,1,0,1,0,15,0,15,0,,,,,,painter,w,g,lower,,,,,,,3,w,LoDemNoTar,g,1,0.5572616937279236,,,,,,,,,,,,,,,,,,,334,2023-11-17_13h24.41.829,leap3,2022.2.5,59.56244725059733,
,,,,,,,,,,,,,,,,,,,,1,0,1,0,16,0,16,0,,,,,,hecture,nw,h,lower,,,,,,,3,nw,LoDemNoTar,g,0,2.3340273161884397,,,,,,,,,,,,,,,,,,,334,2023-11-17_13h24.41.829,leap3,2022.2.5,59.56244725059733,
,,,,,,,,,,,,,,,,,,,,1,0,1,0,17,0,17,0,,,,,,scarlet,w,g,lower,,,,,,,3,w,LoDemNoTar,q,0,1.0641398436418967,,,,,,,,,,,,,,,,,,,334,2023-11-17_13h24.41.829,leap3,2022.2.5,59.56244725059733,
,,,,,,,,,,,,,,,,,,,,1,0,1,0,18,0,18,0,,,,,,sonnet,w,g,lower,,,,,,,3,w,LoDemNoTar,h,0,0.8519013022305444,,,,,,,,,,,,,,,,,,,334,2023-11-17_13h24.41.829,leap3,2022.2.5,59.56244725059733,
,,,,,,,,,,,,,,,,,,,,1,0,1,0,19,0,19,0,,,,,,cooray,nw,h,lower,,,,,,,3,nw,LoDemNoTar,h,1,1.2886786379676778,,,,,,,,,,,,,,,,,,,334,2023-11-17_13h24.41.829,leap3,2022.2.5,59.56244725059733,
,,,,,,,,,,,,,,,,,,,,1,0,1,0,20,0,20,0,,,,,,frader,nw,h,lower,,,,,,,3,nw,LoDemNoTar,g,0,2.068197771674022,,,,,,,,,,,,,,,,,,,334,2023-11-17_13h24.41.829,leap3,2022.2.5,59.56244725059733,
,,,,,,,,,,,,,,,,,,,,1,0,1,0,21,0,21,0,,,,,,acidic,w,g,lower,,,,,,,3,w,LoDemNoTar,g,1,0.6803125590231502,,,,,,,,,,,,,,,,,,,334,2023-11-17_13h24.41.829,leap3,2022.2.5,59.56244725059733,
,,,,,,,,,,,,,,,,,,,,1,0,1,0,22,0,22,0,,,,,,thorifies,nw,h,lower,,,,,,,3,nw,LoDemNoTar,g,0,2.3564699061244028,,,,,,,,,,,,,,,,,,,334,2023-11-17_13h24.41.829,leap3,2022.2.5,59.56244725059733,
,,,,,,,,,,,,,,,,,,,,1,0,1,0,23,0,23,0,,,,,,apop,nw,h,lower,,,,,,,3,nw,LoDemNoTar,h,1,0.8452772487216862,,,,,,,,,,,,,,,,,,,334,2023-11-17_13h24.41.829,leap3,2022.2.5,59.56244725059733,
,,,,,,,,,,,,,,,,,,,,1,0,1,0,24,0,24,0,,,,,,poars,nw,h,lower,,,,,,,3,nw,LoDemNoTar,q,0,1.9777036923769629,,,,,,,,,,,,,,,,,,,334,2023-11-17_13h24.41.829,leap3,2022.2.5,59.56244725059733,
,,,,,,,,,,,,,,,,,,,,1,0,1,0,25,0,25,0,,,,,,primal,w,g,lower,,,,,,,3,w,LoDemNoTar,g,1,1.9218299599160673,,,,,,,,,,,,,,,,,,,334,2023-11-17_13h24.41.829,leap3,2022.2.5,59.56244725059733,
,,,,,,,,,,,,,,,,,,,,1,0,1,0,26,0,26,0,,,,,,fallint,nw,h,lower,,,,,,,3,nw,LoDemNoTar,h,1,0.6518855432950659,,,,,,,,,,,,,,,,,,,334,2023-11-17_13h24.41.829,leap3,2022.2.5,59.56244725059733,
,,,,,,,,,,,,,,,,,,,,1,0,1,0,27,0,27,0,,,,,,retreat,w,g,lower,,,,,,,3,w,LoDemNoTar,g,1,0.6166345076344442,,,,,,,,,,,,,,,,,,,334,2023-11-17_13h24.41.829,leap3,2022.2.5,59.56244725059733,
,,,,,,,,,,,,,,,,,,,,1,0,1,0,28,0,28,0,,,,,,affluent,w,g,lower,,,,,,,3,w,LoDemNoTar,g,1,0.6313456140778726,,,,,,,,,,,,,,,,,,,334,2023-11-17_13h24.41.829,leap3,2022.2.5,59.56244725059733,
,,,,,,,,,,,,,,,,,,,,1,0,1,0,29,0,29,0,,,,,,ignore,w,g,lower,,,,,,,3,w,LoDemNoTar,g,1,0.5814228693052428,,,,,,,,,,,,,,,,,,,334,2023-11-17_13h24.41.829,leap3,2022.2.5,59.56244725059733,
,,,,,,,,,,,,,,,,,,,,1,0,1,0,,,,,,,,,,,,,,,,,,,,,,,,,,NA,,,,,,,,,,,,,,,,,,334,2023-11-17_13h24.41.829,leap3,2022.2.5,59.56244725059733,
,,,,,,,,,,,,,,,,,,,,2,0,2,0,0,0,0,0,,,,,,gepealed,nw,h,upper,,,,,,,1,nw,HiDemTar,h,1,0.9008189177257009,,,,,,,,,,,,,,,,,,,334,2023-11-17_13h24.41.829,leap3,2022.2.5,59.56244725059733,
,,,,,,,,,,,,,,,,,,,,2,0,2,0,1,0,1,0,,,,,,overwork,w,g,upper,,,,,,,1,w,HiDemTar,g,1,0.6635167032363825,,,,,,,,,,,,,,,,,,,334,2023-11-17_13h24.41.829,leap3,2022.2.5,59.56244725059733,
,,,,,,,,,,,,,,,,,,,,2,0,2,0,2,0,2,0,,,,,,emotion,w,g,upper,,,,,,,1,w,HiDemTar,g,1,0.5722416292119306,,,,,,,,,,,,,,,,,,,334,2023-11-17_13h24.41.829,leap3,2022.2.5,59.56244725059733,
,,,,,,,,,,,,,,,,,,,,2,0,2,0,3,0,3,0,,,,,,parlayid,nw,h,upper,,,,,,,1,nw,HiDemTar,h,1,2.460485556468484,,,,,,,,,,,,,,,,,,,334,2023-11-17_13h24.41.829,leap3,2022.2.5,59.56244725059733,
,,,,,,,,,,,,,,,,,,,,2,0,2,0,4,0,4,0,,,,,,chiffol,nw,h,upper,,,,,,,1,nw,HiDemTar,q,0,1.7532029711292125,,,,,,,,,,,,,,,,,,,334,2023-11-17_13h24.41.829,leap3,2022.2.5,59.56244725059733,
,,,,,,,,,,,,,,,,,,,,2,0,2,0,5,0,5,0,,,,,,peems,nw,h,upper,,,,,,,1,nw,HiDemTar,h,1,1.2499381218949566,,,,,,,,,,,,,,,,,,,334,2023-11-17_13h24.41.829,leap3,2022.2.5,59.56244725059733,
,,,,,,,,,,,,,,,,,,,,2,0,2,0,6,0,6,0,,,,,,flacked,nw,h,upper,,,,,,,1,nw,HiDemTar,g,0,1.9184745629463578,,,,,,,,,,,,,,,,,,,334,2023-11-17_13h24.41.829,leap3,2022.2.5,59.56244725059733,
,,,,,,,,,,,,,,,,,,,,2,0,2,0,7,0,7,0,,,,,,prama,nw,h,upper,,,,,,,1,nw,HiDemTar,h,1,1.5605717340513365,,,,,,,,,,,,,,,,,,,334,2023-11-17_13h24.41.829,leap3,2022.2.5,59.56244725059733,
,,,,,,,,,,,,,,,,,,,,2,0,2,0,8,0,8,0,,,,,,dialogues,w,g,upper,,,,,,,1,w,HiDemTar,g,1,0.9933947667450411,,,,,,,,,,,,,,,,,,,334,2023-11-17_13h24.41.829,leap3,2022.2.5,59.56244725059733,
,,,,,,,,,,,,,,,,,,,,2,0,2,0,9,0,9,0,,,,,,knowledge,w,g,upper,,,,,,,1,w,HiDemTar,g,1,0.5367340141092427,,,,,,,,,,,,,,,,,,,334,2023-11-17_13h24.41.829,leap3,2022.2.5,59.56244725059733,
,,,,,,,,,,,,,,,,,,,,2,0,2,0,10,0,10,0,,,,,,pakened,nw,h,upper,,,,,,,1,nw,HiDemTar,h,1,1.3301839216874214,,,,,,,,,,,,,,,,,,,334,2023-11-17_13h24.41.829,leap3,2022.2.5,59.56244725059733,
,,,,,,,,,,,,,,,,,,,,2,0,2,0,11,0,11,0,,,,,,mabit,nw,h,upper,,,,,,,1,nw,HiDemTar,h,1,0.8043013463466195,,,,,,,,,,,,,,,,,,,334,2023-11-17_13h24.41.829,leap3,2022.2.5,59.56244725059733,
,,,,,,,,,,,,,,,,,,,,2,0,2,0,12,0,12,0,,,,,,beggarlan,nw,h,upper,,,,,,,1,nw,HiDemTar,h,1,3.8902236766007263,,,,,,,,,,,,,,,,,,,334,2023-11-17_13h24.41.829,leap3,2022.2.5,59.56244725059733,
,,,,,,,,,,,,,,,,,,,,2,0,2,0,13,0,13,0,,,,,,intrude,w,g,upper,,,,,,,1,w,HiDemTar,g,1,0.757557538090623,,,,,,,,,,,,,,,,,,,334,2023-11-17_13h24.41.829,leap3,2022.2.5,59.56244725059733,
,,,,,,,,,,,,,,,,,,,,2,0,2,0,14,0,14,0,,,,,,noblest,w,g,upper,,,,,,,1,w,HiDemTar,g,1,1.0543514207092812,,,,,,,,,,,,,,,,,,,334,2023-11-17_13h24.41.829,leap3,2022.2.5,59.56244725059733,
,,,,,,,,,,,,,,,,,,,,2,0,2,0,15,0,15,0,,,,,,landing,w,g,upper,,,,,,,1,w,HiDemTar,g,1,0.5231379522592761,,,,,,,,,,,,,,,,,,,334,2023-11-17_13h24.41.829,leap3,2022.2.5,59.56244725059733,
,,,,,,,,,,,,,,,,,,,,2,0,2,0,16,0,16,0,,,,,,pastnoss,nw,h,upper,,,,,,,1,nw,HiDemTar,h,1,1.4132590478257043,,,,,,,,,,,,,,,,,,,334,2023-11-17_13h24.41.829,leap3,2022.2.5,59.56244725059733,
,,,,,,,,,,,,,,,,,,,,2,0,2,0,17,0,17,0,,,,,,midday,w,g,upper,,,,,,,1,w,HiDemTar,g,1,1.916009744963958,,,,,,,,,,,,,,,,,,,334,2023-11-17_13h24.41.829,leap3,2022.2.5,59.56244725059733,
,,,,,,,,,,,,,,,,,,,,2,0,2,0,18,0,18,0,,,,,,favoting,nw,h,upper,,,,,,,1,nw,HiDemTar,h,1,1.6787747377238702,,,,,,,,,,,,,,,,,,,334,2023-11-17_13h24.41.829,leap3,2022.2.5,59.56244725059733,
,,,,,,,,,,,,,,,,,,,,2,0,2,0,19,0,19,0,,,,,,porcupine,target,q,upper,,,,,,,1,target,HiDemTar,q,1,2.3699289048818173,,1,,,,,,,,,,,,,,,,,334,2023-11-17_13h24.41.829,leap3,2022.2.5,59.56244725059733,
,,,,,,,,,,,,,,,,,,,,2,0,2,0,20,0,20,0,,,,,,module,w,g,upper,,,,,,,1,aftertar1,HiDemTar,g,1,0.7619852715870366,,,,,,,,,,,,,,,,,,,334,2023-11-17_13h24.41.829,leap3,2022.2.5,59.56244725059733,
,,,,,,,,,,,,,,,,,,,,2,0,2,0,21,0,21,0,,,,,,release,w,g,upper,,,,,,,1,aftertar2,HiDemTar,g,1,0.6508112203446217,,,,,,,,,,,,,,,,,,,334,2023-11-17_13h24.41.829,leap3,2022.2.5,59.56244725059733,
,,,,,,,,,,,,,,,,,,,,2,0,2,0,22,0,22,0,,,,,,withep,nw,h,upper,,,,,,,1,aftertar3,HiDemTar,h,1,0.7033322044007946,,,,,,,,,,,,,,,,,,,334,2023-11-17_13h24.41.829,leap3,2022.2.5,59.56244725059733,
,,,,,,,,,,,,,,,,,,,,2,0,2,0,23,0,23,0,,,,,,require,w,g,upper,,,,,,,1,nw,HiDemTar,g,1,0.5541009660664713,,,,,,,,,,,,,,,,,,,334,2023-11-17_13h24.41.829,leap3,2022.2.5,59.56244725059733,
,,,,,,,,,,,,,,,,,,,,2,0,2,0,24,0,24,0,,,,,,galashes,nw,h,upper,,,,,,,1,w,HiDemTar,h,1,1.3147507510147989,,,,,,,,,,,,,,,,,,,334,2023-11-17_13h24.41.829,leap3,2022.2.5,59.56244725059733,
,,,,,,,,,,,,,,,,,,,,2,0,2,0,25,0,25,0,,,,,,imotope,nw,h,upper,,,,,,,1,nw,HiDemTar,g,0,0.8208200963417767,,,,,,,,,,,,,,,,,,,334,2023-11-17_13h24.41.829,leap3,2022.2.5,59.56244725059733,
,,,,,,,,,,,,,,,,,,,,2,0,2,0,26,0,26,0,,,,,,committed,w,g,upper,,,,,,,1,nw,HiDemTar,g,1,0.5472272855986375,,,,,,,,,,,,,,,,,,,334,2023-11-17_13h24.41.829,leap3,2022.2.5,59.56244725059733,
,,,,,,,,,,,,,,,,,,,,2,0,2,0,27,0,27,0,,,,,,prison,w,g,upper,,,,,,,1,w,HiDemTar,g,1,0.46807103799073957,,,,,,,,,,,,,,,,,,,334,2023-11-17_13h24.41.829,leap3,2022.2.5,59.56244725059733,
,,,,,,,,,,,,,,,,,,,,2,0,2,0,28,0,28,0,,,,,,demon,w,g,upper,,,,,,,1,w,HiDemTar,g,1,0.544806499950937,,,,,,,,,,,,,,,,,,,334,2023-11-17_13h24.41.829,leap3,2022.2.5,59.56244725059733,
,,,,,,,,,,,,,,,,,,,,2,0,2,0,29,0,29,0,,,,,,amms,nw,h,upper,,,,,,,1,w,HiDemTar,h,1,0.7702530888782348,,,,,,,,,,,,,,,,,,,334,2023-11-17_13h24.41.829,leap3,2022.2.5,59.56244725059733,
,,,,,,,,,,,,,,,,,,,,2,0,2,0,,,,,,,,,,,,,,,,,,,,,,,,,,1,,,,,,,,,,,,,,,,,,334,2023-11-17_13h24.41.829,leap3,2022.2.5,59.56244725059733,
,,,,,,,,,,,,,,,,,,,,3,0,3,0,0,0,0,0,,,,,,baladroit,nw,h,upper,,,,,,,1,nw,HiDemTar,h,1,1.9057743771991227,,,,,,,,,,,,,,,,,,,334,2023-11-17_13h24.41.829,leap3,2022.2.5,59.56244725059733,
,,,,,,,,,,,,,,,,,,,,3,0,3,0,1,0,1,0,,,,,,maroon,w,g,upper,,,,,,,1,w,HiDemTar,g,1,0.6683936990448274,,,,,,,,,,,,,,,,,,,334,2023-11-17_13h24.41.829,leap3,2022.2.5,59.56244725059733,
,,,,,,,,,,,,,,,,,,,,3,0,3,0,2,0,2,0,,,,,,nollow,nw,h,upper,,,,,,,1,nw,HiDemTar,h,1,1.5366015860054176,,,,,,,,,,,,,,,,,,,334,2023-11-17_13h24.41.829,leap3,2022.2.5,59.56244725059733,
,,,,,,,,,,,,,,,,,,,,3,0,3,0,3,0,3,0,,,,,,category,w,g,upper,,,,,,,1,w,HiDemTar,g,1,0.7059771246131277,,,,,,,,,,,,,,,,,,,334,2023-11-17_13h24.41.829,leap3,2022.2.5,59.56244725059733,
,,,,,,,,,,,,,,,,,,,,3,0,3,0,4,0,4,0,,,,,,ronvince,nw,h,upper,,,,,,,1,nw,HiDemTar,h,1,1.340687125295517,,,,,,,,,,,,,,,,,,,334,2023-11-17_13h24.41.829,leap3,2022.2.5,59.56244725059733,
,,,,,,,,,,,,,,,,,,,,3,0,3,0,5,0,5,0,,,,,,scrobby,nw,h,upper,,,,,,,1,nw,HiDemTar,g,0,0.7261681058007525,,,,,,,,,,,,,,,,,,,334,2023-11-17_13h24.41.829,leap3,2022.2.5,59.56244725059733,
,,,,,,,,,,,,,,,,,,,,3,0,3,0,6,0,6,0,,,,,,pender,nw,h,upper,,,,,,,1,nw,HiDemTar,h,1,1.2241980722901644,,,,,,,,,,,,,,,,,,,334,2023-11-17_13h24.41.829,leap3,2022.2.5,59.56244725059733,
,,,,,,,,,,,,,,,,,,,,3,0,3,0,7,0,7,0,,,,,,nopping,nw,h,upper,,,,,,,1,nw,HiDemTar,h,1,1.4463710386189632,,,,,,,,,,,,,,,,,,,334,2023-11-17_13h24.41.829,leap3,2022.2.5,59.56244725059733,
,,,,,,,,,,,,,,,,,,,,3,0,3,0,8,0,8,0,,,,,,treason,w,g,upper,,,,,,,1,w,HiDemTar,h,0,1.9227357681083959,,,,,,,,,,,,,,,,,,,334,2023-11-17_13h24.41.829,leap3,2022.2.5,59.56244725059733,
,,,,,,,,,,,,,,,,,,,,3,0,3,0,9,0,9,0,,,,,,extend,w,g,upper,,,,,,,1,w,HiDemTar,g,1,0.5619446823839098,,,,,,,,,,,,,,,,,,,334,2023-11-17_13h24.41.829,leap3,2022.2.5,59.56244725059733,
,,,,,,,,,,,,,,,,,,,,3,0,3,0,10,0,10,0,,,,,,chrik,nw,h,upper,,,,,,,1,nw,HiDemTar,h,1,0.9415319503459614,,,,,,,,,,,,,,,,,,,334,2023-11-17_13h24.41.829,leap3,2022.2.5,59.56244725059733,
,,,,,,,,,,,,,,,,,,,,3,0,3,0,11,0,11,0,,,,,,peadgear,nw,h,upper,,,,,,,1,nw,HiDemTar,q,0,1.2389591703395126,,,,,,,,,,,,,,,,,,,334,2023-11-17_13h24.41.829,leap3,2022.2.5,59.56244725059733,
,,,,,,,,,,,,,,,,,,,,3,0,3,0,12,0,12,0,,,,,,elephant,target,q,upper,,,,,,,1,target,HiDemTar,q,1,0.9403738666151185,,1,,,,,,,,,,,,,,,,,334,2023-11-17_13h24.41.829,leap3,2022.2.5,59.56244725059733,
,,,,,,,,,,,,,,,,,,,,3,0,3,0,13,0,13,0,,,,,,befriend,w,g,upper,,,,,,,1,aftertar1,HiDemTar,h,0,1.0857835610804614,,,,,,,,,,,,,,,,,,,334,2023-11-17_13h24.41.829,leap3,2022.2.5,59.56244725059733,
,,,,,,,,,,,,,,,,,,,,3,0,3,0,14,0,14,0,,,,,,handbook,w,g,upper,,,,,,,1,aftertar2,HiDemTar,g,1,1.1452414600353222,,,,,,,,,,,,,,,,,,,334,2023-11-17_13h24.41.829,leap3,2022.2.5,59.56244725059733,
,,,,,,,,,,,,,,,,,,,,3,0,3,0,15,0,15,0,,,,,,maiden,w,g,upper,,,,,,,1,aftertar3,HiDemTar,g,1,1.9373935722542228,,,,,,,,,,,,,,,,,,,334,2023-11-17_13h24.41.829,leap3,2022.2.5,59.56244725059733,
,,,,,,,,,,,,,,,,,,,,3,0,3,0,16,0,16,0,,,,,,trooper,w,g,upper,,,,,,,1,w,HiDemTar,g,1,0.5950940841285046,,,,,,,,,,,,,,,,,,,334,2023-11-17_13h24.41.829,leap3,2022.2.5,59.56244725059733,
,,,,,,,,,,,,,,,,,,,,3,0,3,0,17,0,17,0,,,,,,function,w,g,upper,,,,,,,1,w,HiDemTar,g,1,0.5865120811649831,,,,,,,,,,,,,,,,,,,334,2023-11-17_13h24.41.829,leap3,2022.2.5,59.56244725059733,
,,,,,,,,,,,,,,,,,,,,3,0,3,0,18,0,18,0,,,,,,frigs,nw,h,upper,,,,,,,1,w,HiDemTar,h,1,0.8259665833320469,,,,,,,,,,,,,,,,,,,334,2023-11-17_13h24.41.829,leap3,2022.2.5,59.56244725059733,
,,,,,,,,,,,,,,,,,,,,3,0,3,0,19,0,19,0,,,,,,apology,w,g,upper,,,,,,,1,nw,HiDemTar,g,1,0.5680916636629263,,,,,,,,,,,,,,,,,,,334,2023-11-17_13h24.41.829,leap3,2022.2.5,59.56244725059733,
,,,,,,,,,,,,,,,,,,,,3,0,3,0,20,0,20,0,,,,,,trophy,w,g,upper,,,,,,,1,w,HiDemTar,g,1,0.6401587040600134,,,,,,,,,,,,,,,,,,,334,2023-11-17_13h24.41.829,leap3,2022.2.5,59.56244725059733,
,,,,,,,,,,,,,,,,,,,,3,0,3,0,21,0,21,0,,,,,,insole,w,g,upper,,,,,,,1,w,HiDemTar,g,1,1.3896348681737436,,,,,,,,,,,,,,,,,,,334,2023-11-17_13h24.41.829,leap3,2022.2.5,59.56244725059733,
,,,,,,,,,,,,,,,,,,,,3,0,3,0,22,0,22,0,,,,,,imprives,nw,h,upper,,,,,,,1,w,HiDemTar,h,1,0.8850540146813728,,,,,,,,,,,,,,,,,,,334,2023-11-17_13h24.41.829,leap3,2022.2.5,59.56244725059733,
,,,,,,,,,,,,,,,,,,,,3,0,3,0,23,0,23,0,,,,,,lanthers,nw,h,upper,,,,,,,1,nw,HiDemTar,q,0,1.4794671380368527,,,,,,,,,,,,,,,,,,,334,2023-11-17_13h24.41.829,leap3,2022.2.5,59.56244725059733,
,,,,,,,,,,,,,,,,,,,,3,0,3,0,24,0,24,0,,,,,,twenties,w,g,upper,,,,,,,1,nw,HiDemTar,g,1,1.2676543529814808,,,,,,,,,,,,,,,,,,,334,2023-11-17_13h24.41.829,leap3,2022.2.5,59.56244725059733,
,,,,,,,,,,,,,,,,,,,,3,0,3,0,25,0,25,0,,,,,,sunshine,w,g,upper,,,,,,,1,w,HiDemTar,g,1,0.6236515415366739,,,,,,,,,,,,,,,,,,,334,2023-11-17_13h24.41.829,leap3,2022.2.5,59.56244725059733,
,,,,,,,,,,,,,,,,,,,,3,0,3,0,26,0,26,0,,,,,,impirt,nw,h,upper,,,,,,,1,w,HiDemTar,h,1,1.74176813584927,,,,,,,,,,,,,,,,,,,334,2023-11-17_13h24.41.829,leap3,2022.2.5,59.56244725059733,
,,,,,,,,,,,,,,,,,,,,3,0,3,0,27,0,27,0,,,,,,incidonts,nw,h,upper,,,,,,,1,nw,HiDemTar,h,1,0.9992937764181988,,,,,,,,,,,,,,,,,,,334,2023-11-17_13h24.41.829,leap3,2022.2.5,59.56244725059733,
,,,,,,,,,,,,,,,,,,,,3,0,3,0,28,0,28,0,,,,,,curtail,w,g,upper,,,,,,,1,nw,HiDemTar,g,1,0.8065903660317417,,,,,,,,,,,,,,,,,,,334,2023-11-17_13h24.41.829,leap3,2022.2.5,59.56244725059733,
,,,,,,,,,,,,,,,,,,,,3,0,3,0,29,0,29,0,,,,,,spigat,nw,h,upper,,,,,,,1,w,HiDemTar,h,1,4.7975696950015845,,,,,,,,,,,,,,,,,,,334,2023-11-17_13h24.41.829,leap3,2022.2.5,59.56244725059733,
,,,,,,,,,,,,,,,,,,,,3,0,3,0,,,,,,,,,,,,,,,,,,,,,,,,,,1,,,,,,,,,,,,,,,,,,334,2023-11-17_13h24.41.829,leap3,2022.2.5,59.56244725059733,
,,,,,,,,,,,,,,,,,,,,4,0,4,0,0,0,0,0,,,,,,ralliep,nw,h,upper,,,,,,,1,nw,HiDemTar,h,1,0.7641888751531951,,,,,,,,,,,,,,,,,,,334,2023-11-17_13h24.41.829,leap3,2022.2.5,59.56244725059733,
,,,,,,,,,,,,,,,,,,,,4,0,4,0,1,0,1,0,,,,,,hackal,nw,h,upper,,,,,,,1,nw,HiDemTar,h,1,2.0049908332439372,,,,,,,,,,,,,,,,,,,334,2023-11-17_13h24.41.829,leap3,2022.2.5,59.56244725059733,
,,,,,,,,,,,,,,,,,,,,4,0,4,0,2,0,2,0,,,,,,angry,w,g,upper,,,,,,,1,w,HiDemTar,g,1,0.5957691363437334,,,,,,,,,,,,,,,,,,,334,2023-11-17_13h24.41.829,leap3,2022.2.5,59.56244725059733,
,,,,,,,,,,,,,,,,,,,,4,0,4,0,3,0,3,0,,,,,,provide,w,g,upper,,,,,,,1,w,HiDemTar,g,1,0.5213756653247401,,,,,,,,,,,,,,,,,,,334,2023-11-17_13h24.41.829,leap3,2022.2.5,59.56244725059733,
,,,,,,,,,,,,,,,,,,,,4,0,4,0,4,0,4,0,,,,,,rasuals,nw,h,upper,,,,,,,1,nw,HiDemTar,h,1,4.149411289807176,,,,,,,,,,,,,,,,,,,334,2023-11-17_13h24.41.829,leap3,2022.2.5,59.56244725059733,
,,,,,,,,,,,,,,,,,,,,4,0,4,0,5,0,5,0,,,,,,dialect,w,g,upper,,,,,,,1,w,HiDemTar,g,1,1.565137192781549,,,,,,,,,,,,,,,,,,,334,2023-11-17_13h24.41.829,leap3,2022.2.5,59.56244725059733,
,,,,,,,,,,,,,,,,,,,,4,0,4,0,6,0,6,0,,,,,,usually,w,g,upper,,,,,,,1,w,HiDemTar,g,1,1.077952756517334,,,,,,,,,,,,,,,,,,,334,2023-11-17_13h24.41.829,leap3,2022.2.5,59.56244725059733,
,,,,,,,,,,,,,,,,,,,,4,0,4,0,7,0,7,0,,,,,,advantage,w,g,upper,,,,,,,1,w,HiDemTar,g,1,0.5220318465580931,,,,,,,,,,,,,,,,,,,334,2023-11-17_13h24.41.829,leap3,2022.2.5,59.56244725059733,
,,,,,,,,,,,,,,,,,,,,4,0,4,0,8,0,8,0,,,,,,nimp,nw,h,upper,,,,,,,1,nw,HiDemTar,g,0,1.1001354563195491,,,,,,,,,,,,,,,,,,,334,2023-11-17_13h24.41.829,leap3,2022.2.5,59.56244725059733,
,,,,,,,,,,,,,,,,,,,,4,0,4,0,9,0,9,0,,,,,,gorilla,target,q,upper,,,,,,,1,target,HiDemTar,g,0,0.5827246375265531,,1,1,,,,,,,,,,,,,,,,334,2023-11-17_13h24.41.829,leap3,2022.2.5,59.56244725059733,
,,,,,,,,,,,,,,,,,,,,4,0,4,0,10,0,10,0,,,,,,afford,w,g,upper,,,,,,,1,aftertar1,HiDemTar,g,1,1.1426313021947863,,,,,,,,,,,,,,,,,,,334,2023-11-17_13h24.41.829,leap3,2022.2.5,59.56244725059733,
,,,,,,,,,,,,,,,,,,,,4,0,4,0,11,0,11,0,,,,,,mogus,nw,h,upper,,,,,,,1,aftertar2,HiDemTar,h,1,1.832168191220262,,,,,,,,,,,,,,,,,,,334,2023-11-17_13h24.41.829,leap3,2022.2.5,59.56244725059733,
,,,,,,,,,,,,,,,,,,,,4,0,4,0,12,0,12,0,,,,,,issue,w,g,upper,,,,,,,1,aftertar3,HiDemTar,g,1,0.5662178060592851,,,,,,,,,,,,,,,,,,,334,2023-11-17_13h24.41.829,leap3,2022.2.5,59.56244725059733,
,,,,,,,,,,,,,,,,,,,,4,0,4,0,13,0,13,0,,,,,,engineer,w,g,upper,,,,,,,1,w,HiDemTar,g,1,0.5748925086954841,,,,,,,,,,,,,,,,,,,334,2023-11-17_13h24.41.829,leap3,2022.2.5,59.56244725059733,
,,,,,,,,,,,,,,,,,,,,4,0,4,0,14,0,14,0,,,,,,brimitar,nw,h,upper,,,,,,,1,w,HiDemTar,h,1,1.9591137669049203,,,,,,,,,,,,,,,,,,,334,2023-11-17_13h24.41.829,leap3,2022.2.5,59.56244725059733,
,,,,,,,,,,,,,,,,,,,,4,0,4,0,15,0,15,0,,,,,,slimped,nw,h,upper,,,,,,,1,nw,HiDemTar,g,0,0.9838811321242247,,,,,,,,,,,,,,,,,,,334,2023-11-17_13h24.41.829,leap3,2022.2.5,59.56244725059733,
,,,,,,,,,,,,,,,,,,,,4,0,4,0,16,0,16,0,,,,,,dishwater,w,g,upper,,,,,,,1,nw,HiDemTar,g,1,0.6631972204486374,,,,,,,,,,,,,,,,,,,334,2023-11-17_13h24.41.829,leap3,2022.2.5,59.56244725059733,
,,,,,,,,,,,,,,,,,,,,4,0,4,0,17,0,17,0,,,,,,frunted,nw,h,upper,,,,,,,1,w,HiDemTar,g,0,1.2029794490517816,,,,,,,,,,,,,,,,,,,334,2023-11-17_13h24.41.829,leap3,2022.2.5,59.56244725059733,
,,,,,,,,,,,,,,,,,,,,4,0,4,0,18,0,18,0,,,,,,euphoric,w,g,upper,,,,,,,1,nw,HiDemTar,g,1,0.6657405020814622,,,,,,,,,,,,,,,,,,,334,2023-11-17_13h24.41.829,leap3,2022.2.5,59.56244725059733,
,,,,,,,,,,,,,,,,,,,,4,0,4,0,19,0,19,0,,,,,,glaims,nw,h,upper,,,,,,,1,w,HiDemTar,h,1,1.1344604885089211,,,,,,,,,,,,,,,,,,,334,2023-11-17_13h24.41.829,leap3,2022.2.5,59.56244725059733,
,,,,,,,,,,,,,,,,,,,,4,0,4,0,20,0,20,0,,,,,,pepperoni,w,g,upper,,,,,,,1,nw,HiDemTar,g,1,1.2478388054587413,,,,,,,,,,,,,,,,,,,334,2023-11-17_13h24.41.829,leap3,2022.2.5,59.56244725059733,
,,,,,,,,,,,,,,,,,,,,4,0,4,0,21,0,21,0,,,,,,planofoad,nw,h,upper,,,,,,,1,w,HiDemTar,h,1,1.3413029159564758,,,,,,,,,,,,,,,,,,,334,2023-11-17_13h24.41.829,leap3,2022.2.5,59.56244725059733,
,,,,,,,,,,,,,,,,,,,,4,0,4,0,22,0,22,0,,,,,,zears,nw,h,upper,,,,,,,1,nw,HiDemTar,g,0,1.0290268642856972,,,,,,,,,,,,,,,,,,,334,2023-11-17_13h24.41.829,leap3,2022.2.5,59.56244725059733,
,,,,,,,,,,,,,,,,,,,,4,0,4,0,23,0,23,0,,,,,,tinion,nw,h,upper,,,,,,,1,nw,HiDemTar,h,1,1.516729425478843,,,,,,,,,,,,,,,,,,,334,2023-11-17_13h24.41.829,leap3,2022.2.5,59.56244725059733,
,,,,,,,,,,,,,,,,,,,,4,0,4,0,24,0,24,0,,,,,,arbitrary,w,g,upper,,,,,,,1,nw,HiDemTar,g,1,0.7266478265955811,,,,,,,,,,,,,,,,,,,334,2023-11-17_13h24.41.829,leap3,2022.2.5,59.56244725059733,
,,,,,,,,,,,,,,,,,,,,4,0,4,0,25,0,25,0,,,,,,tunneg,nw,h,upper,,,,,,,1,w,HiDemTar,h,1,0.7366103924723575,,,,,,,,,,,,,,,,,,,334,2023-11-17_13h24.41.829,leap3,2022.2.5,59.56244725059733,
,,,,,,,,,,,,,,,,,,,,4,0,4,0,26,0,26,0,,,,,,scatter,w,g,upper,,,,,,,1,nw,HiDemTar,g,1,0.6100445543561364,,,,,,,,,,,,,,,,,,,334,2023-11-17_13h24.41.829,leap3,2022.2.5,59.56244725059733,
,,,,,,,,,,,,,,,,,,,,4,0,4,0,27,0,27,0,,,,,,remover,w,g,upper,,,,,,,1,w,HiDemTar,g,1,0.5208002652361756,,,,,,,,,,,,,,,,,,,334,2023-11-17_13h24.41.829,leap3,2022.2.5,59.56244725059733,
,,,,,,,,,,,,,,,,,,,,4,0,4,0,28,0,28,0,,,,,,reason,w,g,upper,,,,,,,1,w,HiDemTar,g,1,0.49881355902471114,,,,,,,,,,,,,,,,,,,334,2023-11-17_13h24.41.829,leap3,2022.2.5,59.56244725059733,
,,,,,,,,,,,,,,,,,,,,4,0,4,0,29,0,29,0,,,,,,gablus,nw,h,upper,,,,,,,1,w,HiDemTar,h,1,0.8782309879607055,,,,,,,,,,,,,,,,,,,334,2023-11-17_13h24.41.829,leap3,2022.2.5,59.56244725059733,
,,,,,,,,,,,,,,,,,,,,4,0,4,0,,,,,,,,,,,,,,,,,,,,,,,,,,1,,,,,,,,,,,,,,,,,,334,2023-11-17_13h24.41.829,leap3,2022.2.5,59.56244725059733,
,,,,,,,,,,,,,,,,,,,,5,0,5,0,0,0,0,0,,,,,,arrow,w,g,lower,,,,,,,3,w,LoDemNoTar,g,1,0.6497246477956651,,,,,,,,,,,,,,,,,,,334,2023-11-17_13h24.41.829,leap3,2022.2.5,59.56244725059733,
,,,,,,,,,,,,,,,,,,,,5,0,5,0,1,0,1,0,,,,,,phambled,nw,h,lower,,,,,,,3,nw,LoDemNoTar,h,1,1.2631147177453386,,,,,,,,,,,,,,,,,,,334,2023-11-17_13h24.41.829,leap3,2022.2.5,59.56244725059733,
,,,,,,,,,,,,,,,,,,,,5,0,5,0,2,0,2,0,,,,,,mustled,nw,h,lower,,,,,,,3,nw,LoDemNoTar,g,0,0.6278455394203775,,,,,,,,,,,,,,,,,,,334,2023-11-17_13h24.41.829,leap3,2022.2.5,59.56244725059733,
,,,,,,,,,,,,,,,,,,,,5,0,5,0,3,0,3,0,,,,,,sefraud,nw,h,lower,,,,,,,3,nw,LoDemNoTar,h,1,1.145957564978744,,,,,,,,,,,,,,,,,,,334,2023-11-17_13h24.41.829,leap3,2022.2.5,59.56244725059733,
,,,,,,,,,,,,,,,,,,,,5,0,5,0,4,0,4,0,,,,,,hotplate,w,g,lower,,,,,,,3,w,LoDemNoTar,g,1,1.187382067568251,,,,,,,,,,,,,,,,,,,334,2023-11-17_13h24.41.829,leap3,2022.2.5,59.56244725059733,
,,,,,,,,,,,,,,,,,,,,5,0,5,0,5,0,5,0,,,,,,preight,nw,h,lower,,,,,,,3,nw,LoDemNoTar,h,1,0.8108002553053666,,,,,,,,,,,,,,,,,,,334,2023-11-17_13h24.41.829,leap3,2022.2.5,59.56244725059733,
,,,,,,,,,,,,,,,,,,,,5,0,5,0,6,0,6,0,,,,,,decant,w,g,lower,,,,,,,3,w,LoDemNoTar,g,1,0.6095400032936595,,,,,,,,,,,,,,,,,,,334,2023-11-17_13h24.41.829,leap3,2022.2.5,59.56244725059733,
,,,,,,,,,,,,,,,,,,,,5,0,5,0,7,0,7,0,,,,,,upstairs,w,g,lower,,,,,,,3,w,LoDemNoTar,g,1,0.5352759807283292,,,,,,,,,,,,,,,,,,,334,2023-11-17_13h24.41.829,leap3,2022.2.5,59.56244725059733,
,,,,,,,,,,,,,,,,,,,,5,0,5,0,8,0,8,0,,,,,,bullet,w,g,lower,,,,,,,3,w,LoDemNoTar,g,1,0.584658418840263,,,,,,,,,,,,,,,,,,,334,2023-11-17_13h24.41.829,leap3,2022.2.5,59.56244725059733,
,,,,,,,,,,,,,,,,,,,,5,0,5,0,9,0,9,0,,,,,,awful,w,g,lower,,,,,,,3,w,LoDemNoTar,g,1,0.5120762331498554,,,,,,,,,,,,,,,,,,,334,2023-11-17_13h24.41.829,leap3,2022.2.5,59.56244725059733,
,,,,,,,,,,,,,,,,,,,,5,0,5,0,10,0,10,0,,,,,,mitro,nw,h,lower,,,,,,,3,nw,LoDemNoTar,h,1,0.7308163320703898,,,,,,,,,,,,,,,,,,,334,2023-11-17_13h24.41.829,leap3,2022.2.5,59.56244725059733,
,,,,,,,,,,,,,,,,,,,,5,0,5,0,11,0,11,0,,,,,,begut,nw,h,lower,,,,,,,3,nw,LoDemNoTar,h,1,0.6848978819616605,,,,,,,,,,,,,,,,,,,334,2023-11-17_13h24.41.829,leap3,2022.2.5,59.56244725059733,
,,,,,,,,,,,,,,,,,,,,5,0,5,0,12,0,12,0,,,,,,innocent,w,g,lower,,,,,,,3,w,LoDemNoTar,g,1,0.5442608961748192,,,,,,,,,,,,,,,,,,,334,2023-11-17_13h24.41.829,leap3,2022.2.5,59.56244725059733,
,,,,,,,,,,,,,,,,,,,,5,0,5,0,13,0,13,0,,,,,,reborn,w,g,lower,,,,,,,3,w,LoDemNoTar,g,1,0.46562078707211185,,,,,,,,,,,,,,,,,,,334,2023-11-17_13h24.41.829,leap3,2022.2.5,59.56244725059733,
,,,,,,,,,,,,,,,,,,,,5,0,5,0,14,0,14,0,,,,,,sengry,nw,h,lower,,,,,,,3,nw,LoDemNoTar,h,1,2.078442740486935,,,,,,,,,,,,,,,,,,,334,2023-11-17_13h24.41.829,leap3,2022.2.5,59.56244725059733,
,,,,,,,,,,,,,,,,,,,,5,0,5,0,15,0,15,0,,,,,,saturate,w,g,lower,,,,,,,3,w,LoDemNoTar,g,1,0.5464433112501865,,,,,,,,,,,,,,,,,,,334,2023-11-17_13h24.41.829,leap3,2022.2.5,59.56244725059733,
,,,,,,,,,,,,,,,,,,,,5,0,5,0,16,0,16,0,,,,,,lightels,nw,h,lower,,,,,,,3,nw,LoDemNoTar,h,1,1.0108517698245123,,,,,,,,,,,,,,,,,,,334,2023-11-17_13h24.41.829,leap3,2022.2.5,59.56244725059733,
,,,,,,,,,,,,,,,,,,,,5,0,5,0,17,0,17,0,,,,,,carnival,w,g,lower,,,,,,,3,w,LoDemNoTar,g,1,0.7216188695165329,,,,,,,,,,,,,,,,,,,334,2023-11-17_13h24.41.829,leap3,2022.2.5,59.56244725059733,
,,,,,,,,,,,,,,,,,,,,5,0,5,0,18,0,18,0,,,,,,treenery,nw,h,lower,,,,,,,3,nw,LoDemNoTar,h,1,1.3063786466082092,,,,,,,,,,,,,,,,,,,334,2023-11-17_13h24.41.829,leap3,2022.2.5,59.56244725059733,
,,,,,,,,,,,,,,,,,,,,5,0,5,0,19,0,19,0,,,,,,pranny,nw,h,lower,,,,,,,3,nw,LoDemNoTar,h,1,0.8704922209290089,,,,,,,,,,,,,,,,,,,334,2023-11-17_13h24.41.829,leap3,2022.2.5,59.56244725059733,
,,,,,,,,,,,,,,,,,,,,5,0,5,0,20,0,20,0,,,,,,hangar,w,g,lower,,,,,,,3,w,LoDemNoTar,h,0,1.282707454985939,,,,,,,,,,,,,,,,,,,334,2023-11-17_13h24.41.829,leap3,2022.2.5,59.56244725059733,
,,,,,,,,,,,,,,,,,,,,5,0,5,0,21,0,21,0,,,,,,expensive,w,g,lower,,,,,,,3,w,LoDemNoTar,g,1,0.5667223571217619,,,,,,,,,,,,,,,,,,,334,2023-11-17_13h24.41.829,leap3,2022.2.5,59.56244725059733,
,,,,,,,,,,,,,,,,,,,,5,0,5,0,22,0,22,0,,,,,,clarms,nw,h,lower,,,,,,,3,nw,LoDemNoTar,g,0,0.4634681683382951,,,,,,,,,,,,,,,,,,,334,2023-11-17_13h24.41.829,leap3,2022.2.5,59.56244725059733,
,,,,,,,,,,,,,,,,,,,,5,0,5,0,23,0,23,0,,,,,,fictional,w,g,lower,,,,,,,3,w,LoDemNoTar,g,1,0.7882162983587477,,,,,,,,,,,,,,,,,,,334,2023-11-17_13h24.41.829,leap3,2022.2.5,59.56244725059733,
,,,,,,,,,,,,,,,,,,,,5,0,5,0,24,0,24,0,,,,,,gackpedal,nw,h,lower,,,,,,,3,nw,LoDemNoTar,h,1,0.7866281543974765,,,,,,,,,,,,,,,,,,,334,2023-11-17_13h24.41.829,leap3,2022.2.5,59.56244725059733,
,,,,,,,,,,,,,,,,,,,,5,0,5,0,25,0,25,0,,,,,,mamps,nw,h,lower,,,,,,,3,nw,LoDemNoTar,h,1,0.8900670803704998,,,,,,,,,,,,,,,,,,,334,2023-11-17_13h24.41.829,leap3,2022.2.5,59.56244725059733,
,,,,,,,,,,,,,,,,,,,,5,0,5,0,26,0,26,0,,,,,,mitten,w,g,lower,,,,,,,3,w,LoDemNoTar,q,0,1.0214787937002257,,,,,,,,,,,,,,,,,,,334,2023-11-17_13h24.41.829,leap3,2022.2.5,59.56244725059733,
,,,,,,,,,,,,,,,,,,,,5,0,5,0,27,0,27,0,,,,,,saucer,w,g,lower,,,,,,,3,w,LoDemNoTar,h,0,2.8997134741657646,,,,,,,,,,,,,,,,,,,334,2023-11-17_13h24.41.829,leap3,2022.2.5,59.56244725059733,
,,,,,,,,,,,,,,,,,,,,5,0,5,0,28,0,28,0,,,,,,sporidic,nw,h,lower,,,,,,,3,nw,LoDemNoTar,g,0,1.1750967128027696,,,,,,,,,,,,,,,,,,,334,2023-11-17_13h24.41.829,leap3,2022.2.5,59.56244725059733,
,,,,,,,,,,,,,,,,,,,,5,0,5,0,29,0,29,0,,,,,,ucility,nw,h,lower,,,,,,,3,nw,LoDemNoTar,g,0,0.5830937808641465,,,,,,,,,,,,,,,,,,,334,2023-11-17_13h24.41.829,leap3,2022.2.5,59.56244725059733,
,,,,,,,,,,,,,,,,,,,,5,0,5,0,,,,,,,,,,,,,,,,,,,,,,,,,,NA,,,,,,,,,,,,,,,,,,334,2023-11-17_13h24.41.829,leap3,2022.2.5,59.56244725059733,
,,,,,,,,,,,,,,,,,,,,6,0,6,0,0,0,0,0,,,,,,servant,w,g,upper,,,,,,,1,w,HiDemTar,g,1,1.1340456574835116,,,,,,,,,,,,,,,,,,,334,2023-11-17_13h24.41.829,leap3,2022.2.5,59.56244725059733,
,,,,,,,,,,,,,,,,,,,,6,0,6,0,1,0,1,0,,,,,,resent,w,g,upper,,,,,,,1,w,HiDemTar,g,1,0.49531315329659265,,,,,,,,,,,,,,,,,,,334,2023-11-17_13h24.41.829,leap3,2022.2.5,59.56244725059733,
,,,,,,,,,,,,,,,,,,,,6,0,6,0,2,0,2,0,,,,,,stable,w,g,upper,,,,,,,1,w,HiDemTar,g,1,0.5466571826254949,,,,,,,,,,,,,,,,,,,334,2023-11-17_13h24.41.829,leap3,2022.2.5,59.56244725059733,
,,,,,,,,,,,,,,,,,,,,6,0,6,0,3,0,3,0,,,,,,eugenifs,nw,h,upper,,,,,,,1,nw,HiDemTar,h,1,0.5879810398473637,,,,,,,,,,,,,,,,,,,334,2023-11-17_13h24.41.829,leap3,2022.2.5,59.56244725059733,
,,,,,,,,,,,,,,,,,,,,6,0,6,0,4,0,4,0,,,,,,caloric,w,g,upper,,,,,,,1,w,HiDemTar,g,1,0.5553573776705889,,,,,,,,,,,,,,,,,,,334,2023-11-17_13h24.41.829,leap3,2022.2.5,59.56244725059733,
,,,,,,,,,,,,,,,,,,,,6,0,6,0,5,0,5,0,,,,,,buzzer,w,g,upper,,,,,,,1,w,HiDemTar,g,1,0.6921175308525562,,,,,,,,,,,,,,,,,,,334,2023-11-17_13h24.41.829,leap3,2022.2.5,59.56244725059733,
,,,,,,,,,,,,,,,,,,,,6,0,6,0,6,0,6,0,,,,,,fomrade,nw,h,upper,,,,,,,1,nw,HiDemTar,h,1,0.702518433725345,,,,,,,,,,,,,,,,,,,334,2023-11-17_13h24.41.829,leap3,2022.2.5,59.56244725059733,
,,,,,,,,,,,,,,,,,,,,6,0,6,0,7,0,7,0,,,,,,calming,w,g,upper,,,,,,,1,w,HiDemTar,g,1,0.6899241904611699,,,,,,,,,,,,,,,,,,,334,2023-11-17_13h24.41.829,leap3,2022.2.5,59.56244725059733,
,,,,,,,,,,,,,,,,,,,,6,0,6,0,8,0,8,0,,,,,,suspect,w,g,upper,,,,,,,1,w,HiDemTar,g,1,0.5253061312978389,,,,,,,,,,,,,,,,,,,334,2023-11-17_13h24.41.829,leap3,2022.2.5,59.56244725059733,
,,,,,,,,,,,,,,,,,,,,6,0,6,0,9,0,9,0,,,,,,beartiset,nw,h,upper,,,,,,,1,nw,HiDemTar,h,1,1.887524791949545,,,,,,,,,,,,,,,,,,,334,2023-11-17_13h24.41.829,leap3,2022.2.5,59.56244725059733,
,,,,,,,,,,,,,,,,,,,,6,0,6,0,10,0,10,0,,,,,,trocess,nw,h,upper,,,,,,,1,nw,HiDemTar,h,1,1.1709179441531887,,,,,,,,,,,,,,,,,,,334,2023-11-17_13h24.41.829,leap3,2022.2.5,59.56244725059733,
,,,,,,,,,,,,,,,,,,,,6,0,6,0,11,0,11,0,,,,,,rainfall,w,g,upper,,,,,,,1,w,HiDemTar,g,1,0.5950133029837161,,,,,,,,,,,,,,,,,,,334,2023-11-17_13h24.41.829,leap3,2022.2.5,59.56244725059733,
,,,,,,,,,,,,,,,,,,,,6,0,6,0,12,0,12,0,,,,,,fashing,nw,h,upper,,,,,,,1,nw,HiDemTar,h,1,2.4826020422187867,,,,,,,,,,,,,,,,,,,334,2023-11-17_13h24.41.829,leap3,2022.2.5,59.56244725059733,
,,,,,,,,,,,,,,,,,,,,6,0,6,0,13,0,13,0,,,,,,marinate,w,g,upper,,,,,,,1,w,HiDemTar,g,1,1.5176372200949118,,,,,,,,,,,,,,,,,,,334,2023-11-17_13h24.41.829,leap3,2022.2.5,59.56244725059733,
,,,,,,,,,,,,,,,,,,,,6,0,6,0,14,0,14,0,,,,,,renown,w,g,upper,,,,,,,1,w,HiDemTar,g,1,0.5677158989274176,,,,,,,,,,,,,,,,,,,334,2023-11-17_13h24.41.829,leap3,2022.2.5,59.56244725059733,
,,,,,,,,,,,,,,,,,,,,6,0,6,0,15,0,15,0,,,,,,sooled,nw,h,upper,,,,,,,1,nw,HiDemTar,h,1,0.8638118854723871,,,,,,,,,,,,,,,,,,,334,2023-11-17_13h24.41.829,leap3,2022.2.5,59.56244725059733,
,,,,,,,,,,,,,,,,,,,,6,0,6,0,16,0,16,0,,,,,,courier,w,g,upper,,,,,,,1,w,HiDemTar,g,1,0.5726041511370568,,,,,,,,,,,,,,,,,,,334,2023-11-17_13h24.41.829,leap3,2022.2.5,59.56244725059733,
,,,,,,,,,,,,,,,,,,,,6,0,6,0,17,0,17,0,,,,,,duries,nw,h,upper,,,,,,,1,nw,HiDemTar,g,0,0.7086359497625381,,,,,,,,,,,,,,,,,,,334,2023-11-17_13h24.41.829,leap3,2022.2.5,59.56244725059733,
,,,,,,,,,,,,,,,,,,,,6,0,6,0,18,0,18,0,,,,,,etcess,nw,h,upper,,,,,,,1,nw,HiDemTar,h,1,0.9033807393134339,,,,,,,,,,,,,,,,,,,334,2023-11-17_13h24.41.829,leap3,2022.2.5,59.56244725059733,
,,,,,,,,,,,,,,,,,,,,6,0,6,0,19,0,19,0,,,,,,tipoff,w,g,upper,,,,,,,1,w,HiDemTar,g,1,0.8741190954751801,,,,,,,,,,,,,,,,,,,334,2023-11-17_13h24.41.829,leap3,2022.2.5,59.56244725059733,
,,,,,,,,,,,,,,,,,,,,6,0,6,0,20,0,20,0,,,,,,seighing,nw,h,upper,,,,,,,1,nw,HiDemTar,h,1,1.086269572202582,,,,,,,,,,,,,,,,,,,334,2023-11-17_13h24.41.829,leap3,2022.2.5,59.56244725059733,
,,,,,,,,,,,,,,,,,,,,6,0,6,0,21,0,21,0,,,,,,corduroy,w,g,upper,,,,,,,1,w,HiDemTar,h,0,0.8816396872134646,,,,,,,,,,,,,,,,,,,334,2023-11-17_13h24.41.829,leap3,2022.2.5,59.56244725059733,
,,,,,,,,,,,,,,,,,,,,6,0,6,0,22,0,22,0,,,,,,irfirm,nw,h,upper,,,,,,,1,nw,HiDemTar,h,1,1.660761867708061,,,,,,,,,,,,,,,,,,,334,2023-11-17_13h24.41.829,leap3,2022.2.5,59.56244725059733,
,,,,,,,,,,,,,,,,,,,,6,0,6,0,23,0,23,0,,,,,,purport,w,g,upper,,,,,,,1,w,HiDemTar,h,0,3.1216229085839586,,,,,,,,,,,,,,,,,,,334,2023-11-17_13h24.41.829,leap3,2022.2.5,59.56244725059733,
,,,,,,,,,,,,,,,,,,,,6,0,6,0,24,0,24,0,,,,,,fillings,w,g,upper,,,,,,,1,w,HiDemTar,g,1,0.5156352382909972,,,,,,,,,,,,,,,,,,,334,2023-11-17_13h24.41.829,leap3,2022.2.5,59.56244725059733,
,,,,,,,,,,,,,,,,,,,,6,0,6,0,25,0,25,0,,,,,,theery,nw,h,upper,,,,,,,1,nw,HiDemTar,h,1,0.8464396363706328,,,,,,,,,,,,,,,,,,,334,2023-11-17_13h24.41.829,leap3,2022.2.5,59.56244725059733,
,,,,,,,,,,,,,,,,,,,,6,0,6,0,26,0,26,0,,,,,,caterpillar,target,q,upper,,,,,,,1,target,HiDemTar,g,0,0.5877430003456539,,1,1,,,,,,,,,,,,,,,,334,2023-11-17_13h24.41.829,leap3,2022.2.5,59.56244725059733,
,,,,,,,,,,,,,,,,,,,,6,0,6,0,27,0,27,0,,,,,,donastic,nw,h,upper,,,,,,,1,aftertar1,HiDemTar,h,1,6.106418838549871,,,,,,,,,,,,,,,,,,,334,2023-11-17_13h24.41.829,leap3,2022.2.5,59.56244725059733,
,,,,,,,,,,,,,,,,,,,,6,0,6,0,28,0,28,0,,,,,,tapling,nw,h,upper,,,,,,,1,aftertar2,HiDemTar,g,0,1.3172993297921494,,,,,,,,,,,,,,,,,,,334,2023-11-17_13h24.41.829,leap3,2022.2.5,59.56244725059733,
,,,,,,,,,,,,,,,,,,,,6,0,6,0,29,0,29,0,,,,,,blassed,nw,h,upper,,,,,,,1,aftertar3,HiDemTar,g,0,0.5752520509704482,,,,,,,,,,,,,,,,,,,334,2023-11-17_13h24.41.829,leap3,2022.2.5,59.56244725059733,
,,,,,,,,,,,,,,,,,,,,6,0,6,0,,,,,,,,,,,,,,,,,,,,,,,,,,1,,,,,,,,,,,,,,,,,,334,2023-11-17_13h24.41.829,leap3,2022.2.5,59.56244725059733,
,,,,,,,,,,,,,,,,,,,,7,0,7,0,0,0,0,0,,,,,,porghum,nw,h,lower,,,,,,,3,nw,LoDemNoTar,q,0,0.9506963058520341,,,,,,,,,,,,,,,,,,,334,2023-11-17_13h24.41.829,leap3,2022.2.5,59.56244725059733,
,,,,,,,,,,,,,,,,,,,,7,0,7,0,1,0,1,0,,,,,,obtuse,w,g,lower,,,,,,,3,w,LoDemNoTar,g,1,0.9194737329526106,,,,,,,,,,,,,,,,,,,334,2023-11-17_13h24.41.829,leap3,2022.2.5,59.56244725059733,
,,,,,,,,,,,,,,,,,,,,7,0,7,0,2,0,2,0,,,,,,anemic,w,g,lower,,,,,,,3,w,LoDemNoTar,h,0,1.177565834717825,,,,,,,,,,,,,,,,,,,334,2023-11-17_13h24.41.829,leap3,2022.2.5,59.56244725059733,
,,,,,,,,,,,,,,,,,,,,7,0,7,0,3,0,3,0,,,,,,brudent,nw,h,lower,,,,,,,3,nw,LoDemNoTar,g,0,2.129717576142866,,,,,,,,,,,,,,,,,,,334,2023-11-17_13h24.41.829,leap3,2022.2.5,59.56244725059733,
,,,,,,,,,,,,,,,,,,,,7,0,7,0,4,0,4,0,,,,,,matter,w,g,lower,,,,,,,3,w,LoDemNoTar,g,1,0.5159093644615496,,,,,,,,,,,,,,,,,,,334,2023-11-17_13h24.41.829,leap3,2022.2.5,59.56244725059733,
,,,,,,,,,,,,,,,,,,,,7,0,7,0,5,0,5,0,,,,,,ringlat,nw,h,lower,,,,,,,3,nw,LoDemNoTar,h,1,0.7105151044961531,,,,,,,,,,,,,,,,,,,334,2023-11-17_13h24.41.829,leap3,2022.2.5,59.56244725059733,
,,,,,,,,,,,,,,,,,,,,7,0,7,0,6,0,6,0,,,,,,deficit,w,g,lower,,,,,,,3,w,LoDemNoTar,g,1,1.7693446321209194,,,,,,,,,,,,,,,,,,,334,2023-11-17_13h24.41.829,leap3,2022.2.5,59.56244725059733,
,,,,,,,,,,,,,,,,,,,,7,0,7,0,7,0,7,0,,,,,,entropy,w,g,lower,,,,,,,3,w,LoDemNoTar,g,1,0.5997227772459155,,,,,,,,,,,,,,,,,,,334,2023-11-17_13h24.41.829,leap3,2022.2.5,59.56244725059733,
,,,,,,,,,,,,,,,,,,,,7,0,7,0,8,0,8,0,,,,,,latter,w,g,lower,,,,,,,3,w,LoDemNoTar,g,1,0.9271184760436881,,,,,,,,,,,,,,,,,,,334,2023-11-17_13h24.41.829,leap3,2022.2.5,59.56244725059733,
,,,,,,,,,,,,,,,,,,,,7,0,7,0,9,0,9,0,,,,,,fuhrek,nw,h,lower,,,,,,,3,nw,LoDemNoTar,h,1,0.9445516420819331,,,,,,,,,,,,,,,,,,,334,2023-11-17_13h24.41.829,leap3,2022.2.5,59.56244725059733,
,,,,,,,,,,,,,,,,,,,,7,0,7,0,10,0,10,0,,,,,,pester,w,g,lower,,,,,,,3,w,LoDemNoTar,g,1,1.625331723029376,,,,,,,,,,,,,,,,,,,334,2023-11-17_13h24.41.829,leap3,2022.2.5,59.56244725059733,
,,,,,,,,,,,,,,,,,,,,7,0,7,0,11,0,11,0,,,,,,dusmy,nw,h,lower,,,,,,,3,nw,LoDemNoTar,g,0,1.0947949621477164,,,,,,,,,,,,,,,,,,,334,2023-11-17_13h24.41.829,leap3,2022.2.5,59.56244725059733,
,,,,,,,,,,,,,,,,,,,,7,0,7,0,12,0,12,0,,,,,,bailmenz,nw,h,lower,,,,,,,3,nw,LoDemNoTar,h,1,1.0734495390206575,,,,,,,,,,,,,,,,,,,334,2023-11-17_13h24.41.829,leap3,2022.2.5,59.56244725059733,
,,,,,,,,,,,,,,,,,,,,7,0,7,0,13,0,13,0,,,,,,tinker,w,g,lower,,,,,,,3,w,LoDemNoTar,g,1,0.7329133310267935,,,,,,,,,,,,,,,,,,,334,2023-11-17_13h24.41.829,leap3,2022.2.5,59.56244725059733,
,,,,,,,,,,,,,,,,,,,,7,0,7,0,14,0,14,0,,,,,,fuack,nw,h,lower,,,,,,,3,nw,LoDemNoTar,h,1,0.6222375405050116,,,,,,,,,,,,,,,,,,,334,2023-11-17_13h24.41.829,leap3,2022.2.5,59.56244725059733,
,,,,,,,,,,,,,,,,,,,,7,0,7,0,15,0,15,0,,,,,,ameld,nw,h,lower,,,,,,,3,nw,LoDemNoTar,h,1,0.5066754841973307,,,,,,,,,,,,,,,,,,,334,2023-11-17_13h24.41.829,leap3,2022.2.5,59.56244725059733,
,,,,,,,,,,,,,,,,,,,,7,0,7,0,16,0,16,0,,,,,,urgent,w,g,lower,,,,,,,3,w,LoDemNoTar,g,1,0.6926998833951075,,,,,,,,,,,,,,,,,,,334,2023-11-17_13h24.41.829,leap3,2022.2.5,59.56244725059733,
,,,,,,,,,,,,,,,,,,,,7,0,7,0,17,0,17,0,,,,,,outrank,w,g,lower,,,,,,,3,w,LoDemNoTar,g,1,1.2076071489864262,,,,,,,,,,,,,,,,,,,334,2023-11-17_13h24.41.829,leap3,2022.2.5,59.56244725059733,
,,,,,,,,,,,,,,,,,,,,7,0,7,0,18,0,18,0,,,,,,previous,w,g,lower,,,,,,,3,w,LoDemNoTar,g,1,0.7182035488513066,,,,,,,,,,,,,,,,,,,334,2023-11-17_13h24.41.829,leap3,2022.2.5,59.56244725059733,
,,,,,,,,,,,,,,,,,,,,7,0,7,0,19,0,19,0,,,,,,undertake,w,g,lower,,,,,,,3,w,LoDemNoTar,g,1,0.5682959340047091,,,,,,,,,,,,,,,,,,,334,2023-11-17_13h24.41.829,leap3,2022.2.5,59.56244725059733,
,,,,,,,,,,,,,,,,,,,,7,0,7,0,20,0,20,0,,,,,,dislokes,nw,h,lower,,,,,,,3,nw,LoDemNoTar,h,1,0.7284091203036951,,,,,,,,,,,,,,,,,,,334,2023-11-17_13h24.41.829,leap3,2022.2.5,59.56244725059733,
,,,,,,,,,,,,,,,,,,,,7,0,7,0,21,0,21,0,,,,,,smabled,nw,h,lower,,,,,,,3,nw,LoDemNoTar,h,1,0.7457939500745852,,,,,,,,,,,,,,,,,,,334,2023-11-17_13h24.41.829,leap3,2022.2.5,59.56244725059733,
,,,,,,,,,,,,,,,,,,,,7,0,7,0,22,0,22,0,,,,,,houted,nw,h,lower,,,,,,,3,nw,LoDemNoTar,h,1,0.5785905633529183,,,,,,,,,,,,,,,,,,,334,2023-11-17_13h24.41.829,leap3,2022.2.5,59.56244725059733,
,,,,,,,,,,,,,,,,,,,,7,0,7,0,23,0,23,0,,,,,,oalis,nw,h,lower,,,,,,,3,nw,LoDemNoTar,h,1,1.002033713783021,,,,,,,,,,,,,,,,,,,334,2023-11-17_13h24.41.829,leap3,2022.2.5,59.56244725059733,
,,,,,,,,,,,,,,,,,,,,7,0,7,0,24,0,24,0,,,,,,teamwork,w,g,lower,,,,,,,3,w,LoDemNoTar,g,1,0.6158939034794457,,,,,,,,,,,,,,,,,,,334,2023-11-17_13h24.41.829,leap3,2022.2.5,59.56244725059733,
,,,,,,,,,,,,,,,,,,,,7,0,7,0,25,0,25,0,,,,,,snorls,nw,h,lower,,,,,,,3,nw,LoDemNoTar,q,0,2.541994720333605,,,,,,,,,,,,,,,,,,,334,2023-11-17_13h24.41.829,leap3,2022.2.5,59.56244725059733,
,,,,,,,,,,,,,,,,,,,,7,0,7,0,26,0,26,0,,,,,,geadpan,nw,h,lower,,,,,,,3,nw,LoDemNoTar,h,1,1.422687928454252,,,,,,,,,,,,,,,,,,,334,2023-11-17_13h24.41.829,leap3,2022.2.5,59.56244725059733,
,,,,,,,,,,,,,,,,,,,,7,0,7,0,27,0,27,0,,,,,,border,w,g,lower,,,,,,,3,w,LoDemNoTar,g,1,0.6361136877676472,,,,,,,,,,,,,,,,,,,334,2023-11-17_13h24.41.829,leap3,2022.2.5,59.56244725059733,
,,,,,,,,,,,,,,,,,,,,7,0,7,0,28,0,28,0,,,,,,formation,w,g,lower,,,,,,,3,w,LoDemNoTar,g,1,0.6009980598464608,,,,,,,,,,,,,,,,,,,334,2023-11-17_13h24.41.829,leap3,2022.2.5,59.56244725059733,
,,,,,,,,,,,,,,,,,,,,7,0,7,0,29,0,29,0,,,,,,uncarled,nw,h,lower,,,,,,,3,nw,LoDemNoTar,h,1,0.6795951297972351,,,,,,,,,,,,,,,,,,,334,2023-11-17_13h24.41.829,leap3,2022.2.5,59.56244725059733,
,,,,,,,,,,,,,,,,,,,,7,0,7,0,,,,,,,,,,,,,,,,,,,,,,,,,,NA,,,,,,,,,,,,,,,,,,334,2023-11-17_13h24.41.829,leap3,2022.2.5,59.56244725059733,
,,,,,,,,,,,,,,,,,,,,8,0,8,0,0,0,0,0,,,,,,thesis,w,g,upper,,,,,,,2,w,HiDemNoTar,g,1,5.17921522668621,,,,,,,,,,,,,,,,,,,334,2023-11-17_13h24.41.829,leap3,2022.2.5,59.56244725059733,
,,,,,,,,,,,,,,,,,,,,8,0,8,0,1,0,1,0,,,,,,ounwit,nw,h,upper,,,,,,,2,nw,HiDemNoTar,h,1,0.6985144701611716,,,,,,,,,,,,,,,,,,,334,2023-11-17_13h24.41.829,leap3,2022.2.5,59.56244725059733,
,,,,,,,,,,,,,,,,,,,,8,0,8,0,2,0,2,0,,,,,,seldom,w,g,upper,,,,,,,2,w,HiDemNoTar,g,1,0.5892483767529484,,,,,,,,,,,,,,,,,,,334,2023-11-17_13h24.41.829,leap3,2022.2.5,59.56244725059733,
,,,,,,,,,,,,,,,,,,,,8,0,8,0,3,0,3,0,,,,,,exploit,w,g,upper,,,,,,,2,w,HiDemNoTar,g,1,0.6031079705280717,,,,,,,,,,,,,,,,,,,334,2023-11-17_13h24.41.829,leap3,2022.2.5,59.56244725059733,
,,,,,,,,,,,,,,,,,,,,8,0,8,0,4,0,4,0,,,,,,unamufed,nw,h,upper,,,,,,,2,nw,HiDemNoTar,h,1,0.5930758798931492,,,,,,,,,,,,,,,,,,,334,2023-11-17_13h24.41.829,leap3,2022.2.5,59.56244725059733,
,,,,,,,,,,,,,,,,,,,,8,0,8,0,5,0,5,0,,,,,,pleamed,nw,h,upper,,,,,,,2,nw,HiDemNoTar,g,0,0.7757697124179685,,,,,,,,,,,,,,,,,,,334,2023-11-17_13h24.41.829,leap3,2022.2.5,59.56244725059733,
,,,,,,,,,,,,,,,,,,,,8,0,8,0,6,0,6,0,,,,,,peags,nw,h,upper,,,,,,,2,nw,HiDemNoTar,h,1,0.6529797304683598,,,,,,,,,,,,,,,,,,,334,2023-11-17_13h24.41.829,leap3,2022.2.5,59.56244725059733,
,,,,,,,,,,,,,,,,,,,,8,0,8,0,7,0,7,0,,,,,,combat,w,g,upper,,,,,,,2,w,HiDemNoTar,g,1,0.5632520787767135,,,,,,,,,,,,,,,,,,,334,2023-11-17_13h24.41.829,leap3,2022.2.5,59.56244725059733,
,,,,,,,,,,,,,,,,,,,,8,0,8,0,8,0,8,0,,,,,,bingu,nw,h,upper,,,,,,,2,nw,HiDemNoTar,h,1,0.539353441898129,,,,,,,,,,,,,,,,,,,334,2023-11-17_13h24.41.829,leap3,2022.2.5,59.56244725059733,
,,,,,,,,,,,,,,,,,,,,8,0,8,0,9,0,9,0,,,,,,exclusion,w,g,upper,,,,,,,2,w,HiDemNoTar,g,1,0.508037507199333,,,,,,,,,,,,,,,,,,,334,2023-11-17_13h24.41.829,leap3,2022.2.5,59.56244725059733,
,,,,,,,,,,,,,,,,,,,,8,0,8,0,10,0,10,0,,,,,,deceit,w,g,upper,,,,,,,2,w,HiDemNoTar,g,1,0.5741452831425704,,,,,,,,,,,,,,,,,,,334,2023-11-17_13h24.41.829,leap3,2022.2.5,59.56244725059733,
,,,,,,,,,,,,,,,,,,,,8,0,8,0,11,0,11,0,,,,,,rualify,nw,h,upper,,,,,,,2,nw,HiDemNoTar,h,1,2.0065680518891895,,,,,,,,,,,,,,,,,,,334,2023-11-17_13h24.41.829,leap3,2022.2.5,59.56244725059733,
,,,,,,,,,,,,,,,,,,,,8,0,8,0,12,0,12,0,,,,,,rowel,nw,h,upper,,,,,,,2,nw,HiDemNoTar,h,1,0.7387411605886882,,,,,,,,,,,,,,,,,,,334,2023-11-17_13h24.41.829,leap3,2022.2.5,59.56244725059733,
,,,,,,,,,,,,,,,,,,,,8,0,8,0,13,0,13,0,,,,,,diatonic,w,g,upper,,,,,,,2,w,HiDemNoTar,g,1,2.0515727481251815,,,,,,,,,,,,,,,,,,,334,2023-11-17_13h24.41.829,leap3,2022.2.5,59.56244725059733,
,,,,,,,,,,,,,,,,,,,,8,0,8,0,14,0,14,0,,,,,,standard,w,g,upper,,,,,,,2,w,HiDemNoTar,g,1,0.5602585416054353,,,,,,,,,,,,,,,,,,,334,2023-11-17_13h24.41.829,leap3,2022.2.5,59.56244725059733,
,,,,,,,,,,,,,,,,,,,,8,0,8,0,15,0,15,0,,,,,,frequency,w,g,upper,,,,,,,2,w,HiDemNoTar,g,1,0.6323917960689869,,,,,,,,,,,,,,,,,,,334,2023-11-17_13h24.41.829,leap3,2022.2.5,59.56244725059733,
,,,,,,,,,,,,,,,,,,,,8,0,8,0,16,0,16,0,,,,,,congraks,nw,h,upper,,,,,,,2,nw,HiDemNoTar,h,1,0.8377735415706411,,,,,,,,,,,,,,,,,,,334,2023-11-17_13h24.41.829,leap3,2022.2.5,59.56244725059733,
,,,,,,,,,,,,,,,,,,,,8,0,8,0,17,0,17,0,,,,,,humanize,w,g,upper,,,,,,,2,w,HiDemNoTar,g,1,0.6104815670696553,,,,,,,,,,,,,,,,,,,334,2023-11-17_13h24.41.829,leap3,2022.2.5,59.56244725059733,
,,,,,,,,,,,,,,,,,,,,8,0,8,0,18,0,18,0,,,,,,desert,w,g,upper,,,,,,,2,w,HiDemNoTar,g,1,0.528625441598706,,,,,,,,,,,,,,,,,,,334,2023-11-17_13h24.41.829,leap3,2022.2.5,59.56244725059733,
,,,,,,,,,,,,,,,,,,,,8,0,8,0,19,0,19,0,,,,,,colicky,w,g,upper,,,,,,,2,w,HiDemNoTar,h,0,0.7780001326755155,,,,,,,,,,,,,,,,,,,334,2023-11-17_13h24.41.829,leap3,2022.2.5,59.56244725059733,
,,,,,,,,,,,,,,,,,,,,8,0,8,0,20,0,20,0,,,,,,wrecber,nw,h,upper,,,,,,,2,nw,HiDemNoTar,h,1,0.6005547567765461,,,,,,,,,,,,,,,,,,,334,2023-11-17_13h24.41.829,leap3,2022.2.5,59.56244725059733,
,,,,,,,,,,,,,,,,,,,,8,0,8,0,21,0,21,0,,,,,,catgup,nw,h,upper,,,,,,,2,nw,HiDemNoTar,h,1,0.711008730228059,,,,,,,,,,,,,,,,,,,334,2023-11-17_13h24.41.829,leap3,2022.2.5,59.56244725059733,
,,,,,,,,,,,,,,,,,,,,8,0,8,0,22,0,22,0,,,,,,bloodless,w,g,upper,,,,,,,2,w,HiDemNoTar,g,1,0.6651187521638349,,,,,,,,,,,,,,,,,,,334,2023-11-17_13h24.41.829,leap3,2022.2.5,59.56244725059733,
,,,,,,,,,,,,,,,,,,,,8,0,8,0,23,0,23,0,,,,,,opert,nw,h,upper,,,,,,,2,nw,HiDemNoTar,h,1,1.5181947423843667,,,,,,,,,,,,,,,,,,,334,2023-11-17_13h24.41.829,leap3,2022.2.5,59.56244725059733,
,,,,,,,,,,,,,,,,,,,,8,0,8,0,24,0,24,0,,,,,,hardest,w,g,upper,,,,,,,2,w,HiDemNoTar,g,1,0.6626029493490933,,,,,,,,,,,,,,,,,,,334,2023-11-17_13h24.41.829,leap3,2022.2.5,59.56244725059733,
,,,,,,,,,,,,,,,,,,,,8,0,8,0,25,0,25,0,,,,,,guitar,w,g,upper,,,,,,,2,w,HiDemNoTar,g,1,0.45866235261200927,,,,,,,,,,,,,,,,,,,334,2023-11-17_13h24.41.829,leap3,2022.2.5,59.56244725059733,
,,,,,,,,,,,,,,,,,,,,8,0,8,0,26,0,26,0,,,,,,ubefully,nw,h,upper,,,,,,,2,nw,HiDemNoTar,h,1,1.2227754634368466,,,,,,,,,,,,,,,,,,,334,2023-11-17_13h24.41.829,leap3,2022.2.5,59.56244725059733,
,,,,,,,,,,,,,,,,,,,,8,0,8,0,27,0,27,0,,,,,,profats,nw,h,upper,,,,,,,2,nw,HiDemNoTar,h,1,1.0361746709240833,,,,,,,,,,,,,,,,,,,334,2023-11-17_13h24.41.829,leap3,2022.2.5,59.56244725059733,
,,,,,,,,,,,,,,,,,,,,8,0,8,0,28,0,28,0,,,,,,scrooner,nw,h,upper,,,,,,,2,nw,HiDemNoTar,h,1,2.2079951633058954,,,,,,,,,,,,,,,,,,,334,2023-11-17_13h24.41.829,leap3,2022.2.5,59.56244725059733,
,,,,,,,,,,,,,,,,,,,,8,0,8,0,29,0,29,0,,,,,,doads,nw,h,upper,,,,,,,2,nw,HiDemNoTar,h,1,1.4700726887094788,,,,,,,,,,,,,,,,,,,334,2023-11-17_13h24.41.829,leap3,2022.2.5,59.56244725059733,
,,,,,,,,,,,,,,,,,,,,8,0,8,0,,,,,,,,,,,,,,,,,,,,,,,,,,NA,,,,,,,,,,,,,,,,,,334,2023-11-17_13h24.41.829,leap3,2022.2.5,59.56244725059733,
,,,,,,,,,,,,,,,,,,,,9,0,9,0,0,0,0,0,,,,,,deeper,w,g,lower,,,,,,,4,w,LoDemTar,g,1,0.6265421158605022,,,,,,,,,,,,,,,,,,,334,2023-11-17_13h24.41.829,leap3,2022.2.5,59.56244725059733,
,,,,,,,,,,,,,,,,,,,,9,0,9,0,1,0,1,0,,,,,,ireology,nw,h,lower,,,,,,,4,nw,LoDemTar,g,0,2.8390998089889763,,,,,,,,,,,,,,,,,,,334,2023-11-17_13h24.41.829,leap3,2022.2.5,59.56244725059733,
,,,,,,,,,,,,,,,,,,,,9,0,9,0,2,0,2,0,,,,,,iolize,nw,h,lower,,,,,,,4,nw,LoDemTar,h,1,1.5878211329254555,,,,,,,,,,,,,,,,,,,334,2023-11-17_13h24.41.829,leap3,2022.2.5,59.56244725059733,
,,,,,,,,,,,,,,,,,,,,9,0,9,0,3,0,3,0,,,,,,selongs,nw,h,lower,,,,,,,4,nw,LoDemTar,h,1,0.7785795056115603,,,,,,,,,,,,,,,,,,,334,2023-11-17_13h24.41.829,leap3,2022.2.5,59.56244725059733,
,,,,,,,,,,,,,,,,,,,,9,0,9,0,4,0,4,0,,,,,,drauns,nw,h,lower,,,,,,,4,nw,LoDemTar,h,1,0.6579888233245583,,,,,,,,,,,,,,,,,,,334,2023-11-17_13h24.41.829,leap3,2022.2.5,59.56244725059733,
,,,,,,,,,,,,,,,,,,,,9,0,9,0,5,0,5,0,,,,,,vented,w,g,lower,,,,,,,4,w,LoDemTar,g,1,0.6780430724757025,,,,,,,,,,,,,,,,,,,334,2023-11-17_13h24.41.829,leap3,2022.2.5,59.56244725059733,
,,,,,,,,,,,,,,,,,,,,9,0,9,0,6,0,6,0,,,,,,army,w,g,lower,,,,,,,4,w,LoDemTar,g,1,0.5134634174755774,,,,,,,,,,,,,,,,,,,334,2023-11-17_13h24.41.829,leap3,2022.2.5,59.56244725059733,
,,,,,,,,,,,,,,,,,,,,9,0,9,0,7,0,7,0,,,,,,sorping,nw,h,lower,,,,,,,4,nw,LoDemTar,g,0,1.3715703511843458,,,,,,,,,,,,,,,,,,,334,2023-11-17_13h24.41.829,leap3,2022.2.5,59.56244725059733,
,,,,,,,,,,,,,,,,,,,,9,0,9,0,8,0,8,0,,,,,,dazid,nw,h,lower,,,,,,,4,nw,LoDemTar,h,1,0.8909944081242429,,,,,,,,,,,,,,,,,,,334,2023-11-17_13h24.41.829,leap3,2022.2.5,59.56244725059733,
,,,,,,,,,,,,,,,,,,,,9,0,9,0,9,0,9,0,,,,,,bumbo,nw,h,lower,,,,,,,4,nw,LoDemTar,g,0,0.7808162161963992,,,,,,,,,,,,,,,,,,,334,2023-11-17_13h24.41.829,leap3,2022.2.5,59.56244725059733,
,,,,,,,,,,,,,,,,,,,,9,0,9,0,10,0,10,0,,,,,,chraps,nw,h,lower,,,,,,,4,nw,LoDemTar,g,0,0.9081541101331823,,,,,,,,,,,,,,,,,,,334,2023-11-17_13h24.41.829,leap3,2022.2.5,59.56244725059733,
,,,,,,,,,,,,,,,,,,,,9,0,9,0,11,0,11,0,,,,,,retain,w,g,lower,,,,,,,4,w,LoDemTar,g,1,0.5344062591902912,,,,,,,,,,,,,,,,,,,334,2023-11-17_13h24.41.829,leap3,2022.2.5,59.56244725059733,
,,,,,,,,,,,,,,,,,,,,9,0,9,0,12,0,12,0,,,,,,gazes,w,g,lower,,,,,,,4,w,LoDemTar,g,1,0.4956236971920589,,,,,,,,,,,,,,,,,,,334,2023-11-17_13h24.41.829,leap3,2022.2.5,59.56244725059733,
,,,,,,,,,,,,,,,,,,,,9,0,9,0,13,0,13,0,,,,,,forbid,w,g,lower,,,,,,,4,w,LoDemTar,g,1,0.45057364432432223,,,,,,,,,,,,,,,,,,,334,2023-11-17_13h24.41.829,leap3,2022.2.5,59.56244725059733,
,,,,,,,,,,,,,,,,,,,,9,0,9,0,14,0,14,0,,,,,,penalize,w,g,lower,,,,,,,4,w,LoDemTar,g,1,0.6551058635959635,,,,,,,,,,,,,,,,,,,334,2023-11-17_13h24.41.829,leap3,2022.2.5,59.56244725059733,
,,,,,,,,,,,,,,,,,,,,9,0,9,0,15,0,15,0,,,,,,educate,w,g,lower,,,,,,,4,w,LoDemTar,g,1,0.5311617707629921,,,,,,,,,,,,,,,,,,,334,2023-11-17_13h24.41.829,leap3,2022.2.5,59.56244725059733,
,,,,,,,,,,,,,,,,,,,,9,0,9,0,16,0,16,0,,,,,,icepick,w,g,lower,,,,,,,4,w,LoDemTar,h,0,2.725659250820172,,,,,,,,,,,,,,,,,,,334,2023-11-17_13h24.41.829,leap3,2022.2.5,59.56244725059733,
,,,,,,,,,,,,,,,,,,,,9,0,9,0,17,0,17,0,,,,,,company,w,g,lower,,,,,,,4,w,LoDemTar,g,1,0.6380577322706813,,,,,,,,,,,,,,,,,,,334,2023-11-17_13h24.41.829,leap3,2022.2.5,59.56244725059733,
,,,,,,,,,,,,,,,,,,,,9,0,9,0,18,0,18,0,,,,,,smallash,nw,h,lower,,,,,,,4,nw,LoDemTar,h,1,1.5297967681399314,,,,,,,,,,,,,,,,,,,334,2023-11-17_13h24.41.829,leap3,2022.2.5,59.56244725059733,
,,,,,,,,,,,,,,,,,,,,9,0,9,0,19,0,19,0,,,,,,typical,w,g,lower,,,,,,,4,w,LoDemTar,g,1,0.6992716278182343,,,,,,,,,,,,,,,,,,,334,2023-11-17_13h24.41.829,leap3,2022.2.5,59.56244725059733,
,,,,,,,,,,,,,,,,,,,,9,0,9,0,20,0,20,0,,,,,,intended,w,g,lower,,,,,,,4,w,LoDemTar,g,1,0.6054665149713401,,,,,,,,,,,,,,,,,,,334,2023-11-17_13h24.41.829,leap3,2022.2.5,59.56244725059733,
,,,,,,,,,,,,,,,,,,,,9,0,9,0,21,0,21,0,,,,,,latpin,nw,h,lower,,,,,,,4,nw,LoDemTar,h,1,0.8280407384445425,,,,,,,,,,,,,,,,,,,334,2023-11-17_13h24.41.829,leap3,2022.2.5,59.56244725059733,
,,,,,,,,,,,,,,,,,,,,9,0,9,0,22,0,22,0,,,,,,glocked,nw,h,lower,,,,,,,4,nw,LoDemTar,h,1,0.8094703461247263,,,,,,,,,,,,,,,,,,,334,2023-11-17_13h24.41.829,leap3,2022.2.5,59.56244725059733,
,,,,,,,,,,,,,,,,,,,,9,0,9,0,23,0,23,0,,,,,,giraffe,target,q,lower,,,,,,,4,target,LoDemTar,g,0,0.6235131541616283,,,,,,,,,,,,,,,,,,,334,2023-11-17_13h24.41.829,leap3,2022.2.5,59.56244725059733,
,,,,,,,,,,,,,,,,,,,,9,0,9,0,24,0,24,0,,,,,,rillains,nw,h,lower,,,,,,,4,aftertar1,LoDemTar,h,1,1.9969855546514736,,,,,,,,,,,,,,,,,,,334,2023-11-17_13h24.41.829,leap3,2022.2.5,59.56244725059733,
,,,,,,,,,,,,,,,,,,,,9,0,9,0,25,0,25,0,,,,,,sprea,nw,h,lower,,,,,,,4,aftertar2,LoDemTar,h,1,0.5706610998604447,,,,,,,,,,,,,,,,,,,334,2023-11-17_13h24.41.829,leap3,2022.2.5,59.56244725059733,
,,,,,,,,,,,,,,,,,,,,9,0,9,0,26,0,26,0,,,,,,chappef,nw,h,lower,,,,,,,4,aftertar3,LoDemTar,h,1,0.6739536927925656,,,,,,,,,,,,,,,,,,,334,2023-11-17_13h24.41.829,leap3,2022.2.5,59.56244725059733,
,,,,,,,,,,,,,,,,,,,,9,0,9,0,27,0,27,0,,,,,,loneliest,w,g,lower,,,,,,,4,nw,LoDemTar,g,1,3.0134721908398205,,,,,,,,,,,,,,,,,,,334,2023-11-17_13h24.41.829,leap3,2022.2.5,59.56244725059733,
,,,,,,,,,,,,,,,,,,,,9,0,9,0,28,0,28,0,,,,,,trallion,nw,h,lower,,,,,,,4,w,LoDemTar,h,1,2.0755203834123677,,,,,,,,,,,,,,,,,,,334,2023-11-17_13h24.41.829,leap3,2022.2.5,59.56244725059733,
,,,,,,,,,,,,,,,,,,,,9,0,9,0,29,0,29,0,,,,,,rocket,w,g,lower,,,,,,,4,nw,LoDemTar,g,1,0.7029610746540129,,,,,,,,,,,,,,,,,,,334,2023-11-17_13h24.41.829,leap3,2022.2.5,59.56244725059733,
,,,,,,,,,,,,,,,,,,,,9,0,9,0,,,,,,,,,,,,,,,,,,,,,,,,,,0,,,,,,,,,,,,,,,,,,334,2023-11-17_13h24.41.829,leap3,2022.2.5,59.56244725059733,
,,,,,,,,,,,,,,,,,,,,10,0,10,0,0,0,0,0,,,,,,cherry,w,g,lower,,,,,,,3,w,LoDemNoTar,g,1,0.5849739287805278,,,,,,,,,,,,,,,,,,,334,2023-11-17_13h24.41.829,leap3,2022.2.5,59.56244725059733,
,,,,,,,,,,,,,,,,,,,,10,0,10,0,1,0,1,0,,,,,,moozy,nw,h,lower,,,,,,,3,nw,LoDemNoTar,h,1,1.4325687200034736,,,,,,,,,,,,,,,,,,,334,2023-11-17_13h24.41.829,leap3,2022.2.5,59.56244725059733,
,,,,,,,,,,,,,,,,,,,,10,0,10,0,2,0,2,0,,,,,,quittint,nw,h,lower,,,,,,,3,nw,LoDemNoTar,h,1,0.9659639413875993,,,,,,,,,,,,,,,,,,,334,2023-11-17_13h24.41.829,leap3,2022.2.5,59.56244725059733,
,,,,,,,,,,,,,,,,,,,,10,0,10,0,3,0,3,0,,,,,,butcher,w,g,lower,,,,,,,3,w,LoDemNoTar,g,1,0.7736836387775838,,,,,,,,,,,,,,,,,,,334,2023-11-17_13h24.41.829,leap3,2022.2.5,59.56244725059733,
,,,,,,,,,,,,,,,,,,,,10,0,10,0,4,0,4,0,,,,,,havel,nw,h,lower,,,,,,,3,nw,LoDemNoTar,g,0,1.2769640483456897,,,,,,,,,,,,,,,,,,,334,2023-11-17_13h24.41.829,leap3,2022.2.5,59.56244725059733,
,,,,,,,,,,,,,,,,,,,,10,0,10,0,5,0,5,0,,,,,,surface,w,g,lower,,,,,,,3,w,LoDemNoTar,g,1,0.5760688012815081,,,,,,,,,,,,,,,,,,,334,2023-11-17_13h24.41.829,leap3,2022.2.5,59.56244725059733,
,,,,,,,,,,,,,,,,,,,,10,0,10,0,6,0,6,0,,,,,,miteous,nw,h,lower,,,,,,,3,nw,LoDemNoTar,h,1,1.0142568273149664,,,,,,,,,,,,,,,,,,,334,2023-11-17_13h24.41.829,leap3,2022.2.5,59.56244725059733,
,,,,,,,,,,,,,,,,,,,,10,0,10,0,7,0,7,0,,,,,,vaporize,w,g,lower,,,,,,,3,w,LoDemNoTar,g,1,0.7722295782587025,,,,,,,,,,,,,,,,,,,334,2023-11-17_13h24.41.829,leap3,2022.2.5,59.56244725059733,
,,,,,,,,,,,,,,,,,,,,10,0,10,0,8,0,8,0,,,,,,amaze,w,g,lower,,,,,,,3,w,LoDemNoTar,g,1,0.5947663245606236,,,,,,,,,,,,,,,,,,,334,2023-11-17_13h24.41.829,leap3,2022.2.5,59.56244725059733,
,,,,,,,,,,,,,,,,,,,,10,0,10,0,9,0,9,0,,,,,,arrival,w,g,lower,,,,,,,3,w,LoDemNoTar,g,1,0.6103756246011471,,,,,,,,,,,,,,,,,,,334,2023-11-17_13h24.41.829,leap3,2022.2.5,59.56244725059733,
,,,,,,,,,,,,,,,,,,,,10,0,10,0,10,0,10,0,,,,,,lasprey,nw,h,lower,,,,,,,3,nw,LoDemNoTar,h,1,0.9366370767384069,,,,,,,,,,,,,,,,,,,334,2023-11-17_13h24.41.829,leap3,2022.2.5,59.56244725059733,
,,,,,,,,,,,,,,,,,,,,10,0,10,0,11,0,11,0,,,,,,plymie,nw,h,lower,,,,,,,3,nw,LoDemNoTar,h,1,0.6899682227958692,,,,,,,,,,,,,,,,,,,334,2023-11-17_13h24.41.829,leap3,2022.2.5,59.56244725059733,
,,,,,,,,,,,,,,,,,,,,10,0,10,0,12,0,12,0,,,,,,recipus,nw,h,lower,,,,,,,3,nw,LoDemNoTar,h,1,1.724681931460509,,,,,,,,,,,,,,,,,,,334,2023-11-17_13h24.41.829,leap3,2022.2.5,59.56244725059733,
,,,,,,,,,,,,,,,,,,,,10,0,10,0,13,0,13,0,,,,,,single,w,g,lower,,,,,,,3,w,LoDemNoTar,g,1,0.4861809115973301,,,,,,,,,,,,,,,,,,,334,2023-11-17_13h24.41.829,leap3,2022.2.5,59.56244725059733,
,,,,,,,,,,,,,,,,,,,,10,0,10,0,14,0,14,0,,,,,,cobalt,w,g,lower,,,,,,,3,w,LoDemNoTar,g,1,0.6888985348196002,,,,,,,,,,,,,,,,,,,334,2023-11-17_13h24.41.829,leap3,2022.2.5,59.56244725059733,
,,,,,,,,,,,,,,,,,,,,10,0,10,0,15,0,15,0,,,,,,huffle,nw,h,lower,,,,,,,3,nw,LoDemNoTar,g,0,0.6026600324839819,,,,,,,,,,,,,,,,,,,334,2023-11-17_13h24.41.829,leap3,2022.2.5,59.56244725059733,
,,,,,,,,,,,,,,,,,,,,10,0,10,0,16,0,16,0,,,,,,disperse,w,g,lower,,,,,,,3,w,LoDemNoTar,g,1,0.648745342012262,,,,,,,,,,,,,,,,,,,334,2023-11-17_13h24.41.829,leap3,2022.2.5,59.56244725059733,
,,,,,,,,,,,,,,,,,,,,10,0,10,0,17,0,17,0,,,,,,hutting,nw,h,lower,,,,,,,3,nw,LoDemNoTar,g,0,0.4214454218163155,,,,,,,,,,,,,,,,,,,334,2023-11-17_13h24.41.829,leap3,2022.2.5,59.56244725059733,
,,,,,,,,,,,,,,,,,,,,10,0,10,0,18,0,18,0,,,,,,legalosm,nw,h,lower,,,,,,,3,nw,LoDemNoTar,h,1,0.7548692476993892,,,,,,,,,,,,,,,,,,,334,2023-11-17_13h24.41.829,leap3,2022.2.5,59.56244725059733,
,,,,,,,,,,,,,,,,,,,,10,0,10,0,19,0,19,0,,,,,,usage,w,g,lower,,,,,,,3,w,LoDemNoTar,g,1,0.6349906974937767,,,,,,,,,,,,,,,,,,,334,2023-11-17_13h24.41.829,leap3,2022.2.5,59.56244725059733,
,,,,,,,,,,,,,,,,,,,,10,0,10,0,20,0,20,0,,,,,,manage,w,g,lower,,,,,,,3,w,LoDemNoTar,g,1,0.5123566496331478,,,,,,,,,,,,,,,,,,,334,2023-11-17_13h24.41.829,leap3,2022.2.5,59.56244725059733,
,,,,,,,,,,,,,,,,,,,,10,0,10,0,21,0,21,0,,,,,,facienda,nw,h,lower,,,,,,,3,nw,LoDemNoTar,h,1,0.7544186610903125,,,,,,,,,,,,,,,,,,,334,2023-11-17_13h24.41.829,leap3,2022.2.5,59.56244725059733,
,,,,,,,,,,,,,,,,,,,,10,0,10,0,22,0,22,0,,,,,,nameplate,w,g,lower,,,,,,,3,w,LoDemNoTar,h,0,1.6664844169281423,,,,,,,,,,,,,,,,,,,334,2023-11-17_13h24.41.829,leap3,2022.2.5,59.56244725059733,
,,,,,,,,,,,,,,,,,,,,10,0,10,0,23,0,23,0,,,,,,volder,nw,h,lower,,,,,,,3,nw,LoDemNoTar,g,0,1.1976151178387227,,,,,,,,,,,,,,,,,,,334,2023-11-17_13h24.41.829,leap3,2022.2.5,59.56244725059733,
,,,,,,,,,,,,,,,,,,,,10,0,10,0,24,0,24,0,,,,,,postal,w,g,lower,,,,,,,3,w,LoDemNoTar,g,1,0.612368667483679,,,,,,,,,,,,,,,,,,,334,2023-11-17_13h24.41.829,leap3,2022.2.5,59.56244725059733,
,,,,,,,,,,,,,,,,,,,,10,0,10,0,25,0,25,0,,,,,,jungle,w,g,lower,,,,,,,3,w,LoDemNoTar,g,1,0.5224734942603391,,,,,,,,,,,,,,,,,,,334,2023-11-17_13h24.41.829,leap3,2022.2.5,59.56244725059733,
,,,,,,,,,,,,,,,,,,,,10,0,10,0,26,0,26,0,,,,,,pillage,w,g,lower,,,,,,,3,w,LoDemNoTar,g,1,0.4838697101949947,,,,,,,,,,,,,,,,,,,334,2023-11-17_13h24.41.829,leap3,2022.2.5,59.56244725059733,
,,,,,,,,,,,,,,,,,,,,10,0,10,0,27,0,27,0,,,,,,cills,nw,h,lower,,,,,,,3,nw,LoDemNoTar,h,1,0.8952427015465219,,,,,,,,,,,,,,,,,,,334,2023-11-17_13h24.41.829,leap3,2022.2.5,59.56244725059733,
,,,,,,,,,,,,,,,,,,,,10,0,10,0,28,0,28,0,,,,,,bluads,nw,h,lower,,,,,,,3,nw,LoDemNoTar,h,1,0.8500327417568769,,,,,,,,,,,,,,,,,,,334,2023-11-17_13h24.41.829,leap3,2022.2.5,59.56244725059733,
,,,,,,,,,,,,,,,,,,,,10,0,10,0,29,0,29,0,,,,,,doxing,nw,h,lower,,,,,,,3,nw,LoDemNoTar,h,1,0.6787224286381388,,,,,,,,,,,,,,,,,,,334,2023-11-17_13h24.41.829,leap3,2022.2.5,59.56244725059733,
,,,,,,,,,,,,,,,,,,,,10,0,10,0,,,,,,,,,,,,,,,,,,,,,,,,,,NA,,,,,,,,,,,,,,,,,,334,2023-11-17_13h24.41.829,leap3,2022.2.5,59.56244725059733,
,,,,,,,,,,,,,,,,,,,,11,0,11,0,0,0,0,0,,,,,,stretches,w,g,lower,,,,,,,3,w,LoDemNoTar,g,1,0.562095319328364,,,,,,,,,,,,,,,,,,,334,2023-11-17_13h24.41.829,leap3,2022.2.5,59.56244725059733,
,,,,,,,,,,,,,,,,,,,,11,0,11,0,1,0,1,0,,,,,,churnad,nw,h,lower,,,,,,,3,nw,LoDemNoTar,h,1,0.641868681894266,,,,,,,,,,,,,,,,,,,334,2023-11-17_13h24.41.829,leap3,2022.2.5,59.56244725059733,
,,,,,,,,,,,,,,,,,,,,11,0,11,0,2,0,2,0,,,,,,envelop,w,g,lower,,,,,,,3,w,LoDemNoTar,g,1,0.646948292691377,,,,,,,,,,,,,,,,,,,334,2023-11-17_13h24.41.829,leap3,2022.2.5,59.56244725059733,
,,,,,,,,,,,,,,,,,,,,11,0,11,0,3,0,3,0,,,,,,cutout,w,g,lower,,,,,,,3,w,LoDemNoTar,g,1,0.555612963886233,,,,,,,,,,,,,,,,,,,334,2023-11-17_13h24.41.829,leap3,2022.2.5,59.56244725059733,
,,,,,,,,,,,,,,,,,,,,11,0,11,0,4,0,4,0,,,,,,become,w,g,lower,,,,,,,3,w,LoDemNoTar,g,1,0.48369060119148344,,,,,,,,,,,,,,,,,,,334,2023-11-17_13h24.41.829,leap3,2022.2.5,59.56244725059733,
,,,,,,,,,,,,,,,,,,,,11,0,11,0,5,0,5,0,,,,,,passet,nw,h,lower,,,,,,,3,nw,LoDemNoTar,h,1,0.7751823937869631,,,,,,,,,,,,,,,,,,,334,2023-11-17_13h24.41.829,leap3,2022.2.5,59.56244725059733,
,,,,,,,,,,,,,,,,,,,,11,0,11,0,6,0,6,0,,,,,,talent,w,g,lower,,,,,,,3,w,LoDemNoTar,g,1,0.606590829542256,,,,,,,,,,,,,,,,,,,334,2023-11-17_13h24.41.829,leap3,2022.2.5,59.56244725059733,
,,,,,,,,,,,,,,,,,,,,11,0,11,0,7,0,7,0,,,,,,extruded,w,g,lower,,,,,,,3,w,LoDemNoTar,g,1,1.515745484692161,,,,,,,,,,,,,,,,,,,334,2023-11-17_13h24.41.829,leap3,2022.2.5,59.56244725059733,
,,,,,,,,,,,,,,,,,,,,11,0,11,0,8,0,8,0,,,,,,etuip,nw,h,lower,,,,,,,3,nw,LoDemNoTar,h,1,0.6458190120902145,,,,,,,,,,,,,,,,,,,334,2023-11-17_13h24.41.829,leap3,2022.2.5,59.56244725059733,
,,,,,,,,,,,,,,,,,,,,11,0,11,0,9,0,9,0,,,,,,migmarole,nw,h,lower,,,,,,,3,nw,LoDemNoTar,h,1,0.8905663343030028,,,,,,,,,,,,,,,,,,,334,2023-11-17_13h24.41.829,leap3,2022.2.5,59.56244725059733,
,,,,,,,,,,,,,,,,,,,,11,0,11,0,10,0,10,0,,,,,,earmaff,nw,h,lower,,,,,,,3,nw,LoDemNoTar,g,0,1.0452903591212817,,,,,,,,,,,,,,,,,,,334,2023-11-17_13h24.41.829,leap3,2022.2.5,59.56244725059733,
,,,,,,,,,,,,,,,,,,,,11,0,11,0,11,0,11,0,,,,,,arrested,w,g,lower,,,,,,,3,w,LoDemNoTar,g,1,0.6580454363283934,,,,,,,,,,,,,,,,,,,334,2023-11-17_13h24.41.829,leap3,2022.2.5,59.56244725059733,
,,,,,,,,,,,,,,,,,,,,11,0,11,0,12,0,12,0,,,,,,potatoes,w,g,lower,,,,,,,3,w,LoDemNoTar,g,1,0.5980217383184936,,,,,,,,,,,,,,,,,,,334,2023-11-17_13h24.41.829,leap3,2022.2.5,59.56244725059733,
,,,,,,,,,,,,,,,,,,,,11,0,11,0,13,0,13,0,,,,,,earterner,nw,h,lower,,,,,,,3,nw,LoDemNoTar,g,0,1.6928558174986392,,,,,,,,,,,,,,,,,,,334,2023-11-17_13h24.41.829,leap3,2022.2.5,59.56244725059733,
,,,,,,,,,,,,,,,,,,,,11,0,11,0,14,0,14,0,,,,,,vintnel,nw,h,lower,,,,,,,3,nw,LoDemNoTar,h,1,2.1427547914063325,,,,,,,,,,,,,,,,,,,334,2023-11-17_13h24.41.829,leap3,2022.2.5,59.56244725059733,
,,,,,,,,,,,,,,,,,,,,11,0,11,0,15,0,15,0,,,,,,submit,w,g,lower,,,,,,,3,w,LoDemNoTar,g,1,0.5273912117263535,,,,,,,,,,,,,,,,,,,334,2023-11-17_13h24.41.829,leap3,2022.2.5,59.56244725059733,
,,,,,,,,,,,,,,,,,,,,11,0,11,0,16,0,16,0,,,,,,sodent,nw,h,lower,,,,,,,3,nw,LoDemNoTar,g,0,1.8488743269699626,,,,,,,,,,,,,,,,,,,334,2023-11-17_13h24.41.829,leap3,2022.2.5,59.56244725059733,
,,,,,,,,,,,,,,,,,,,,11,0,11,0,17,0,17,0,,,,,,anterior,w,g,lower,,,,,,,3,w,LoDemNoTar,h,0,3.325725398652139,,,,,,,,,,,,,,,,,,,334,2023-11-17_13h24.41.829,leap3,2022.2.5,59.56244725059733,
,,,,,,,,,,,,,,,,,,,,11,0,11,0,18,0,18,0,,,,,,newstrint,nw,h,lower,,,,,,,3,nw,LoDemNoTar,h,1,3.199289340074756,,,,,,,,,,,,,,,,,,,334,2023-11-17_13h24.41.829,leap3,2022.2.5,59.56244725059733,
,,,,,,,,,,,,,,,,,,,,11,0,11,0,19,0,19,0,,,,,,reloant,nw,h,lower,,,,,,,3,nw,LoDemNoTar,g,0,1.3179270389809972,,,,,,,,,,,,,,,,,,,334,2023-11-17_13h24.41.829,leap3,2022.2.5,59.56244725059733,
,,,,,,,,,,,,,,,,,,,,11,0,11,0,20,0,20,0,,,,,,terrify,w,g,lower,,,,,,,3,w,LoDemNoTar,g,1,0.6069755331554916,,,,,,,,,,,,,,,,,,,334,2023-11-17_13h24.41.829,leap3,2022.2.5,59.56244725059733,
,,,,,,,,,,,,,,,,,,,,11,0,11,0,21,0,21,0,,,,,,bother,w,g,lower,,,,,,,3,w,LoDemNoTar,g,1,0.5409710511303274,,,,,,,,,,,,,,,,,,,334,2023-11-17_13h24.41.829,leap3,2022.2.5,59.56244725059733,
,,,,,,,,,,,,,,,,,,,,11,0,11,0,22,0,22,0,,,,,,gestalion,nw,h,lower,,,,,,,3,nw,LoDemNoTar,h,1,1.7096265119471354,,,,,,,,,,,,,,,,,,,334,2023-11-17_13h24.41.829,leap3,2022.2.5,59.56244725059733,
,,,,,,,,,,,,,,,,,,,,11,0,11,0,23,0,23,0,,,,,,susher,nw,h,lower,,,,,,,3,nw,LoDemNoTar,h,1,2.992051283683395,,,,,,,,,,,,,,,,,,,334,2023-11-17_13h24.41.829,leap3,2022.2.5,59.56244725059733,
,,,,,,,,,,,,,,,,,,,,11,0,11,0,24,0,24,0,,,,,,cartles,nw,h,lower,,,,,,,3,nw,LoDemNoTar,g,0,0.8227171288599493,,,,,,,,,,,,,,,,,,,334,2023-11-17_13h24.41.829,leap3,2022.2.5,59.56244725059733,
,,,,,,,,,,,,,,,,,,,,11,0,11,0,25,0,25,0,,,,,,ethical,w,g,lower,,,,,,,3,w,LoDemNoTar,g,1,0.5881952423078474,,,,,,,,,,,,,,,,,,,334,2023-11-17_13h24.41.829,leap3,2022.2.5,59.56244725059733,
,,,,,,,,,,,,,,,,,,,,11,0,11,0,26,0,26,0,,,,,,statute,w,g,lower,,,,,,,3,w,LoDemNoTar,g,1,0.5229426207952201,,,,,,,,,,,,,,,,,,,334,2023-11-17_13h24.41.829,leap3,2022.2.5,59.56244725059733,
,,,,,,,,,,,,,,,,,,,,11,0,11,0,27,0,27,0,,,,,,tracing,w,g,lower,,,,,,,3,w,LoDemNoTar,g,1,0.4752992947032908,,,,,,,,,,,,,,,,,,,334,2023-11-17_13h24.41.829,leap3,2022.2.5,59.56244725059733,
,,,,,,,,,,,,,,,,,,,,11,0,11,0,28,0,28,0,,,,,,esdings,nw,h,lower,,,,,,,3,nw,LoDemNoTar,h,1,0.6547363892022986,,,,,,,,,,,,,,,,,,,334,2023-11-17_13h24.41.829,leap3,2022.2.5,59.56244725059733,
,,,,,,,,,,,,,,,,,,,,11,0,11,0,29,0,29,0,,,,,,bentler,nw,h,lower,,,,,,,3,nw,LoDemNoTar,g,0,1.5388429315789836,,,,,,,,,,,,,,,,,,,334,2023-11-17_13h24.41.829,leap3,2022.2.5,59.56244725059733,
,,,,,,,,,,,,,,,,,,,,11,0,11,0,,,,,,,,,,,,,,,,,,,,,,,,,,NA,,,,,,,,,,,,,,,,,,334,2023-11-17_13h24.41.829,leap3,2022.2.5,59.56244725059733,
,,,,,,,,,,,,,,,,,,,,12,0,12,0,0,0,0,0,,,,,,visible,w,g,upper,,,,,,,1,w,HiDemTar,g,1,1.6126156458922196,,,,,,,,,,,,,,,,,,,334,2023-11-17_13h24.41.829,leap3,2022.2.5,59.56244725059733,
,,,,,,,,,,,,,,,,,,,,12,0,12,0,1,0,1,0,,,,,,kiner,nw,h,upper,,,,,,,1,nw,HiDemTar,h,1,1.0896650286740623,,,,,,,,,,,,,,,,,,,334,2023-11-17_13h24.41.829,leap3,2022.2.5,59.56244725059733,
,,,,,,,,,,,,,,,,,,,,12,0,12,0,2,0,2,0,,,,,,rander,nw,h,upper,,,,,,,1,nw,HiDemTar,g,0,0.6204255930351792,,,,,,,,,,,,,,,,,,,334,2023-11-17_13h24.41.829,leap3,2022.2.5,59.56244725059733,
,,,,,,,,,,,,,,,,,,,,12,0,12,0,3,0,3,0,,,,,,assent,w,g,upper,,,,,,,1,w,HiDemTar,g,1,0.5298778803553432,,,,,,,,,,,,,,,,,,,334,2023-11-17_13h24.41.829,leap3,2022.2.5,59.56244725059733,
,,,,,,,,,,,,,,,,,,,,12,0,12,0,4,0,4,0,,,,,,sequence,w,g,upper,,,,,,,1,w,HiDemTar,g,1,0.5872288482496515,,,,,,,,,,,,,,,,,,,334,2023-11-17_13h24.41.829,leap3,2022.2.5,59.56244725059733,
,,,,,,,,,,,,,,,,,,,,12,0,12,0,5,0,5,0,,,,,,exit,w,g,upper,,,,,,,1,w,HiDemTar,g,1,0.43398073459684383,,,,,,,,,,,,,,,,,,,334,2023-11-17_13h24.41.829,leap3,2022.2.5,59.56244725059733,
,,,,,,,,,,,,,,,,,,,,12,0,12,0,6,0,6,0,,,,,,preserve,w,g,upper,,,,,,,1,w,HiDemTar,g,1,0.49476523204066325,,,,,,,,,,,,,,,,,,,334,2023-11-17_13h24.41.829,leap3,2022.2.5,59.56244725059733,
,,,,,,,,,,,,,,,,,,,,12,0,12,0,7,0,7,0,,,,,,fomes,nw,h,upper,,,,,,,1,nw,HiDemTar,g,0,0.5774755187594565,,,,,,,,,,,,,,,,,,,334,2023-11-17_13h24.41.829,leap3,2022.2.5,59.56244725059733,
,,,,,,,,,,,,,,,,,,,,12,0,12,0,8,0,8,0,,,,,,unburnid,nw,h,upper,,,,,,,1,nw,HiDemTar,h,1,1.3128984129871242,,,,,,,,,,,,,,,,,,,334,2023-11-17_13h24.41.829,leap3,2022.2.5,59.56244725059733,
,,,,,,,,,,,,,,,,,,,,12,0,12,0,9,0,9,0,,,,,,rarely,w,g,upper,,,,,,,1,w,HiDemTar,g,1,0.4830234946421115,,,,,,,,,,,,,,,,,,,334,2023-11-17_13h24.41.829,leap3,2022.2.5,59.56244725059733,
,,,,,,,,,,,,,,,,,,,,12,0,12,0,10,0,10,0,,,,,,maunches,nw,h,upper,,,,,,,1,nw,HiDemTar,h,1,0.8772735327947885,,,,,,,,,,,,,,,,,,,334,2023-11-17_13h24.41.829,leap3,2022.2.5,59.56244725059733,
,,,,,,,,,,,,,,,,,,,,12,0,12,0,11,0,11,0,,,,,,abhorrent,w,g,upper,,,,,,,1,w,HiDemTar,h,0,1.264720408449648,,,,,,,,,,,,,,,,,,,334,2023-11-17_13h24.41.829,leap3,2022.2.5,59.56244725059733,
,,,,,,,,,,,,,,,,,,,,12,0,12,0,12,0,12,0,,,,,,computer,w,g,upper,,,,,,,1,w,HiDemTar,g,1,0.5009870351932477,,,,,,,,,,,,,,,,,,,334,2023-11-17_13h24.41.829,leap3,2022.2.5,59.56244725059733,
,,,,,,,,,,,,,,,,,,,,12,0,12,0,13,0,13,0,,,,,,recollect,w,g,upper,,,,,,,1,w,HiDemTar,g,1,0.5263595968281152,,,,,,,,,,,,,,,,,,,334,2023-11-17_13h24.41.829,leap3,2022.2.5,59.56244725059733,
,,,,,,,,,,,,,,,,,,,,12,0,12,0,14,0,14,0,,,,,,erlighten,nw,h,upper,,,,,,,1,nw,HiDemTar,h,1,1.5607895782886771,,,,,,,,,,,,,,,,,,,334,2023-11-17_13h24.41.829,leap3,2022.2.5,59.56244725059733,
,,,,,,,,,,,,,,,,,,,,12,0,12,0,15,0,15,0,,,,,,pimorous,nw,h,upper,,,,,,,1,nw,HiDemTar,g,0,1.9530959030234953,,,,,,,,,,,,,,,,,,,334,2023-11-17_13h24.41.829,leap3,2022.2.5,59.56244725059733,
,,,,,,,,,,,,,,,,,,,,12,0,12,0,16,0,16,0,,,,,,alticles,nw,h,upper,,,,,,,1,nw,HiDemTar,h,1,0.9772352279687766,,,,,,,,,,,,,,,,,,,334,2023-11-17_13h24.41.829,leap3,2022.2.5,59.56244725059733,
,,,,,,,,,,,,,,,,,,,,12,0,12,0,17,0,17,0,,,,,,dealer,w,g,upper,,,,,,,1,w,HiDemTar,g,1,0.6158253719477216,,,,,,,,,,,,,,,,,,,334,2023-11-17_13h24.41.829,leap3,2022.2.5,59.56244725059733,
,,,,,,,,,,,,,,,,,,,,12,0,12,0,18,0,18,0,,,,,,elpired,nw,h,upper,,,,,,,1,nw,HiDemTar,h,1,0.9817973759782035,,,,,,,,,,,,,,,,,,,334,2023-11-17_13h24.41.829,leap3,2022.2.5,59.56244725059733,
,,,,,,,,,,,,,,,,,,,,12,0,12,0,19,0,19,0,,,,,,rabbit,target,q,upper,,,,,,,1,target,HiDemTar,g,0,0.5652067175251432,,,,,,,,,,,,,,,,,,,334,2023-11-17_13h24.41.829,leap3,2022.2.5,59.56244725059733,
,,,,,,,,,,,,,,,,,,,,12,0,12,0,20,0,20,0,,,,,,uncle,w,g,upper,,,,,,,1,aftertar1,HiDemTar,g,1,0.4612788007943891,,,,,,,,,,,,,,,,,,,334,2023-11-17_13h24.41.829,leap3,2022.2.5,59.56244725059733,
,,,,,,,,,,,,,,,,,,,,12,0,12,0,21,0,21,0,,,,,,tiery,nw,h,upper,,,,,,,1,aftertar2,HiDemTar,h,1,0.7533499663259136,,,,,,,,,,,,,,,,,,,334,2023-11-17_13h24.41.829,leap3,2022.2.5,59.56244725059733,
,,,,,,,,,,,,,,,,,,,,12,0,12,0,22,0,22,0,,,,,,stooping,w,g,upper,,,,,,,1,aftertar3,HiDemTar,g,1,0.6974222694261698,,,,,,,,,,,,,,,,,,,334,2023-11-17_13h24.41.829,leap3,2022.2.5,59.56244725059733,
,,,,,,,,,,,,,,,,,,,,12,0,12,0,23,0,23,0,,,,,,paying,w,g,upper,,,,,,,1,w,HiDemTar,g,1,0.5961584749747999,,,,,,,,,,,,,,,,,,,334,2023-11-17_13h24.41.829,leap3,2022.2.5,59.56244725059733,
,,,,,,,,,,,,,,,,,,,,12,0,12,0,24,0,24,0,,,,,,cemoir,nw,h,upper,,,,,,,1,w,HiDemTar,h,1,0.9389075564831728,,,,,,,,,,,,,,,,,,,334,2023-11-17_13h24.41.829,leap3,2022.2.5,59.56244725059733,
,,,,,,,,,,,,,,,,,,,,12,0,12,0,25,0,25,0,,,,,,burning,w,g,upper,,,,,,,1,nw,HiDemTar,g,1,0.6276594779337756,,,,,,,,,,,,,,,,,,,334,2023-11-17_13h24.41.829,leap3,2022.2.5,59.56244725059733,
,,,,,,,,,,,,,,,,,,,,12,0,12,0,26,0,26,0,,,,,,alomalous,nw,h,upper,,,,,,,1,w,HiDemTar,h,1,2.7122383251262363,,,,,,,,,,,,,,,,,,,334,2023-11-17_13h24.41.829,leap3,2022.2.5,59.56244725059733,
,,,,,,,,,,,,,,,,,,,,12,0,12,0,27,0,27,0,,,,,,sefine,nw,h,upper,,,,,,,1,nw,HiDemTar,g,0,0.7862182894168654,,,,,,,,,,,,,,,,,,,334,2023-11-17_13h24.41.829,leap3,2022.2.5,59.56244725059733,
,,,,,,,,,,,,,,,,,,,,12,0,12,0,28,0,28,0,,,,,,bloves,nw,h,upper,,,,,,,1,nw,HiDemTar,h,1,0.9849842581897974,,,,,,,,,,,,,,,,,,,334,2023-11-17_13h24.41.829,leap3,2022.2.5,59.56244725059733,
,,,,,,,,,,,,,,,,,,,,12,0,12,0,29,0,29,0,,,,,,inside,w,g,upper,,,,,,,1,nw,HiDemTar,g,1,0.5603634908620734,,,,,,,,,,,,,,,,,,,334,2023-11-17_13h24.41.829,leap3,2022.2.5,59.56244725059733,
,,,,,,,,,,,,,,,,,,,,12,0,12,0,,,,,,,,,,,,,,,,,,,,,,,,,,0,,,,,,,,,,,,,,,,,,334,2023-11-17_13h24.41.829,leap3,2022.2.5,59.56244725059733,
,,,,,,,,,,,,,,,,,,,,13,0,13,0,0,0,0,0,,,,,,seartfelt,nw,h,upper,,,,,,,1,nw,HiDemTar,h,1,1.5204029809247004,,,,,,,,,,,,,,,,,,,334,2023-11-17_13h24.41.829,leap3,2022.2.5,59.56244725059733,
,,,,,,,,,,,,,,,,,,,,13,0,13,0,1,0,1,0,,,,,,splum,nw,h,upper,,,,,,,1,nw,HiDemTar,h,1,0.8338341366907116,,,,,,,,,,,,,,,,,,,334,2023-11-17_13h24.41.829,leap3,2022.2.5,59.56244725059733,
,,,,,,,,,,,,,,,,,,,,13,0,13,0,2,0,2,0,,,,,,plunging,w,g,upper,,,,,,,1,w,HiDemTar,g,1,1.0785400751337875,,,,,,,,,,,,,,,,,,,334,2023-11-17_13h24.41.829,leap3,2022.2.5,59.56244725059733,
,,,,,,,,,,,,,,,,,,,,13,0,13,0,3,0,3,0,,,,,,crazy,w,g,upper,,,,,,,1,w,HiDemTar,g,1,0.577252377406694,,,,,,,,,,,,,,,,,,,334,2023-11-17_13h24.41.829,leap3,2022.2.5,59.56244725059733,
,,,,,,,,,,,,,,,,,,,,13,0,13,0,4,0,4,0,,,,,,satisfies,w,g,upper,,,,,,,1,w,HiDemTar,g,1,0.5610729744075797,,,,,,,,,,,,,,,,,,,334,2023-11-17_13h24.41.829,leap3,2022.2.5,59.56244725059733,
,,,,,,,,,,,,,,,,,,,,13,0,13,0,5,0,5,0,,,,,,befin,nw,h,upper,,,,,,,1,nw,HiDemTar,h,1,0.7615793794539059,,,,,,,,,,,,,,,,,,,334,2023-11-17_13h24.41.829,leap3,2022.2.5,59.56244725059733,
,,,,,,,,,,,,,,,,,,,,13,0,13,0,6,0,6,0,,,,,,rebool,nw,h,upper,,,,,,,1,nw,HiDemTar,h,1,0.7375989682332147,,,,,,,,,,,,,,,,,,,334,2023-11-17_13h24.41.829,leap3,2022.2.5,59.56244725059733,
,,,,,,,,,,,,,,,,,,,,13,0,13,0,7,0,7,0,,,,,,eightiech,nw,h,upper,,,,,,,1,nw,HiDemTar,h,1,0.882338245442952,,,,,,,,,,,,,,,,,,,334,2023-11-17_13h24.41.829,leap3,2022.2.5,59.56244725059733,
,,,,,,,,,,,,,,,,,,,,13,0,13,0,8,0,8,0,,,,,,deadly,w,g,upper,,,,,,,1,w,HiDemTar,g,1,0.6607473006151849,,,,,,,,,,,,,,,,,,,334,2023-11-17_13h24.41.829,leap3,2022.2.5,59.56244725059733,
,,,,,,,,,,,,,,,,,,,,13,0,13,0,9,0,9,0,,,,,,wrestle,w,g,upper,,,,,,,1,w,HiDemTar,g,1,0.5368614761537174,,,,,,,,,,,,,,,,,,,334,2023-11-17_13h24.41.829,leap3,2022.2.5,59.56244725059733,
,,,,,,,,,,,,,,,,,,,,13,0,13,0,10,0,10,0,,,,,,pollute,w,g,upper,,,,,,,1,w,HiDemTar,h,0,0.6496286374167539,,,,,,,,,,,,,,,,,,,334,2023-11-17_13h24.41.829,leap3,2022.2.5,59.56244725059733,
,,,,,,,,,,,,,,,,,,,,13,0,13,0,11,0,11,0,,,,,,subpoena,w,g,upper,,,,,,,1,w,HiDemTar,h,0,1.270355886197649,,,,,,,,,,,,,,,,,,,334,2023-11-17_13h24.41.829,leap3,2022.2.5,59.56244725059733,
,,,,,,,,,,,,,,,,,,,,13,0,13,0,12,0,12,0,,,,,,confined,w,g,upper,,,,,,,1,w,HiDemTar,g,1,0.6417571112106089,,,,,,,,,,,,,,,,,,,334,2023-11-17_13h24.41.829,leap3,2022.2.5,59.56244725059733,
,,,,,,,,,,,,,,,,,,,,13,0,13,0,13,0,13,0,,,,,,acting,w,g,upper,,,,,,,1,w,HiDemTar,g,1,0.4545034481852781,,,,,,,,,,,,,,,,,,,334,2023-11-17_13h24.41.829,leap3,2022.2.5,59.56244725059733,
,,,,,,,,,,,,,,,,,,,,13,0,13,0,14,0,14,0,,,,,,miability,nw,h,upper,,,,,,,1,nw,HiDemTar,h,1,0.9466059329570271,,,,,,,,,,,,,,,,,,,334,2023-11-17_13h24.41.829,leap3,2022.2.5,59.56244725059733,
,,,,,,,,,,,,,,,,,,,,13,0,13,0,15,0,15,0,,,,,,cavern,w,g,upper,,,,,,,1,w,HiDemTar,g,1,1.0273513177526183,,,,,,,,,,,,,,,,,,,334,2023-11-17_13h24.41.829,leap3,2022.2.5,59.56244725059733,
,,,,,,,,,,,,,,,,,,,,13,0,13,0,16,0,16,0,,,,,,brouhuha,nw,h,upper,,,,,,,1,nw,HiDemTar,h,1,0.5928060576261487,,,,,,,,,,,,,,,,,,,334,2023-11-17_13h24.41.829,leap3,2022.2.5,59.56244725059733,
,,,,,,,,,,,,,,,,,,,,13,0,13,0,17,0,17,0,,,,,,monkey,target,q,upper,,,,,,,1,target,HiDemTar,q,1,1.4865017186530167,,1,,,,,,,,,,,,,,,,,334,2023-11-17_13h24.41.829,leap3,2022.2.5,59.56244725059733,
,,,,,,,,,,,,,,,,,,,,13,0,13,0,18,0,18,0,,,,,,sength,nw,h,upper,,,,,,,1,aftertar1,HiDemTar,h,1,1.5772901194286533,,,,,,,,,,,,,,,,,,,334,2023-11-17_13h24.41.829,leap3,2022.2.5,59.56244725059733,
,,,,,,,,,,,,,,,,,,,,13,0,13,0,19,0,19,0,,,,,,tyena,nw,h,upper,,,,,,,1,aftertar2,HiDemTar,h,1,0.7447272417193744,,,,,,,,,,,,,,,,,,,334,2023-11-17_13h24.41.829,leap3,2022.2.5,59.56244725059733,
,,,,,,,,,,,,,,,,,,,,13,0,13,0,20,0,20,0,,,,,,alarm,w,g,upper,,,,,,,1,aftertar3,HiDemTar,g,1,0.8654596220876556,,,,,,,,,,,,,,,,,,,334,2023-11-17_13h24.41.829,leap3,2022.2.5,59.56244725059733,
,,,,,,,,,,,,,,,,,,,,13,0,13,0,21,0,21,0,,,,,,ludictous,nw,h,upper,,,,,,,1,w,HiDemTar,g,0,1.0775733500049682,,,,,,,,,,,,,,,,,,,334,2023-11-17_13h24.41.829,leap3,2022.2.5,59.56244725059733,
,,,,,,,,,,,,,,,,,,,,13,0,13,0,22,0,22,0,,,,,,yash,nw,h,upper,,,,,,,1,nw,HiDemTar,h,1,0.6970243229734479,,,,,,,,,,,,,,,,,,,334,2023-11-17_13h24.41.829,leap3,2022.2.5,59.56244725059733,
,,,,,,,,,,,,,,,,,,,,13,0,13,0,23,0,23,0,,,,,,huntry,nw,h,upper,,,,,,,1,nw,HiDemTar,g,0,0.571720855703461,,,,,,,,,,,,,,,,,,,334,2023-11-17_13h24.41.829,leap3,2022.2.5,59.56244725059733,
,,,,,,,,,,,,,,,,,,,,13,0,13,0,24,0,24,0,,,,,,bulmed,nw,h,upper,,,,,,,1,nw,HiDemTar,h,1,1.787103240203578,,,,,,,,,,,,,,,,,,,334,2023-11-17_13h24.41.829,leap3,2022.2.5,59.56244725059733,
,,,,,,,,,,,,,,,,,,,,13,0,13,0,25,0,25,0,,,,,,widely,w,g,upper,,,,,,,1,nw,HiDemTar,g,1,0.6408360737987095,,,,,,,,,,,,,,,,,,,334,2023-11-17_13h24.41.829,leap3,2022.2.5,59.56244725059733,
,,,,,,,,,,,,,,,,,,,,13,0,13,0,26,0,26,0,,,,,,batire,nw,h,upper,,,,,,,1,w,HiDemTar,g,0,0.9338858829723904,,,,,,,,,,,,,,,,,,,334,2023-11-17_13h24.41.829,leap3,2022.2.5,59.56244725059733,
,,,,,,,,,,,,,,,,,,,,13,0,13,0,27,0,27,0,,,,,,violate,w,g,upper,,,,,,,1,nw,HiDemTar,g,1,0.46229518645850476,,,,,,,,,,,,,,,,,,,334,2023-11-17_13h24.41.829,leap3,2022.2.5,59.56244725059733,
,,,,,,,,,,,,,,,,,,,,13,0,13,0,28,0,28,0,,,,,,jiggling,w,g,upper,,,,,,,1,w,HiDemTar,g,1,0.9304573194967816,,,,,,,,,,,,,,,,,,,334,2023-11-17_13h24.41.829,leap3,2022.2.5,59.56244725059733,
,,,,,,,,,,,,,,,,,,,,13,0,13,0,29,0,29,0,,,,,,elbalm,nw,h,upper,,,,,,,1,w,HiDemTar,g,0,1.491909420088632,,,,,,,,,,,,,,,,,,,334,2023-11-17_13h24.41.829,leap3,2022.2.5,59.56244725059733,
,,,,,,,,,,,,,,,,,,,,13,0,13,0,,,,,,,,,,,,,,,,,,,,,,,,,,1,,,,,,,,,,,,,,,,,,334,2023-11-17_13h24.41.829,leap3,2022.2.5,59.56244725059733,
,,,,,,,,,,,,,,,,,,,,14,0,14,0,0,0,0,0,,,,,,frowsed,nw,h,upper,,,,,,,1,nw,HiDemTar,h,1,1.2140759305329993,,,,,,,,,,,,,,,,,,,334,2023-11-17_13h24.41.829,leap3,2022.2.5,59.56244725059733,
,,,,,,,,,,,,,,,,,,,,14,0,14,0,1,0,1,0,,,,,,daylight,w,g,upper,,,,,,,1,w,HiDemTar,g,1,0.4840935136890039,,,,,,,,,,,,,,,,,,,334,2023-11-17_13h24.41.829,leap3,2022.2.5,59.56244725059733,
,,,,,,,,,,,,,,,,,,,,14,0,14,0,2,0,2,0,,,,,,martial,w,g,upper,,,,,,,1,w,HiDemTar,g,1,0.6309572686732281,,,,,,,,,,,,,,,,,,,334,2023-11-17_13h24.41.829,leap3,2022.2.5,59.56244725059733,
,,,,,,,,,,,,,,,,,,,,14,0,14,0,3,0,3,0,,,,,,deakers,nw,h,upper,,,,,,,1,nw,HiDemTar,g,0,0.49234080461610574,,,,,,,,,,,,,,,,,,,334,2023-11-17_13h24.41.829,leap3,2022.2.5,59.56244725059733,
,,,,,,,,,,,,,,,,,,,,14,0,14,0,4,0,4,0,,,,,,expounded,w,g,upper,,,,,,,1,w,HiDemTar,g,1,2.2551220198220108,,,,,,,,,,,,,,,,,,,334,2023-11-17_13h24.41.829,leap3,2022.2.5,59.56244725059733,
,,,,,,,,,,,,,,,,,,,,14,0,14,0,5,0,5,0,,,,,,podges,nw,h,upper,,,,,,,1,nw,HiDemTar,g,0,1.738216083162115,,,,,,,,,,,,,,,,,,,334,2023-11-17_13h24.41.829,leap3,2022.2.5,59.56244725059733,
,,,,,,,,,,,,,,,,,,,,14,0,14,0,6,0,6,0,,,,,,veclors,nw,h,upper,,,,,,,1,nw,HiDemTar,q,0,0.01885638626117725,,,,,,,,,,,,,,,,,,,334,2023-11-17_13h24.41.829,leap3,2022.2.5,59.56244725059733,
,,,,,,,,,,,,,,,,,,,,14,0,14,0,7,0,7,0,,,,,,superstar,w,g,upper,,,,,,,1,w,HiDemTar,g,1,0.8483019065024564,,,,,,,,,,,,,,,,,,,334,2023-11-17_13h24.41.829,leap3,2022.2.5,59.56244725059733,
,,,,,,,,,,,,,,,,,,,,14,0,14,0,8,0,8,0,,,,,,shazer,nw,h,upper,,,,,,,1,nw,HiDemTar,h,1,0.973084931349149,,,,,,,,,,,,,,,,,,,334,2023-11-17_13h24.41.829,leap3,2022.2.5,59.56244725059733,
,,,,,,,,,,,,,,,,,,,,14,0,14,0,9,0,9,0,,,,,,budget,w,g,upper,,,,,,,1,w,HiDemTar,g,1,1.2044937643659068,,,,,,,,,,,,,,,,,,,334,2023-11-17_13h24.41.829,leap3,2022.2.5,59.56244725059733,
,,,,,,,,,,,,,,,,,,,,14,0,14,0,10,0,10,0,,,,,,inducing,w,g,upper,,,,,,,1,w,HiDemTar,g,1,0.546560510105337,,,,,,,,,,,,,,,,,,,334,2023-11-17_13h24.41.829,leap3,2022.2.5,59.56244725059733,
,,,,,,,,,,,,,,,,,,,,14,0,14,0,11,0,11,0,,,,,,numbled,nw,h,upper,,,,,,,1,nw,HiDemTar,g,0,0.4993459199904464,,,,,,,,,,,,,,,,,,,334,2023-11-17_13h24.41.829,leap3,2022.2.5,59.56244725059733,
,,,,,,,,,,,,,,,,,,,,14,0,14,0,12,0,12,0,,,,,,booster,w,g,upper,,,,,,,1,w,HiDemTar,g,1,0.566090012944187,,,,,,,,,,,,,,,,,,,334,2023-11-17_13h24.41.829,leap3,2022.2.5,59.56244725059733,
,,,,,,,,,,,,,,,,,,,,14,0,14,0,13,0,13,0,,,,,,aqueduct,w,g,upper,,,,,,,1,w,HiDemTar,g,1,2.41326765564736,,,,,,,,,,,,,,,,,,,334,2023-11-17_13h24.41.829,leap3,2022.2.5,59.56244725059733,
,,,,,,,,,,,,,,,,,,,,14,0,14,0,14,0,14,0,,,,,,tuckel,nw,h,upper,,,,,,,1,nw,HiDemTar,h,1,0.5711610159341944,,,,,,,,,,,,,,,,,,,334,2023-11-17_13h24.41.829,leap3,2022.2.5,59.56244725059733,
,,,,,,,,,,,,,,,,,,,,14,0,14,0,15,0,15,0,,,,,,partner,w,g,upper,,,,,,,1,w,HiDemTar,g,1,0.626697056737612,,,,,,,,,,,,,,,,,,,334,2023-11-17_13h24.41.829,leap3,2022.2.5,59.56244725059733,
,,,,,,,,,,,,,,,,,,,,14,0,14,0,16,0,16,0,,,,,,erithets,nw,h,upper,,,,,,,1,nw,HiDemTar,h,1,0.7520965343719581,,,,,,,,,,,,,,,,,,,334,2023-11-17_13h24.41.829,leap3,2022.2.5,59.56244725059733,
,,,,,,,,,,,,,,,,,,,,14,0,14,0,17,0,17,0,,,,,,kangaroo,target,q,upper,,,,,,,1,target,HiDemTar,q,1,0.8640717756061349,,1,,,,,,,,,,,,,,,,,334,2023-11-17_13h24.41.829,leap3,2022.2.5,59.56244725059733,
,,,,,,,,,,,,,,,,,,,,14,0,14,0,18,0,18,0,,,,,,gaining,w,g,upper,,,,,,,1,aftertar1,HiDemTar,g,1,0.628162704713759,,,,,,,,,,,,,,,,,,,334,2023-11-17_13h24.41.829,leap3,2022.2.5,59.56244725059733,
,,,,,,,,,,,,,,,,,,,,14,0,14,0,19,0,19,0,,,,,,publish,w,g,upper,,,,,,,1,aftertar2,HiDemTar,g,1,0.5695434066874441,,,,,,,,,,,,,,,,,,,334,2023-11-17_13h24.41.829,leap3,2022.2.5,59.56244725059733,
,,,,,,,,,,,,,,,,,,,,14,0,14,0,20,0,20,0,,,,,,flicking,w,g,upper,,,,,,,1,aftertar3,HiDemTar,g,1,1.664959176297998,,,,,,,,,,,,,,,,,,,334,2023-11-17_13h24.41.829,leap3,2022.2.5,59.56244725059733,
,,,,,,,,,,,,,,,,,,,,14,0,14,0,21,0,21,0,,,,,,persona,w,g,upper,,,,,,,1,w,HiDemTar,g,1,0.8211127624381334,,,,,,,,,,,,,,,,,,,334,2023-11-17_13h24.41.829,leap3,2022.2.5,59.56244725059733,
,,,,,,,,,,,,,,,,,,,,14,0,14,0,22,0,22,0,,,,,,finstrel,nw,h,upper,,,,,,,1,w,HiDemTar,h,1,1.3456247069552774,,,,,,,,,,,,,,,,,,,334,2023-11-17_13h24.41.829,leap3,2022.2.5,59.56244725059733,
,,,,,,,,,,,,,,,,,,,,14,0,14,0,23,0,23,0,,,,,,ilterfere,nw,h,upper,,,,,,,1,nw,HiDemTar,h,1,1.3864118993078591,,,,,,,,,,,,,,,,,,,334,2023-11-17_13h24.41.829,leap3,2022.2.5,59.56244725059733,
,,,,,,,,,,,,,,,,,,,,14,0,14,0,24,0,24,0,,,,,,boutique,w,g,upper,,,,,,,1,nw,HiDemTar,g,1,0.6731948797823861,,,,,,,,,,,,,,,,,,,334,2023-11-17_13h24.41.829,leap3,2022.2.5,59.56244725059733,
,,,,,,,,,,,,,,,,,,,,14,0,14,0,25,0,25,0,,,,,,ebince,nw,h,upper,,,,,,,1,w,HiDemTar,h,1,1.5005880955577595,,,,,,,,,,,,,,,,,,,334,2023-11-17_13h24.41.829,leap3,2022.2.5,59.56244725059733,
,,,,,,,,,,,,,,,,,,,,14,0,14,0,26,0,26,0,,,,,,blipover,nw,h,upper,,,,,,,1,nw,HiDemTar,h,1,1.662742329936009,,,,,,,,,,,,,,,,,,,334,2023-11-17_13h24.41.829,leap3,2022.2.5,59.56244725059733,
,,,,,,,,,,,,,,,,,,,,14,0,14,0,27,0,27,0,,,,,,flooted,nw,h,upper,,,,,,,1,nw,HiDemTar,g,0,4.153989991318667,,,,,,,,,,,,,,,,,,,334,2023-11-17_13h24.41.829,leap3,2022.2.5,59.56244725059733,
,,,,,,,,,,,,,,,,,,,,14,0,14,0,28,0,28,0,,,,,,roughly,w,g,upper,,,,,,,1,nw,HiDemTar,g,1,0.5540238267130917,,,,,,,,,,,,,,,,,,,334,2023-11-17_13h24.41.829,leap3,2022.2.5,59.56244725059733,
,,,,,,,,,,,,,,,,,,,,14,0,14,0,29,0,29,0,,,,,,buaint,nw,h,upper,,,,,,,1,w,HiDemTar,h,1,0.5860790412698407,,,,,,,,,,,,,,,,,,,334,2023-11-17_13h24.41.829,leap3,2022.2.5,59.56244725059733,
,,,,,,,,,,,,,,,,,,,,14,0,14,0,,,,,,,,,,,,,,,,,,,,,,,,,,1,,,,,,,,,,,,,,,,,,334,2023-11-17_13h24.41.829,leap3,2022.2.5,59.56244725059733,
,,,,,,,,,,,,,,,,,,,,15,0,15,0,0,0,0,0,,,,,,swatches,w,g,lower,,,,,,,3,w,LoDemNoTar,g,1,0.9538106836844236,,,,,,,,,,,,,,,,,,,334,2023-11-17_13h24.41.829,leap3,2022.2.5,59.56244725059733,
,,,,,,,,,,,,,,,,,,,,15,0,15,0,1,0,1,0,,,,,,pocket,w,g,lower,,,,,,,3,w,LoDemNoTar,g,1,0.4659184192423709,,,,,,,,,,,,,,,,,,,334,2023-11-17_13h24.41.829,leap3,2022.2.5,59.56244725059733,
,,,,,,,,,,,,,,,,,,,,15,0,15,0,2,0,2,0,,,,,,absent,w,g,lower,,,,,,,3,w,LoDemNoTar,g,1,0.4770072861138033,,,,,,,,,,,,,,,,,,,334,2023-11-17_13h24.41.829,leap3,2022.2.5,59.56244725059733,
,,,,,,,,,,,,,,,,,,,,15,0,15,0,3,0,3,0,,,,,,yearnungs,nw,h,lower,,,,,,,3,nw,LoDemNoTar,h,1,0.5682552123762434,,,,,,,,,,,,,,,,,,,334,2023-11-17_13h24.41.829,leap3,2022.2.5,59.56244725059733,
,,,,,,,,,,,,,,,,,,,,15,0,15,0,4,0,4,0,,,,,,dabble,w,g,lower,,,,,,,3,w,LoDemNoTar,g,1,1.0877345580520341,,,,,,,,,,,,,,,,,,,334,2023-11-17_13h24.41.829,leap3,2022.2.5,59.56244725059733,
,,,,,,,,,,,,,,,,,,,,15,0,15,0,5,0,5,0,,,,,,natch,nw,h,lower,,,,,,,3,nw,LoDemNoTar,h,1,0.8184728082851507,,,,,,,,,,,,,,,,,,,334,2023-11-17_13h24.41.829,leap3,2022.2.5,59.56244725059733,
,,,,,,,,,,,,,,,,,,,,15,0,15,0,6,0,6,0,,,,,,bedding,w,g,lower,,,,,,,3,w,LoDemNoTar,g,1,0.7358747543767095,,,,,,,,,,,,,,,,,,,334,2023-11-17_13h24.41.829,leap3,2022.2.5,59.56244725059733,
,,,,,,,,,,,,,,,,,,,,15,0,15,0,7,0,7,0,,,,,,gerby,nw,h,lower,,,,,,,3,nw,LoDemNoTar,g,0,0.6566791094082873,,,,,,,,,,,,,,,,,,,334,2023-11-17_13h24.41.829,leap3,2022.2.5,59.56244725059733,
,,,,,,,,,,,,,,,,,,,,15,0,15,0,8,0,8,0,,,,,,atsless,nw,h,lower,,,,,,,3,nw,LoDemNoTar,h,1,0.764682500899653,,,,,,,,,,,,,,,,,,,334,2023-11-17_13h24.41.829,leap3,2022.2.5,59.56244725059733,
,,,,,,,,,,,,,,,,,,,,15,0,15,0,9,0,9,0,,,,,,phraining,nw,h,lower,,,,,,,3,nw,LoDemNoTar,h,1,1.2051019404170802,,,,,,,,,,,,,,,,,,,334,2023-11-17_13h24.41.829,leap3,2022.2.5,59.56244725059733,
,,,,,,,,,,,,,,,,,,,,15,0,15,0,10,0,10,0,,,,,,pammed,nw,h,lower,,,,,,,3,nw,LoDemNoTar,g,0,1.578557456334238,,,,,,,,,,,,,,,,,,,334,2023-11-17_13h24.41.829,leap3,2022.2.5,59.56244725059733,
,,,,,,,,,,,,,,,,,,,,15,0,15,0,11,0,11,0,,,,,,enunciate,w,g,lower,,,,,,,3,w,LoDemNoTar,h,0,1.6900215251080226,,,,,,,,,,,,,,,,,,,334,2023-11-17_13h24.41.829,leap3,2022.2.5,59.56244725059733,
,,,,,,,,,,,,,,,,,,,,15,0,15,0,12,0,12,0,,,,,,reddar,nw,h,lower,,,,,,,3,nw,LoDemNoTar,h,1,2.9729286661895458,,,,,,,,,,,,,,,,,,,334,2023-11-17_13h24.41.829,leap3,2022.2.5,59.56244725059733,
,,,,,,,,,,,,,,,,,,,,15,0,15,0,13,0,13,0,,,,,,oleandur,nw,h,lower,,,,,,,3,nw,LoDemNoTar,h,1,0.8283830650616437,,,,,,,,,,,,,,,,,,,334,2023-11-17_13h24.41.829,leap3,2022.2.5,59.56244725059733,
,,,,,,,,,,,,,,,,,,,,15,0,15,0,14,0,14,0,,,,,,culer,nw,h,lower,,,,,,,3,nw,LoDemNoTar,g,0,1.0817809217842296,,,,,,,,,,,,,,,,,,,334,2023-11-17_13h24.41.829,leap3,2022.2.5,59.56244725059733,
,,,,,,,,,,,,,,,,,,,,15,0,15,0,15,0,15,0,,,,,,image,w,g,lower,,,,,,,3,w,LoDemNoTar,g,1,0.5331564690131927,,,,,,,,,,,,,,,,,,,334,2023-11-17_13h24.41.829,leap3,2022.2.5,59.56244725059733,
,,,,,,,,,,,,,,,,,,,,15,0,15,0,16,0,16,0,,,,,,greft,nw,h,lower,,,,,,,3,nw,LoDemNoTar,h,1,0.7904781702964101,,,,,,,,,,,,,,,,,,,334,2023-11-17_13h24.41.829,leap3,2022.2.5,59.56244725059733,
,,,,,,,,,,,,,,,,,,,,15,0,15,0,17,0,17,0,,,,,,curricula,w,g,lower,,,,,,,3,w,LoDemNoTar,g,1,1.1809367919777287,,,,,,,,,,,,,,,,,,,334,2023-11-17_13h24.41.829,leap3,2022.2.5,59.56244725059733,
,,,,,,,,,,,,,,,,,,,,15,0,15,0,18,0,18,0,,,,,,teliever,nw,h,lower,,,,,,,3,nw,LoDemNoTar,h,1,1.940413595046266,,,,,,,,,,,,,,,,,,,334,2023-11-17_13h24.41.829,leap3,2022.2.5,59.56244725059733,
,,,,,,,,,,,,,,,,,,,,15,0,15,0,19,0,19,0,,,,,,larger,w,g,lower,,,,,,,3,w,LoDemNoTar,g,1,0.6211175298521994,,,,,,,,,,,,,,,,,,,334,2023-11-17_13h24.41.829,leap3,2022.2.5,59.56244725059733,
,,,,,,,,,,,,,,,,,,,,15,0,15,0,20,0,20,0,,,,,,airmen,w,g,lower,,,,,,,3,w,LoDemNoTar,h,0,1.7145875996066025,,,,,,,,,,,,,,,,,,,334,2023-11-17_13h24.41.829,leap3,2022.2.5,59.56244725059733,
,,,,,,,,,,,,,,,,,,,,15,0,15,0,21,0,21,0,,,,,,casino,w,g,lower,,,,,,,3,w,LoDemNoTar,g,1,0.676665489183506,,,,,,,,,,,,,,,,,,,334,2023-11-17_13h24.41.829,leap3,2022.2.5,59.56244725059733,
,,,,,,,,,,,,,,,,,,,,15,0,15,0,22,0,22,0,,,,,,oginous,nw,h,lower,,,,,,,3,nw,LoDemNoTar,g,0,1.39209736866178,,,,,,,,,,,,,,,,,,,334,2023-11-17_13h24.41.829,leap3,2022.2.5,59.56244725059733,
,,,,,,,,,,,,,,,,,,,,15,0,15,0,23,0,23,0,,,,,,fudden,nw,h,lower,,,,,,,3,nw,LoDemNoTar,g,0,0.6148175941052614,,,,,,,,,,,,,,,,,,,334,2023-11-17_13h24.41.829,leap3,2022.2.5,59.56244725059733,
,,,,,,,,,,,,,,,,,,,,15,0,15,0,24,0,24,0,,,,,,twarfs,nw,h,lower,,,,,,,3,nw,LoDemNoTar,g,0,0.8760015609004768,,,,,,,,,,,,,,,,,,,334,2023-11-17_13h24.41.829,leap3,2022.2.5,59.56244725059733,
,,,,,,,,,,,,,,,,,,,,15,0,15,0,25,0,25,0,,,,,,divider,w,g,lower,,,,,,,3,w,LoDemNoTar,g,1,0.631290325341979,,,,,,,,,,,,,,,,,,,334,2023-11-17_13h24.41.829,leap3,2022.2.5,59.56244725059733,
,,,,,,,,,,,,,,,,,,,,15,0,15,0,26,0,26,0,,,,,,baults,nw,h,lower,,,,,,,3,nw,LoDemNoTar,h,1,0.8526779930398334,,,,,,,,,,,,,,,,,,,334,2023-11-17_13h24.41.829,leap3,2022.2.5,59.56244725059733,
,,,,,,,,,,,,,,,,,,,,15,0,15,0,27,0,27,0,,,,,,warmer,w,g,lower,,,,,,,3,w,LoDemNoTar,g,1,0.5846690131002106,,,,,,,,,,,,,,,,,,,334,2023-11-17_13h24.41.829,leap3,2022.2.5,59.56244725059733,
,,,,,,,,,,,,,,,,,,,,15,0,15,0,28,0,28,0,,,,,,glassware,w,g,lower,,,,,,,3,w,LoDemNoTar,g,1,1.8395546995016048,,,,,,,,,,,,,,,,,,,334,2023-11-17_13h24.41.829,leap3,2022.2.5,59.56244725059733,
,,,,,,,,,,,,,,,,,,,,15,0,15,0,29,0,29,0,,,,,,expired,w,g,lower,,,,,,,3,w,LoDemNoTar,g,1,0.64423782058293,,,,,,,,,,,,,,,,,,,334,2023-11-17_13h24.41.829,leap3,2022.2.5,59.56244725059733,
,,,,,,,,,,,,,,,,,,,,15,0,15,0,,,,,,,,,,,,,,,,,,,,,,,,,,NA,,,,,,,,,,,,,,,,,,334,2023-11-17_13h24.41.829,leap3,2022.2.5,59.56244725059733,
,,,,,,,,,,,,,,,,,,,,16,0,16,0,0,0,0,0,,,,,,compose,w,g,upper,,,,,,,1,w,HiDemTar,g,1,0.6402924564463319,,,,,,,,,,,,,,,,,,,334,2023-11-17_13h24.41.829,leap3,2022.2.5,59.56244725059733,
,,,,,,,,,,,,,,,,,,,,16,0,16,0,1,0,1,0,,,,,,emission,w,g,upper,,,,,,,1,w,HiDemTar,g,1,0.6291009577980731,,,,,,,,,,,,,,,,,,,334,2023-11-17_13h24.41.829,leap3,2022.2.5,59.56244725059733,
,,,,,,,,,,,,,,,,,,,,16,0,16,0,2,0,2,0,,,,,,venturous,w,g,upper,,,,,,,1,w,HiDemTar,g,1,0.6264467676228378,,,,,,,,,,,,,,,,,,,334,2023-11-17_13h24.41.829,leap3,2022.2.5,59.56244725059733,
,,,,,,,,,,,,,,,,,,,,16,0,16,0,3,0,3,0,,,,,,reconcile,w,g,upper,,,,,,,1,w,HiDemTar,g,1,0.6399186781345634,,,,,,,,,,,,,,,,,,,334,2023-11-17_13h24.41.829,leap3,2022.2.5,59.56244725059733,
,,,,,,,,,,,,,,,,,,,,16,0,16,0,4,0,4,0,,,,,,grested,nw,h,upper,,,,,,,1,nw,HiDemTar,g,0,0.6366582983318949,,,,,,,,,,,,,,,,,,,334,2023-11-17_13h24.41.829,leap3,2022.2.5,59.56244725059733,
,,,,,,,,,,,,,,,,,,,,16,0,16,0,5,0,5,0,,,,,,armada,w,g,upper,,,,,,,1,w,HiDemTar,h,0,0.809407111708424,,,,,,,,,,,,,,,,,,,334,2023-11-17_13h24.41.829,leap3,2022.2.5,59.56244725059733,
,,,,,,,,,,,,,,,,,,,,16,0,16,0,6,0,6,0,,,,,,mebase,nw,h,upper,,,,,,,1,nw,HiDemTar,h,1,1.0555244026036235,,,,,,,,,,,,,,,,,,,334,2023-11-17_13h24.41.829,leap3,2022.2.5,59.56244725059733,
,,,,,,,,,,,,,,,,,,,,16,0,16,0,7,0,7,0,,,,,,capobly,nw,h,upper,,,,,,,1,nw,HiDemTar,h,1,1.6106553789577447,,,,,,,,,,,,,,,,,,,334,2023-11-17_13h24.41.829,leap3,2022.2.5,59.56244725059733,
