demoRace_loop.thisRepN,demoRace_loop.thisTrialN,demoRace_loop.thisN,demoRace_loop.thisIndex,LDTunderstand.thisRepN,LDTunderstand.thisTrialN,LDTunderstand.thisN,LDTunderstand.thisIndex,pracBlocks.thisRepN,pracBlocks.thisTrialN,pracBlocks.thisN,pracBlocks.thisIndex,pracTrial.thisRepN,pracTrial.thisTrialN,pracTrial.thisN,pracTrial.thisIndex,PMunderstand.thisRepN,PMunderstand.thisTrialN,PMunderstand.thisN,PMunderstand.thisIndex,LDT_block.thisRepN,LDT_block.thisTrialN,LDT_block.thisN,LDT_block.thisIndex,LDT_trial.thisRepN,LDT_trial.thisTrialN,LDT_trial.thisN,LDT_trial.thisIndex,ageTextbox.text,genderTextbox.text,race,raceResp,LDTunderstand,stim,word_type,corr_key,stim_location,LDTpracKey.keys,LDTpracKey.corr,LDTpracKey.rt,PMunderstand,cueTextbox.text,intentionTextbox.text,block_type,role,block_desc,LDTResp.keys,LDTResp.corr,LDTResp.rt,pressedQ,PM_accuracy,pressedQ_blank,postQ1,Q2Textbox.text,Q3Textbox.text,Q4,Q5,Q6Key.keys,Q6Key.rt,postQ7_correct,postQ7,Q8Textbox.text,education,medTextbox.text,health,healthLimit,psych,participant,date,expName,psychopyVersion,frameRate,
0,0,0,0,,,,,,,,,,,,,,,,,,,,,,,,,"
19", male,American Indian or Alaska Native,n,,,,,,,,,,,,,,,,,,,,,,,,,,,,,,,,,,,,335,2023-11-20_12h50.53.048,leap3,2022.2.5,59.99565006660578,
1,0,1,0,,,,,,,,,,,,,,,,,,,,,,,,,,,Asian,n,,,,,,,,,,,,,,,,,,,,,,,,,,,,,,,,,,,,335,2023-11-20_12h50.53.048,leap3,2022.2.5,59.99565006660578,
2,0,2,0,,,,,,,,,,,,,,,,,,,,,,,,,,,Black or African American,n,,,,,,,,,,,,,,,,,,,,,,,,,,,,,,,,,,,,335,2023-11-20_12h50.53.048,leap3,2022.2.5,59.99565006660578,
3,0,3,0,,,,,,,,,,,,,,,,,,,,,,,,,,,Native Hawaiian or other Pacific Islander,n,,,,,,,,,,,,,,,,,,,,,,,,,,,,,,,,,,,,335,2023-11-20_12h50.53.048,leap3,2022.2.5,59.99565006660578,
4,0,4,0,,,,,,,,,,,,,,,,,,,,,,,,,,,White,y,,,,,,,,,,,,,,,,,,,,,,,,,,,,,,,,,,,,335,2023-11-20_12h50.53.048,leap3,2022.2.5,59.99565006660578,
,,,,0,0,0,0,,,,,,,,,,,,,,,,,,,,,,,,,y,,,,,,,,,,,,,,,,,,,,,,,,,,,,,,,,,,,335,2023-11-20_12h50.53.048,leap3,2022.2.5,59.99565006660578,
,,,,,,,,0,0,0,0,0,0,0,0,,,,,,,,,,,,,,,,,,overshoot,w,g,lower,g,1,0.3937421547689155,,,,,,,,,,,,,,,,,,,,,,,,,,,,335,2023-11-20_12h50.53.048,leap3,2022.2.5,59.99565006660578,
,,,,,,,,0,0,0,0,1,0,1,0,,,,,,,,,,,,,,,,,,julled,nw,h,lower,h,1,0.5406835558596867,,,,,,,,,,,,,,,,,,,,,,,,,,,,335,2023-11-20_12h50.53.048,leap3,2022.2.5,59.99565006660578,
,,,,,,,,0,0,0,0,2,0,2,0,,,,,,,,,,,,,,,,,,umpire,w,g,lower,g,1,0.39185704702049406,,,,,,,,,,,,,,,,,,,,,,,,,,,,335,2023-11-20_12h50.53.048,leap3,2022.2.5,59.99565006660578,
,,,,,,,,0,0,0,0,3,0,3,0,,,,,,,,,,,,,,,,,,sponsor,w,g,lower,h,0,0.4443238929279687,,,,,,,,,,,,,,,,,,,,,,,,,,,,335,2023-11-20_12h50.53.048,leap3,2022.2.5,59.99565006660578,
,,,,,,,,0,0,0,0,4,0,4,0,,,,,,,,,,,,,,,,,,alolition,nw,h,lower,h,1,0.6981003159708052,,,,,,,,,,,,,,,,,,,,,,,,,,,,335,2023-11-20_12h50.53.048,leap3,2022.2.5,59.99565006660578,
,,,,,,,,0,0,0,0,5,0,5,0,,,,,,,,,,,,,,,,,,curlecs,nw,h,lower,h,1,0.517695438262308,,,,,,,,,,,,,,,,,,,,,,,,,,,,335,2023-11-20_12h50.53.048,leap3,2022.2.5,59.99565006660578,
,,,,,,,,0,0,0,0,6,0,6,0,,,,,,,,,,,,,,,,,,reputable,w,g,lower,g,1,0.5040424775270367,,,,,,,,,,,,,,,,,,,,,,,,,,,,335,2023-11-20_12h50.53.048,leap3,2022.2.5,59.99565006660578,
,,,,,,,,0,0,0,0,7,0,7,0,,,,,,,,,,,,,,,,,,grocus,nw,h,lower,h,1,0.5371765403388054,,,,,,,,,,,,,,,,,,,,,,,,,,,,335,2023-11-20_12h50.53.048,leap3,2022.2.5,59.99565006660578,
,,,,,,,,0,0,0,0,8,0,8,0,,,,,,,,,,,,,,,,,,hiring,w,g,lower,g,1,0.5539786308418115,,,,,,,,,,,,,,,,,,,,,,,,,,,,335,2023-11-20_12h50.53.048,leap3,2022.2.5,59.99565006660578,
,,,,,,,,0,0,0,0,9,0,9,0,,,,,,,,,,,,,,,,,,raestro,nw,h,lower,h,1,0.5301558879136792,,,,,,,,,,,,,,,,,,,,,,,,,,,,335,2023-11-20_12h50.53.048,leap3,2022.2.5,59.99565006660578,
,,,,,,,,0,0,0,0,10,0,10,0,,,,,,,,,,,,,,,,,,hasking,nw,h,lower,h,1,0.5794544020418471,,,,,,,,,,,,,,,,,,,,,,,,,,,,335,2023-11-20_12h50.53.048,leap3,2022.2.5,59.99565006660578,
,,,,,,,,0,0,0,0,11,0,11,0,,,,,,,,,,,,,,,,,,summary,w,g,lower,g,1,0.39461750160444353,,,,,,,,,,,,,,,,,,,,,,,,,,,,335,2023-11-20_12h50.53.048,leap3,2022.2.5,59.99565006660578,
,,,,,,,,0,0,0,0,12,0,12,0,,,,,,,,,,,,,,,,,,lumbigo,nw,h,lower,h,1,0.4337803336629804,,,,,,,,,,,,,,,,,,,,,,,,,,,,335,2023-11-20_12h50.53.048,leap3,2022.2.5,59.99565006660578,
,,,,,,,,0,0,0,0,13,0,13,0,,,,,,,,,,,,,,,,,,tricycle,w,g,lower,g,1,0.6694919684587148,,,,,,,,,,,,,,,,,,,,,,,,,,,,335,2023-11-20_12h50.53.048,leap3,2022.2.5,59.99565006660578,
,,,,,,,,0,0,0,0,,,,,,,,,,,,,,,,,,,,,,,,,,,,,,,,,,,,,,,,,,,,,,,,,,,,,,,,335,2023-11-20_12h50.53.048,leap3,2022.2.5,59.99565006660578,
,,,,,,,,1,0,1,0,0,0,0,0,,,,,,,,,,,,,,,,,,grimace,w,g,upper,g,1,0.41789033867189573,,,,,,,,,,,,,,,,,,,,,,,,,,,,335,2023-11-20_12h50.53.048,leap3,2022.2.5,59.99565006660578,
,,,,,,,,1,0,1,0,1,0,1,0,,,,,,,,,,,,,,,,,,lurshing,nw,h,upper,h,1,0.519279273083157,,,,,,,,,,,,,,,,,,,,,,,,,,,,335,2023-11-20_12h50.53.048,leap3,2022.2.5,59.99565006660578,
,,,,,,,,1,0,1,0,2,0,2,0,,,,,,,,,,,,,,,,,,revival,w,g,upper,g,1,0.44881749451997166,,,,,,,,,,,,,,,,,,,,,,,,,,,,335,2023-11-20_12h50.53.048,leap3,2022.2.5,59.99565006660578,
,,,,,,,,1,0,1,0,3,0,3,0,,,,,,,,,,,,,,,,,,unscrew,w,g,upper,g,1,0.459845407953253,,,,,,,,,,,,,,,,,,,,,,,,,,,,335,2023-11-20_12h50.53.048,leap3,2022.2.5,59.99565006660578,
,,,,,,,,1,0,1,0,4,0,4,0,,,,,,,,,,,,,,,,,,latador,nw,h,upper,h,1,0.4726167315375278,,,,,,,,,,,,,,,,,,,,,,,,,,,,335,2023-11-20_12h50.53.048,leap3,2022.2.5,59.99565006660578,
,,,,,,,,1,0,1,0,5,0,5,0,,,,,,,,,,,,,,,,,,grutch,nw,h,upper,h,1,0.7311757795423546,,,,,,,,,,,,,,,,,,,,,,,,,,,,335,2023-11-20_12h50.53.048,leap3,2022.2.5,59.99565006660578,
,,,,,,,,1,0,1,0,6,0,6,0,,,,,,,,,,,,,,,,,,infinity,w,g,upper,g,1,0.45203681094790227,,,,,,,,,,,,,,,,,,,,,,,,,,,,335,2023-11-20_12h50.53.048,leap3,2022.2.5,59.99565006660578,
,,,,,,,,1,0,1,0,7,0,7,0,,,,,,,,,,,,,,,,,,treeps,nw,h,upper,g,0,0.4649279815657792,,,,,,,,,,,,,,,,,,,,,,,,,,,,335,2023-11-20_12h50.53.048,leap3,2022.2.5,59.99565006660578,
,,,,,,,,1,0,1,0,8,0,8,0,,,,,,,,,,,,,,,,,,slumber,w,g,upper,g,1,0.6371355870851403,,,,,,,,,,,,,,,,,,,,,,,,,,,,335,2023-11-20_12h50.53.048,leap3,2022.2.5,59.99565006660578,
,,,,,,,,1,0,1,0,9,0,9,0,,,,,,,,,,,,,,,,,,turative,nw,h,upper,h,1,0.5208693982176555,,,,,,,,,,,,,,,,,,,,,,,,,,,,335,2023-11-20_12h50.53.048,leap3,2022.2.5,59.99565006660578,
,,,,,,,,1,0,1,0,10,0,10,0,,,,,,,,,,,,,,,,,,trotch,nw,h,upper,h,1,0.5623910979784341,,,,,,,,,,,,,,,,,,,,,,,,,,,,335,2023-11-20_12h50.53.048,leap3,2022.2.5,59.99565006660578,
,,,,,,,,1,0,1,0,11,0,11,0,,,,,,,,,,,,,,,,,,picture,w,g,upper,g,1,0.45052945310089854,,,,,,,,,,,,,,,,,,,,,,,,,,,,335,2023-11-20_12h50.53.048,leap3,2022.2.5,59.99565006660578,
,,,,,,,,1,0,1,0,12,0,12,0,,,,,,,,,,,,,,,,,,crinklo,nw,h,upper,h,1,0.45456286857370287,,,,,,,,,,,,,,,,,,,,,,,,,,,,335,2023-11-20_12h50.53.048,leap3,2022.2.5,59.99565006660578,
,,,,,,,,1,0,1,0,13,0,13,0,,,,,,,,,,,,,,,,,,busted,w,g,upper,g,1,0.4026879743087193,,,,,,,,,,,,,,,,,,,,,,,,,,,,335,2023-11-20_12h50.53.048,leap3,2022.2.5,59.99565006660578,
,,,,,,,,1,0,1,0,,,,,,,,,,,,,,,,,,,,,,,,,,,,,,,,,,,,,,,,,,,,,,,,,,,,,,,,335,2023-11-20_12h50.53.048,leap3,2022.2.5,59.99565006660578,
,,,,,,,,,,,,,,,,0,0,0,0,,,,,,,,,,,,,,,,,,,,,y,,,,,,,,,,,,,,,,,,,,,,,,,,,335,2023-11-20_12h50.53.048,leap3,2022.2.5,59.99565006660578,
,,,,,,,,,,,,,,,,,,,,0,0,0,0,0,0,0,0,,,,,,theles,nw,h,upper,,,,,animal,"
q ",4,nw,LoDemTar,h,1,0.6303983298539606,,,,,,,,,,,,,,,,,,,335,2023-11-20_12h50.53.048,leap3,2022.2.5,59.99565006660578,
,,,,,,,,,,,,,,,,,,,,0,0,0,0,1,0,1,0,,,,,,plymie,nw,h,upper,,,,,,,4,nw,LoDemTar,h,1,0.5324948914685592,,,,,,,,,,,,,,,,,,,335,2023-11-20_12h50.53.048,leap3,2022.2.5,59.99565006660578,
,,,,,,,,,,,,,,,,,,,,0,0,0,0,2,0,2,0,,,,,,ipiocy,nw,h,upper,,,,,,,4,nw,LoDemTar,h,1,0.43826135462768434,,,,,,,,,,,,,,,,,,,335,2023-11-20_12h50.53.048,leap3,2022.2.5,59.99565006660578,
,,,,,,,,,,,,,,,,,,,,0,0,0,0,3,0,3,0,,,,,,jungle,w,g,upper,,,,,,,4,w,LoDemTar,g,1,0.5799695456416885,,,,,,,,,,,,,,,,,,,335,2023-11-20_12h50.53.048,leap3,2022.2.5,59.99565006660578,
,,,,,,,,,,,,,,,,,,,,0,0,0,0,4,0,4,0,,,,,,bluads,nw,h,upper,,,,,,,4,nw,LoDemTar,h,1,0.5240721611880872,,,,,,,,,,,,,,,,,,,335,2023-11-20_12h50.53.048,leap3,2022.2.5,59.99565006660578,
,,,,,,,,,,,,,,,,,,,,0,0,0,0,5,0,5,0,,,,,,rearrange,w,g,upper,,,,,,,4,w,LoDemTar,g,1,0.7263974584793687,,,,,,,,,,,,,,,,,,,335,2023-11-20_12h50.53.048,leap3,2022.2.5,59.99565006660578,
,,,,,,,,,,,,,,,,,,,,0,0,0,0,6,0,6,0,,,,,,analysis,w,g,upper,,,,,,,4,w,LoDemTar,h,0,0.5602331892496295,,,,,,,,,,,,,,,,,,,335,2023-11-20_12h50.53.048,leap3,2022.2.5,59.99565006660578,
,,,,,,,,,,,,,,,,,,,,0,0,0,0,7,0,7,0,,,,,,tiery,nw,h,upper,,,,,,,4,nw,LoDemTar,h,1,0.6800123528828408,,,,,,,,,,,,,,,,,,,335,2023-11-20_12h50.53.048,leap3,2022.2.5,59.99565006660578,
,,,,,,,,,,,,,,,,,,,,0,0,0,0,8,0,8,0,,,,,,felevance,nw,h,upper,,,,,,,4,nw,LoDemTar,g,0,0.6680442030601625,,,,,,,,,,,,,,,,,,,335,2023-11-20_12h50.53.048,leap3,2022.2.5,59.99565006660578,
,,,,,,,,,,,,,,,,,,,,0,0,0,0,9,0,9,0,,,,,,preserve,w,g,upper,,,,,,,4,w,LoDemTar,g,1,0.7601466477735812,,,,,,,,,,,,,,,,,,,335,2023-11-20_12h50.53.048,leap3,2022.2.5,59.99565006660578,
,,,,,,,,,,,,,,,,,,,,0,0,0,0,10,0,10,0,,,,,,loached,nw,h,upper,,,,,,,4,nw,LoDemTar,h,1,0.8408424359449782,,,,,,,,,,,,,,,,,,,335,2023-11-20_12h50.53.048,leap3,2022.2.5,59.99565006660578,
,,,,,,,,,,,,,,,,,,,,0,0,0,0,11,0,11,0,,,,,,acoustic,w,g,upper,,,,,,,4,w,LoDemTar,g,1,0.7262905231436889,,,,,,,,,,,,,,,,,,,335,2023-11-20_12h50.53.048,leap3,2022.2.5,59.99565006660578,
,,,,,,,,,,,,,,,,,,,,0,0,0,0,12,0,12,0,,,,,,hubris,w,g,upper,,,,,,,4,w,LoDemTar,h,0,0.7123786663323699,,,,,,,,,,,,,,,,,,,335,2023-11-20_12h50.53.048,leap3,2022.2.5,59.99565006660578,
,,,,,,,,,,,,,,,,,,,,0,0,0,0,13,0,13,0,,,,,,miracle,w,g,upper,,,,,,,4,w,LoDemTar,g,1,0.5551512777756216,,,,,,,,,,,,,,,,,,,335,2023-11-20_12h50.53.048,leap3,2022.2.5,59.99565006660578,
,,,,,,,,,,,,,,,,,,,,0,0,0,0,14,0,14,0,,,,,,usage,w,g,upper,,,,,,,4,w,LoDemTar,g,1,0.5878155534619509,,,,,,,,,,,,,,,,,,,335,2023-11-20_12h50.53.048,leap3,2022.2.5,59.99565006660578,
,,,,,,,,,,,,,,,,,,,,0,0,0,0,15,0,15,0,,,,,,duries,nw,h,upper,,,,,,,4,nw,LoDemTar,h,1,0.899329443302122,,,,,,,,,,,,,,,,,,,335,2023-11-20_12h50.53.048,leap3,2022.2.5,59.99565006660578,
,,,,,,,,,,,,,,,,,,,,0,0,0,0,16,0,16,0,,,,,,nores,nw,h,upper,,,,,,,4,nw,LoDemTar,h,1,0.6216014914316474,,,,,,,,,,,,,,,,,,,335,2023-11-20_12h50.53.048,leap3,2022.2.5,59.99565006660578,
,,,,,,,,,,,,,,,,,,,,0,0,0,0,17,0,17,0,,,,,,igiom,nw,h,upper,,,,,,,4,nw,LoDemTar,h,1,0.6197898810351035,,,,,,,,,,,,,,,,,,,335,2023-11-20_12h50.53.048,leap3,2022.2.5,59.99565006660578,
,,,,,,,,,,,,,,,,,,,,0,0,0,0,18,0,18,0,,,,,,deserve,w,g,upper,,,,,,,4,w,LoDemTar,g,1,0.5857758364190886,,,,,,,,,,,,,,,,,,,335,2023-11-20_12h50.53.048,leap3,2022.2.5,59.99565006660578,
,,,,,,,,,,,,,,,,,,,,0,0,0,0,19,0,19,0,,,,,,buzzer,w,g,upper,,,,,,,4,w,LoDemTar,g,1,0.6478579236909354,,,,,,,,,,,,,,,,,,,335,2023-11-20_12h50.53.048,leap3,2022.2.5,59.99565006660578,
,,,,,,,,,,,,,,,,,,,,0,0,0,0,20,0,20,0,,,,,,party,w,g,upper,,,,,,,4,w,LoDemTar,g,1,0.5426232900172181,,,,,,,,,,,,,,,,,,,335,2023-11-20_12h50.53.048,leap3,2022.2.5,59.99565006660578,
,,,,,,,,,,,,,,,,,,,,0,0,0,0,21,0,21,0,,,,,,digested,w,g,upper,,,,,,,4,w,LoDemTar,g,1,0.560017994302143,,,,,,,,,,,,,,,,,,,335,2023-11-20_12h50.53.048,leap3,2022.2.5,59.99565006660578,
,,,,,,,,,,,,,,,,,,,,0,0,0,0,22,0,22,0,,,,,,squirrel,target,q,upper,,,,,,,4,target,LoDemTar,q,1,0.5360366692502794,1,,,,,,,,,,,,,,,,,,335,2023-11-20_12h50.53.048,leap3,2022.2.5,59.99565006660578,
,,,,,,,,,,,,,,,,,,,,0,0,0,0,23,0,23,0,,,,,,heuls,nw,h,upper,,,,,,,4,aftertar1,LoDemTar,h,1,0.6334819079293084,,,,,,,,,,,,,,,,,,,335,2023-11-20_12h50.53.048,leap3,2022.2.5,59.99565006660578,
,,,,,,,,,,,,,,,,,,,,0,0,0,0,24,0,24,0,,,,,,nearsipe,nw,h,upper,,,,,,,4,aftertar2,LoDemTar,h,1,0.6635115353083165,,,,,,,,,,,,,,,,,,,335,2023-11-20_12h50.53.048,leap3,2022.2.5,59.99565006660578,
,,,,,,,,,,,,,,,,,,,,0,0,0,0,25,0,25,0,,,,,,neally,nw,h,upper,,,,,,,4,aftertar3,LoDemTar,h,1,0.7393187563893662,,,,,,,,,,,,,,,,,,,335,2023-11-20_12h50.53.048,leap3,2022.2.5,59.99565006660578,
,,,,,,,,,,,,,,,,,,,,0,0,0,0,26,0,26,0,,,,,,fraft,nw,h,upper,,,,,,,4,nw,LoDemTar,h,1,0.6286777634741156,,,,,,,,,,,,,,,,,,,335,2023-11-20_12h50.53.048,leap3,2022.2.5,59.99565006660578,
,,,,,,,,,,,,,,,,,,,,0,0,0,0,27,0,27,0,,,,,,itself,w,g,upper,,,,,,,4,nw,LoDemTar,g,1,0.4588240596212927,,,,,,,,,,,,,,,,,,,335,2023-11-20_12h50.53.048,leap3,2022.2.5,59.99565006660578,
,,,,,,,,,,,,,,,,,,,,0,0,0,0,28,0,28,0,,,,,,dounger,nw,h,upper,,,,,,,4,w,LoDemTar,h,1,0.607409881186868,,,,,,,,,,,,,,,,,,,335,2023-11-20_12h50.53.048,leap3,2022.2.5,59.99565006660578,
,,,,,,,,,,,,,,,,,,,,0,0,0,0,29,0,29,0,,,,,,lentils,w,g,upper,,,,,,,4,nw,LoDemTar,g,1,0.8062063123943517,,,,,,,,,,,,,,,,,,,335,2023-11-20_12h50.53.048,leap3,2022.2.5,59.99565006660578,
,,,,,,,,,,,,,,,,,,,,0,0,0,0,,,,,,,,,,,,,,,,,,,,,,,,,,,1,,,,,,,,,,,,,,,,,335,2023-11-20_12h50.53.048,leap3,2022.2.5,59.99565006660578,
,,,,,,,,,,,,,,,,,,,,1,0,1,0,0,0,0,0,,,,,,expensive,w,g,upper,,,,,,,3,w,LoDemNoTar,g,1,0.5706413412317488,,,,,,,,,,,,,,,,,,,335,2023-11-20_12h50.53.048,leap3,2022.2.5,59.99565006660578,
,,,,,,,,,,,,,,,,,,,,1,0,1,0,1,0,1,0,,,,,,uncarled,nw,h,upper,,,,,,,3,nw,LoDemNoTar,h,1,0.6124242545547531,,,,,,,,,,,,,,,,,,,335,2023-11-20_12h50.53.048,leap3,2022.2.5,59.99565006660578,
,,,,,,,,,,,,,,,,,,,,1,0,1,0,2,0,2,0,,,,,,latpin,nw,h,upper,,,,,,,3,nw,LoDemNoTar,h,1,0.5471887336152577,,,,,,,,,,,,,,,,,,,335,2023-11-20_12h50.53.048,leap3,2022.2.5,59.99565006660578,
,,,,,,,,,,,,,,,,,,,,1,0,1,0,3,0,3,0,,,,,,burning,w,g,upper,,,,,,,3,w,LoDemNoTar,g,1,0.47652467180159874,,,,,,,,,,,,,,,,,,,335,2023-11-20_12h50.53.048,leap3,2022.2.5,59.99565006660578,
,,,,,,,,,,,,,,,,,,,,1,0,1,0,4,0,4,0,,,,,,teamwork,w,g,upper,,,,,,,3,w,LoDemNoTar,h,0,0.5206061982416941,,,,,,,,,,,,,,,,,,,335,2023-11-20_12h50.53.048,leap3,2022.2.5,59.99565006660578,
,,,,,,,,,,,,,,,,,,,,1,0,1,0,5,0,5,0,,,,,,aefated,nw,h,upper,,,,,,,3,nw,LoDemNoTar,h,1,0.6426763604022199,,,,,,,,,,,,,,,,,,,335,2023-11-20_12h50.53.048,leap3,2022.2.5,59.99565006660578,
,,,,,,,,,,,,,,,,,,,,1,0,1,0,6,0,6,0,,,,,,ounside,nw,h,upper,,,,,,,3,nw,LoDemNoTar,h,1,0.7517259039086639,,,,,,,,,,,,,,,,,,,335,2023-11-20_12h50.53.048,leap3,2022.2.5,59.99565006660578,
,,,,,,,,,,,,,,,,,,,,1,0,1,0,7,0,7,0,,,,,,outflow,w,g,upper,,,,,,,3,w,LoDemNoTar,g,1,0.5128369984659003,,,,,,,,,,,,,,,,,,,335,2023-11-20_12h50.53.048,leap3,2022.2.5,59.99565006660578,
,,,,,,,,,,,,,,,,,,,,1,0,1,0,8,0,8,0,,,,,,ements,nw,h,upper,,,,,,,3,nw,LoDemNoTar,h,1,0.5235748953227812,,,,,,,,,,,,,,,,,,,335,2023-11-20_12h50.53.048,leap3,2022.2.5,59.99565006660578,
,,,,,,,,,,,,,,,,,,,,1,0,1,0,9,0,9,0,,,,,,lightels,nw,h,upper,,,,,,,3,nw,LoDemNoTar,h,1,0.645626186541449,,,,,,,,,,,,,,,,,,,335,2023-11-20_12h50.53.048,leap3,2022.2.5,59.99565006660578,
,,,,,,,,,,,,,,,,,,,,1,0,1,0,10,0,10,0,,,,,,suddenly,w,g,upper,,,,,,,3,w,LoDemNoTar,g,1,0.5060768974635721,,,,,,,,,,,,,,,,,,,335,2023-11-20_12h50.53.048,leap3,2022.2.5,59.99565006660578,
,,,,,,,,,,,,,,,,,,,,1,0,1,0,11,0,11,0,,,,,,company,w,g,upper,,,,,,,3,w,LoDemNoTar,g,1,0.5727648187694285,,,,,,,,,,,,,,,,,,,335,2023-11-20_12h50.53.048,leap3,2022.2.5,59.99565006660578,
,,,,,,,,,,,,,,,,,,,,1,0,1,0,12,0,12,0,,,,,,adok,nw,h,upper,,,,,,,3,nw,LoDemNoTar,h,1,0.5488295123295757,,,,,,,,,,,,,,,,,,,335,2023-11-20_12h50.53.048,leap3,2022.2.5,59.99565006660578,
,,,,,,,,,,,,,,,,,,,,1,0,1,0,13,0,13,0,,,,,,tragedy,w,g,upper,,,,,,,3,w,LoDemNoTar,g,1,0.542226338105138,,,,,,,,,,,,,,,,,,,335,2023-11-20_12h50.53.048,leap3,2022.2.5,59.99565006660578,
,,,,,,,,,,,,,,,,,,,,1,0,1,0,14,0,14,0,,,,,,snays,nw,h,upper,,,,,,,3,nw,LoDemNoTar,h,1,0.6876593881424924,,,,,,,,,,,,,,,,,,,335,2023-11-20_12h50.53.048,leap3,2022.2.5,59.99565006660578,
,,,,,,,,,,,,,,,,,,,,1,0,1,0,15,0,15,0,,,,,,deceit,w,g,upper,,,,,,,3,w,LoDemNoTar,g,1,0.5230418739884044,,,,,,,,,,,,,,,,,,,335,2023-11-20_12h50.53.048,leap3,2022.2.5,59.99565006660578,
,,,,,,,,,,,,,,,,,,,,1,0,1,0,16,0,16,0,,,,,,jinds,nw,h,upper,,,,,,,3,nw,LoDemNoTar,h,1,0.6610834741513827,,,,,,,,,,,,,,,,,,,335,2023-11-20_12h50.53.048,leap3,2022.2.5,59.99565006660578,
,,,,,,,,,,,,,,,,,,,,1,0,1,0,17,0,17,0,,,,,,mortgage,w,g,upper,,,,,,,3,w,LoDemNoTar,g,1,0.561851124192799,,,,,,,,,,,,,,,,,,,335,2023-11-20_12h50.53.048,leap3,2022.2.5,59.99565006660578,
,,,,,,,,,,,,,,,,,,,,1,0,1,0,18,0,18,0,,,,,,doads,nw,h,upper,,,,,,,3,nw,LoDemNoTar,h,1,0.5625731860127416,,,,,,,,,,,,,,,,,,,335,2023-11-20_12h50.53.048,leap3,2022.2.5,59.99565006660578,
,,,,,,,,,,,,,,,,,,,,1,0,1,0,19,0,19,0,,,,,,dredigest,nw,h,upper,,,,,,,3,nw,LoDemNoTar,h,1,0.9313494584184809,,,,,,,,,,,,,,,,,,,335,2023-11-20_12h50.53.048,leap3,2022.2.5,59.99565006660578,
,,,,,,,,,,,,,,,,,,,,1,0,1,0,20,0,20,0,,,,,,actual,w,g,upper,,,,,,,3,w,LoDemNoTar,g,1,0.5084003407682758,,,,,,,,,,,,,,,,,,,335,2023-11-20_12h50.53.048,leap3,2022.2.5,59.99565006660578,
,,,,,,,,,,,,,,,,,,,,1,0,1,0,21,0,21,0,,,,,,graveyard,w,g,upper,,,,,,,3,w,LoDemNoTar,h,0,0.5430530177764012,,,,,,,,,,,,,,,,,,,335,2023-11-20_12h50.53.048,leap3,2022.2.5,59.99565006660578,
,,,,,,,,,,,,,,,,,,,,1,0,1,0,22,0,22,0,,,,,,micron,w,g,upper,,,,,,,3,w,LoDemNoTar,g,1,0.9605623382003614,,,,,,,,,,,,,,,,,,,335,2023-11-20_12h50.53.048,leap3,2022.2.5,59.99565006660578,
,,,,,,,,,,,,,,,,,,,,1,0,1,0,23,0,23,0,,,,,,lavilion,nw,h,upper,,,,,,,3,nw,LoDemNoTar,h,1,0.5852103703091416,,,,,,,,,,,,,,,,,,,335,2023-11-20_12h50.53.048,leap3,2022.2.5,59.99565006660578,
,,,,,,,,,,,,,,,,,,,,1,0,1,0,24,0,24,0,,,,,,gigglod,nw,h,upper,,,,,,,3,nw,LoDemNoTar,h,1,0.7046104597638987,,,,,,,,,,,,,,,,,,,335,2023-11-20_12h50.53.048,leap3,2022.2.5,59.99565006660578,
,,,,,,,,,,,,,,,,,,,,1,0,1,0,25,0,25,0,,,,,,unbridled,w,g,upper,,,,,,,3,w,LoDemNoTar,g,1,0.5470119426881865,,,,,,,,,,,,,,,,,,,335,2023-11-20_12h50.53.048,leap3,2022.2.5,59.99565006660578,
,,,,,,,,,,,,,,,,,,,,1,0,1,0,26,0,26,0,,,,,,regards,w,g,upper,,,,,,,3,w,LoDemNoTar,g,1,0.5488066685584272,,,,,,,,,,,,,,,,,,,335,2023-11-20_12h50.53.048,leap3,2022.2.5,59.99565006660578,
,,,,,,,,,,,,,,,,,,,,1,0,1,0,27,0,27,0,,,,,,marvel,w,g,upper,,,,,,,3,w,LoDemNoTar,g,1,0.526176436714195,,,,,,,,,,,,,,,,,,,335,2023-11-20_12h50.53.048,leap3,2022.2.5,59.99565006660578,
,,,,,,,,,,,,,,,,,,,,1,0,1,0,28,0,28,0,,,,,,elvisages,nw,h,upper,,,,,,,3,nw,LoDemNoTar,h,1,0.8082655625157713,,,,,,,,,,,,,,,,,,,335,2023-11-20_12h50.53.048,leap3,2022.2.5,59.99565006660578,
,,,,,,,,,,,,,,,,,,,,1,0,1,0,29,0,29,0,,,,,,drobate,nw,h,upper,,,,,,,3,nw,LoDemNoTar,h,1,0.6139915359171937,,,,,,,,,,,,,,,,,,,335,2023-11-20_12h50.53.048,leap3,2022.2.5,59.99565006660578,
,,,,,,,,,,,,,,,,,,,,1,0,1,0,,,,,,,,,,,,,,,,,,,,,,,,,,,NA,,,,,,,,,,,,,,,,,335,2023-11-20_12h50.53.048,leap3,2022.2.5,59.99565006660578,
,,,,,,,,,,,,,,,,,,,,2,0,2,0,0,0,0,0,,,,,,seighing,nw,h,lower,,,,,,,1,nw,HiDemTar,h,1,0.6531586718747349,,,,,,,,,,,,,,,,,,,335,2023-11-20_12h50.53.048,leap3,2022.2.5,59.99565006660578,
,,,,,,,,,,,,,,,,,,,,2,0,2,0,1,0,1,0,,,,,,leather,w,g,lower,,,,,,,1,w,HiDemTar,g,1,0.5779063226900689,,,,,,,,,,,,,,,,,,,335,2023-11-20_12h50.53.048,leap3,2022.2.5,59.99565006660578,
,,,,,,,,,,,,,,,,,,,,2,0,2,0,2,0,2,0,,,,,,passet,nw,h,lower,,,,,,,1,nw,HiDemTar,h,1,0.6099144193176471,,,,,,,,,,,,,,,,,,,335,2023-11-20_12h50.53.048,leap3,2022.2.5,59.99565006660578,
,,,,,,,,,,,,,,,,,,,,2,0,2,0,3,0,3,0,,,,,,naxis,nw,h,lower,,,,,,,1,nw,HiDemTar,h,1,0.5206939315667114,,,,,,,,,,,,,,,,,,,335,2023-11-20_12h50.53.048,leap3,2022.2.5,59.99565006660578,
,,,,,,,,,,,,,,,,,,,,2,0,2,0,4,0,4,0,,,,,,padicals,nw,h,lower,,,,,,,1,nw,HiDemTar,h,1,0.5298426964964165,,,,,,,,,,,,,,,,,,,335,2023-11-20_12h50.53.048,leap3,2022.2.5,59.99565006660578,
,,,,,,,,,,,,,,,,,,,,2,0,2,0,5,0,5,0,,,,,,turning,w,g,lower,,,,,,,1,w,HiDemTar,g,1,0.4037920899281744,,,,,,,,,,,,,,,,,,,335,2023-11-20_12h50.53.048,leap3,2022.2.5,59.99565006660578,
,,,,,,,,,,,,,,,,,,,,2,0,2,0,6,0,6,0,,,,,,natch,nw,h,lower,,,,,,,1,nw,HiDemTar,h,1,0.522471110771221,,,,,,,,,,,,,,,,,,,335,2023-11-20_12h50.53.048,leap3,2022.2.5,59.99565006660578,
,,,,,,,,,,,,,,,,,,,,2,0,2,0,7,0,7,0,,,,,,tracing,w,g,lower,,,,,,,1,w,HiDemTar,g,1,0.42861929666105425,,,,,,,,,,,,,,,,,,,335,2023-11-20_12h50.53.048,leap3,2022.2.5,59.99565006660578,
,,,,,,,,,,,,,,,,,,,,2,0,2,0,8,0,8,0,,,,,,bulmed,nw,h,lower,,,,,,,1,nw,HiDemTar,h,1,0.6586905063250015,,,,,,,,,,,,,,,,,,,335,2023-11-20_12h50.53.048,leap3,2022.2.5,59.99565006660578,
,,,,,,,,,,,,,,,,,,,,2,0,2,0,9,0,9,0,,,,,,realize,w,g,lower,,,,,,,1,w,HiDemTar,g,1,0.4394058606831095,,,,,,,,,,,,,,,,,,,335,2023-11-20_12h50.53.048,leap3,2022.2.5,59.99565006660578,
,,,,,,,,,,,,,,,,,,,,2,0,2,0,10,0,10,0,,,,,,stable,w,g,lower,,,,,,,1,w,HiDemTar,g,1,0.5328630403646457,,,,,,,,,,,,,,,,,,,335,2023-11-20_12h50.53.048,leap3,2022.2.5,59.99565006660578,
,,,,,,,,,,,,,,,,,,,,2,0,2,0,11,0,11,0,,,,,,widely,w,g,lower,,,,,,,1,w,HiDemTar,g,1,0.4869503704476301,,,,,,,,,,,,,,,,,,,335,2023-11-20_12h50.53.048,leap3,2022.2.5,59.99565006660578,
,,,,,,,,,,,,,,,,,,,,2,0,2,0,12,0,12,0,,,,,,curricula,w,g,lower,,,,,,,1,w,HiDemTar,h,0,0.4505178656818316,,,,,,,,,,,,,,,,,,,335,2023-11-20_12h50.53.048,leap3,2022.2.5,59.99565006660578,
,,,,,,,,,,,,,,,,,,,,2,0,2,0,13,0,13,0,,,,,,walsams,nw,h,lower,,,,,,,1,nw,HiDemTar,h,1,0.5672250386578526,,,,,,,,,,,,,,,,,,,335,2023-11-20_12h50.53.048,leap3,2022.2.5,59.99565006660578,
,,,,,,,,,,,,,,,,,,,,2,0,2,0,14,0,14,0,,,,,,filter,w,g,lower,,,,,,,1,w,HiDemTar,g,1,0.5190620917192064,,,,,,,,,,,,,,,,,,,335,2023-11-20_12h50.53.048,leap3,2022.2.5,59.99565006660578,
,,,,,,,,,,,,,,,,,,,,2,0,2,0,15,0,15,0,,,,,,release,w,g,lower,,,,,,,1,w,HiDemTar,g,1,0.44807093358303973,,,,,,,,,,,,,,,,,,,335,2023-11-20_12h50.53.048,leap3,2022.2.5,59.99565006660578,
,,,,,,,,,,,,,,,,,,,,2,0,2,0,16,0,16,0,,,,,,fetching,w,g,lower,,,,,,,1,w,HiDemTar,g,1,0.5574763764261661,,,,,,,,,,,,,,,,,,,335,2023-11-20_12h50.53.048,leap3,2022.2.5,59.99565006660578,
,,,,,,,,,,,,,,,,,,,,2,0,2,0,17,0,17,0,,,,,,etuip,nw,h,lower,,,,,,,1,nw,HiDemTar,h,1,0.5743277962328648,,,,,,,,,,,,,,,,,,,335,2023-11-20_12h50.53.048,leap3,2022.2.5,59.99565006660578,
,,,,,,,,,,,,,,,,,,,,2,0,2,0,18,0,18,0,,,,,,brongs,nw,h,lower,,,,,,,1,nw,HiDemTar,g,0,0.46224565930060635,,,,,,,,,,,,,,,,,,,335,2023-11-20_12h50.53.048,leap3,2022.2.5,59.99565006660578,
,,,,,,,,,,,,,,,,,,,,2,0,2,0,19,0,19,0,,,,,,column,w,g,lower,,,,,,,1,w,HiDemTar,g,1,0.7309844215724297,,,,,,,,,,,,,,,,,,,335,2023-11-20_12h50.53.048,leap3,2022.2.5,59.99565006660578,
,,,,,,,,,,,,,,,,,,,,2,0,2,0,20,0,20,0,,,,,,destroy,w,g,lower,,,,,,,1,w,HiDemTar,g,1,0.5090373178145455,,,,,,,,,,,,,,,,,,,335,2023-11-20_12h50.53.048,leap3,2022.2.5,59.99565006660578,
,,,,,,,,,,,,,,,,,,,,2,0,2,0,21,0,21,0,,,,,,terrify,w,g,lower,,,,,,,1,w,HiDemTar,g,1,0.5677537560932251,,,,,,,,,,,,,,,,,,,335,2023-11-20_12h50.53.048,leap3,2022.2.5,59.99565006660578,
,,,,,,,,,,,,,,,,,,,,2,0,2,0,22,0,22,0,,,,,,nelvet,nw,h,lower,,,,,,,1,nw,HiDemTar,h,1,0.5924664129006487,,,,,,,,,,,,,,,,,,,335,2023-11-20_12h50.53.048,leap3,2022.2.5,59.99565006660578,
,,,,,,,,,,,,,,,,,,,,2,0,2,0,23,0,23,0,,,,,,mitten,w,g,lower,,,,,,,1,w,HiDemTar,g,1,0.6399202097172747,,,,,,,,,,,,,,,,,,,335,2023-11-20_12h50.53.048,leap3,2022.2.5,59.99565006660578,
,,,,,,,,,,,,,,,,,,,,2,0,2,0,24,0,24,0,,,,,,pakened,nw,h,lower,,,,,,,1,nw,HiDemTar,h,1,0.8043483523169925,,,,,,,,,,,,,,,,,,,335,2023-11-20_12h50.53.048,leap3,2022.2.5,59.99565006660578,
,,,,,,,,,,,,,,,,,,,,2,0,2,0,25,0,25,0,,,,,,spider,target,q,lower,,,,,,,1,target,HiDemTar,q,1,0.5310471260690974,1,,,,,,,,,,,,,,,,,,335,2023-11-20_12h50.53.048,leap3,2022.2.5,59.99565006660578,
,,,,,,,,,,,,,,,,,,,,2,0,2,0,26,0,26,0,,,,,,treenery,nw,h,lower,,,,,,,1,aftertar1,HiDemTar,h,1,0.7812294624045535,,,,,,,,,,,,,,,,,,,335,2023-11-20_12h50.53.048,leap3,2022.2.5,59.99565006660578,
,,,,,,,,,,,,,,,,,,,,2,0,2,0,27,0,27,0,,,,,,valif,nw,h,lower,,,,,,,1,aftertar2,HiDemTar,h,1,0.6053198416348096,,,,,,,,,,,,,,,,,,,335,2023-11-20_12h50.53.048,leap3,2022.2.5,59.99565006660578,
,,,,,,,,,,,,,,,,,,,,2,0,2,0,28,0,28,0,,,,,,gumdrep,nw,h,lower,,,,,,,1,aftertar3,HiDemTar,h,1,0.6360099519697542,,,,,,,,,,,,,,,,,,,335,2023-11-20_12h50.53.048,leap3,2022.2.5,59.99565006660578,
,,,,,,,,,,,,,,,,,,,,2,0,2,0,29,0,29,0,,,,,,illness,w,g,lower,,,,,,,1,nw,HiDemTar,g,1,0.5453923524000857,,,,,,,,,,,,,,,,,,,335,2023-11-20_12h50.53.048,leap3,2022.2.5,59.99565006660578,
,,,,,,,,,,,,,,,,,,,,2,0,2,0,,,,,,,,,,,,,,,,,,,,,,,,,,,1,,,,,,,,,,,,,,,,,335,2023-11-20_12h50.53.048,leap3,2022.2.5,59.99565006660578,
,,,,,,,,,,,,,,,,,,,,3,0,3,0,0,0,0,0,,,,,,ebciting,nw,h,lower,,,,,,,1,nw,HiDemTar,h,1,0.5461938708158414,,,,,,,,,,,,,,,,,,,335,2023-11-20_12h50.53.048,leap3,2022.2.5,59.99565006660578,
,,,,,,,,,,,,,,,,,,,,3,0,3,0,1,0,1,0,,,,,,impirt,nw,h,lower,,,,,,,1,nw,HiDemTar,h,1,0.731513801145411,,,,,,,,,,,,,,,,,,,335,2023-11-20_12h50.53.048,leap3,2022.2.5,59.99565006660578,
,,,,,,,,,,,,,,,,,,,,3,0,3,0,2,0,2,0,,,,,,mebase,nw,h,lower,,,,,,,1,nw,HiDemTar,h,1,0.6615926585063789,,,,,,,,,,,,,,,,,,,335,2023-11-20_12h50.53.048,leap3,2022.2.5,59.99565006660578,
,,,,,,,,,,,,,,,,,,,,3,0,3,0,3,0,3,0,,,,,,image,w,g,lower,,,,,,,1,w,HiDemTar,g,1,0.47430948810961127,,,,,,,,,,,,,,,,,,,335,2023-11-20_12h50.53.048,leap3,2022.2.5,59.99565006660578,
,,,,,,,,,,,,,,,,,,,,3,0,3,0,4,0,4,0,,,,,,ifkling,nw,h,lower,,,,,,,1,nw,HiDemTar,h,1,0.542381940605992,,,,,,,,,,,,,,,,,,,335,2023-11-20_12h50.53.048,leap3,2022.2.5,59.99565006660578,
,,,,,,,,,,,,,,,,,,,,3,0,3,0,5,0,5,0,,,,,,tibs,nw,h,lower,,,,,,,1,nw,HiDemTar,h,1,0.6318119951301924,,,,,,,,,,,,,,,,,,,335,2023-11-20_12h50.53.048,leap3,2022.2.5,59.99565006660578,
,,,,,,,,,,,,,,,,,,,,3,0,3,0,6,0,6,0,,,,,,sonnet,w,g,lower,,,,,,,1,w,HiDemTar,g,1,0.669934276845197,,,,,,,,,,,,,,,,,,,335,2023-11-20_12h50.53.048,leap3,2022.2.5,59.99565006660578,
,,,,,,,,,,,,,,,,,,,,3,0,3,0,7,0,7,0,,,,,,culer,nw,h,lower,,,,,,,1,nw,HiDemTar,h,1,0.5939691357780248,,,,,,,,,,,,,,,,,,,335,2023-11-20_12h50.53.048,leap3,2022.2.5,59.99565006660578,
,,,,,,,,,,,,,,,,,,,,3,0,3,0,8,0,8,0,,,,,,preclude,w,g,lower,,,,,,,1,w,HiDemTar,g,1,0.8974175189523521,,,,,,,,,,,,,,,,,,,335,2023-11-20_12h50.53.048,leap3,2022.2.5,59.99565006660578,
,,,,,,,,,,,,,,,,,,,,3,0,3,0,9,0,9,0,,,,,,oldest,w,g,lower,,,,,,,1,w,HiDemTar,h,0,0.443798155114564,,,,,,,,,,,,,,,,,,,335,2023-11-20_12h50.53.048,leap3,2022.2.5,59.99565006660578,
,,,,,,,,,,,,,,,,,,,,3,0,3,0,10,0,10,0,,,,,,sludding,nw,h,lower,,,,,,,1,nw,HiDemTar,h,1,0.9611281353800223,,,,,,,,,,,,,,,,,,,335,2023-11-20_12h50.53.048,leap3,2022.2.5,59.99565006660578,
,,,,,,,,,,,,,,,,,,,,3,0,3,0,11,0,11,0,,,,,,farochial,nw,h,lower,,,,,,,1,nw,HiDemTar,h,1,0.5858397327656348,,,,,,,,,,,,,,,,,,,335,2023-11-20_12h50.53.048,leap3,2022.2.5,59.99565006660578,
,,,,,,,,,,,,,,,,,,,,3,0,3,0,12,0,12,0,,,,,,railway,w,g,lower,,,,,,,1,w,HiDemTar,g,1,0.4973048892270526,,,,,,,,,,,,,,,,,,,335,2023-11-20_12h50.53.048,leap3,2022.2.5,59.99565006660578,
,,,,,,,,,,,,,,,,,,,,3,0,3,0,13,0,13,0,,,,,,hivinity,nw,h,lower,,,,,,,1,nw,HiDemTar,h,1,0.6046053944055529,,,,,,,,,,,,,,,,,,,335,2023-11-20_12h50.53.048,leap3,2022.2.5,59.99565006660578,
,,,,,,,,,,,,,,,,,,,,3,0,3,0,14,0,14,0,,,,,,inverted,w,g,lower,,,,,,,1,w,HiDemTar,g,1,0.5873768868350453,,,,,,,,,,,,,,,,,,,335,2023-11-20_12h50.53.048,leap3,2022.2.5,59.99565006660578,
,,,,,,,,,,,,,,,,,,,,3,0,3,0,15,0,15,0,,,,,,design,w,g,lower,,,,,,,1,w,HiDemTar,g,1,0.5308011416900627,,,,,,,,,,,,,,,,,,,335,2023-11-20_12h50.53.048,leap3,2022.2.5,59.99565006660578,
,,,,,,,,,,,,,,,,,,,,3,0,3,0,16,0,16,0,,,,,,poughest,nw,h,lower,,,,,,,1,nw,HiDemTar,h,1,0.6200183187493167,,,,,,,,,,,,,,,,,,,335,2023-11-20_12h50.53.048,leap3,2022.2.5,59.99565006660578,
,,,,,,,,,,,,,,,,,,,,3,0,3,0,17,0,17,0,,,,,,temelity,nw,h,lower,,,,,,,1,nw,HiDemTar,h,1,0.6830413045499881,,,,,,,,,,,,,,,,,,,335,2023-11-20_12h50.53.048,leap3,2022.2.5,59.99565006660578,
,,,,,,,,,,,,,,,,,,,,3,0,3,0,18,0,18,0,,,,,,handbook,w,g,lower,,,,,,,1,w,HiDemTar,g,1,0.5821784390200264,,,,,,,,,,,,,,,,,,,335,2023-11-20_12h50.53.048,leap3,2022.2.5,59.99565006660578,
,,,,,,,,,,,,,,,,,,,,3,0,3,0,19,0,19,0,,,,,,geissue,nw,h,lower,,,,,,,1,nw,HiDemTar,h,1,0.49411205833166605,,,,,,,,,,,,,,,,,,,335,2023-11-20_12h50.53.048,leap3,2022.2.5,59.99565006660578,
,,,,,,,,,,,,,,,,,,,,3,0,3,0,20,0,20,0,,,,,,dominion,w,g,lower,,,,,,,1,w,HiDemTar,g,1,0.48149534404001315,,,,,,,,,,,,,,,,,,,335,2023-11-20_12h50.53.048,leap3,2022.2.5,59.99565006660578,
,,,,,,,,,,,,,,,,,,,,3,0,3,0,21,0,21,0,,,,,,throttle,w,g,lower,,,,,,,1,w,HiDemTar,g,1,0.685628609968262,,,,,,,,,,,,,,,,,,,335,2023-11-20_12h50.53.048,leap3,2022.2.5,59.99565006660578,
,,,,,,,,,,,,,,,,,,,,3,0,3,0,22,0,22,0,,,,,,puggers,nw,h,lower,,,,,,,1,nw,HiDemTar,h,1,0.625047259159146,,,,,,,,,,,,,,,,,,,335,2023-11-20_12h50.53.048,leap3,2022.2.5,59.99565006660578,
,,,,,,,,,,,,,,,,,,,,3,0,3,0,23,0,23,0,,,,,,neuran,nw,h,lower,,,,,,,1,nw,HiDemTar,h,1,0.6311601199704455,,,,,,,,,,,,,,,,,,,335,2023-11-20_12h50.53.048,leap3,2022.2.5,59.99565006660578,
,,,,,,,,,,,,,,,,,,,,3,0,3,0,24,0,24,0,,,,,,medium,w,g,lower,,,,,,,1,w,HiDemTar,g,1,0.5972195727063081,,,,,,,,,,,,,,,,,,,335,2023-11-20_12h50.53.048,leap3,2022.2.5,59.99565006660578,
,,,,,,,,,,,,,,,,,,,,3,0,3,0,25,0,25,0,,,,,,attract,w,g,lower,,,,,,,1,w,HiDemTar,g,1,0.5565884489624295,,,,,,,,,,,,,,,,,,,335,2023-11-20_12h50.53.048,leap3,2022.2.5,59.99565006660578,
,,,,,,,,,,,,,,,,,,,,3,0,3,0,26,0,26,0,,,,,,dolphin,target,q,lower,,,,,,,1,target,HiDemTar,q,1,0.517343842822811,1,,,,,,,,,,,,,,,,,,335,2023-11-20_12h50.53.048,leap3,2022.2.5,59.99565006660578,
,,,,,,,,,,,,,,,,,,,,3,0,3,0,27,0,27,0,,,,,,caution,w,g,lower,,,,,,,1,aftertar1,HiDemTar,g,1,0.6074274278525991,,,,,,,,,,,,,,,,,,,335,2023-11-20_12h50.53.048,leap3,2022.2.5,59.99565006660578,
,,,,,,,,,,,,,,,,,,,,3,0,3,0,28,0,28,0,,,,,,hegacy,nw,h,lower,,,,,,,1,aftertar2,HiDemTar,h,1,0.5892805344556109,,,,,,,,,,,,,,,,,,,335,2023-11-20_12h50.53.048,leap3,2022.2.5,59.99565006660578,
,,,,,,,,,,,,,,,,,,,,3,0,3,0,29,0,29,0,,,,,,irregular,w,g,lower,,,,,,,1,aftertar3,HiDemTar,g,1,0.5485355229238849,,,,,,,,,,,,,,,,,,,335,2023-11-20_12h50.53.048,leap3,2022.2.5,59.99565006660578,
,,,,,,,,,,,,,,,,,,,,3,0,3,0,,,,,,,,,,,,,,,,,,,,,,,,,,,1,,,,,,,,,,,,,,,,,335,2023-11-20_12h50.53.048,leap3,2022.2.5,59.99565006660578,
,,,,,,,,,,,,,,,,,,,,4,0,4,0,0,0,0,0,,,,,,roaned,nw,h,lower,,,,,,,1,nw,HiDemTar,h,1,0.5342641250135785,,,,,,,,,,,,,,,,,,,335,2023-11-20_12h50.53.048,leap3,2022.2.5,59.99565006660578,
,,,,,,,,,,,,,,,,,,,,4,0,4,0,1,0,1,0,,,,,,hutting,nw,h,lower,,,,,,,1,nw,HiDemTar,g,0,0.4476614010427511,,,,,,,,,,,,,,,,,,,335,2023-11-20_12h50.53.048,leap3,2022.2.5,59.99565006660578,
,,,,,,,,,,,,,,,,,,,,4,0,4,0,2,0,2,0,,,,,,ucility,nw,h,lower,,,,,,,1,nw,HiDemTar,h,1,0.7090736029931577,,,,,,,,,,,,,,,,,,,335,2023-11-20_12h50.53.048,leap3,2022.2.5,59.99565006660578,
,,,,,,,,,,,,,,,,,,,,4,0,4,0,3,0,3,0,,,,,,slogan,w,g,lower,,,,,,,1,w,HiDemTar,g,1,0.5428646394284442,,,,,,,,,,,,,,,,,,,335,2023-11-20_12h50.53.048,leap3,2022.2.5,59.99565006660578,
,,,,,,,,,,,,,,,,,,,,4,0,4,0,4,0,4,0,,,,,,footstep,w,g,lower,,,,,,,1,w,HiDemTar,g,1,0.6241917764718892,,,,,,,,,,,,,,,,,,,335,2023-11-20_12h50.53.048,leap3,2022.2.5,59.99565006660578,
,,,,,,,,,,,,,,,,,,,,4,0,4,0,5,0,5,0,,,,,,brimitive,nw,h,lower,,,,,,,1,nw,HiDemTar,h,1,0.5742158948596625,,,,,,,,,,,,,,,,,,,335,2023-11-20_12h50.53.048,leap3,2022.2.5,59.99565006660578,
,,,,,,,,,,,,,,,,,,,,4,0,4,0,6,0,6,0,,,,,,glattery,nw,h,lower,,,,,,,1,nw,HiDemTar,g,0,0.3823315253957844,,,,,,,,,,,,,,,,,,,335,2023-11-20_12h50.53.048,leap3,2022.2.5,59.99565006660578,
,,,,,,,,,,,,,,,,,,,,4,0,4,0,7,0,7,0,,,,,,relaying,w,g,lower,,,,,,,1,w,HiDemTar,g,1,0.7183895578455122,,,,,,,,,,,,,,,,,,,335,2023-11-20_12h50.53.048,leap3,2022.2.5,59.99565006660578,
,,,,,,,,,,,,,,,,,,,,4,0,4,0,8,0,8,0,,,,,,comment,w,g,lower,,,,,,,1,w,HiDemTar,g,1,0.6005259603216473,,,,,,,,,,,,,,,,,,,335,2023-11-20_12h50.53.048,leap3,2022.2.5,59.99565006660578,
,,,,,,,,,,,,,,,,,,,,4,0,4,0,9,0,9,0,,,,,,jaguar,target,q,lower,,,,,,,1,target,HiDemTar,g,0,0.46310743230242224,,,,,,,,,,,,,,,,,,,335,2023-11-20_12h50.53.048,leap3,2022.2.5,59.99565006660578,
,,,,,,,,,,,,,,,,,,,,4,0,4,0,10,0,10,0,,,,,,unwose,nw,h,lower,,,,,,,1,aftertar1,HiDemTar,h,1,2.692026190249635,,,,,,,,,,,,,,,,,,,335,2023-11-20_12h50.53.048,leap3,2022.2.5,59.99565006660578,
,,,,,,,,,,,,,,,,,,,,4,0,4,0,11,0,11,0,,,,,,purpose,w,g,lower,,,,,,,1,aftertar2,HiDemTar,g,1,0.6872528352241716,,,,,,,,,,,,,,,,,,,335,2023-11-20_12h50.53.048,leap3,2022.2.5,59.99565006660578,
,,,,,,,,,,,,,,,,,,,,4,0,4,0,12,0,12,0,,,,,,iflaid,nw,h,lower,,,,,,,1,aftertar3,HiDemTar,h,1,0.553966050213603,,,,,,,,,,,,,,,,,,,335,2023-11-20_12h50.53.048,leap3,2022.2.5,59.99565006660578,
,,,,,,,,,,,,,,,,,,,,4,0,4,0,13,0,13,0,,,,,,scack,nw,h,lower,,,,,,,1,nw,HiDemTar,h,1,0.9385839815149666,,,,,,,,,,,,,,,,,,,335,2023-11-20_12h50.53.048,leap3,2022.2.5,59.99565006660578,
,,,,,,,,,,,,,,,,,,,,4,0,4,0,14,0,14,0,,,,,,plartly,nw,h,lower,,,,,,,1,nw,HiDemTar,h,1,0.6040849536993846,,,,,,,,,,,,,,,,,,,335,2023-11-20_12h50.53.048,leap3,2022.2.5,59.99565006660578,
,,,,,,,,,,,,,,,,,,,,4,0,4,0,15,0,15,0,,,,,,statute,w,g,lower,,,,,,,1,nw,HiDemTar,g,1,0.5468030380543496,,,,,,,,,,,,,,,,,,,335,2023-11-20_12h50.53.048,leap3,2022.2.5,59.99565006660578,
,,,,,,,,,,,,,,,,,,,,4,0,4,0,16,0,16,0,,,,,,encounter,w,g,lower,,,,,,,1,w,HiDemTar,g,1,0.6202202709318954,,,,,,,,,,,,,,,,,,,335,2023-11-20_12h50.53.048,leap3,2022.2.5,59.99565006660578,
,,,,,,,,,,,,,,,,,,,,4,0,4,0,17,0,17,0,,,,,,rantho,nw,h,lower,,,,,,,1,w,HiDemTar,h,1,0.5542600396202033,,,,,,,,,,,,,,,,,,,335,2023-11-20_12h50.53.048,leap3,2022.2.5,59.99565006660578,
,,,,,,,,,,,,,,,,,,,,4,0,4,0,18,0,18,0,,,,,,listless,w,g,lower,,,,,,,1,nw,HiDemTar,g,1,0.6990832602805312,,,,,,,,,,,,,,,,,,,335,2023-11-20_12h50.53.048,leap3,2022.2.5,59.99565006660578,
,,,,,,,,,,,,,,,,,,,,4,0,4,0,19,0,19,0,,,,,,roodies,nw,h,lower,,,,,,,1,w,HiDemTar,h,1,0.7903977604146348,,,,,,,,,,,,,,,,,,,335,2023-11-20_12h50.53.048,leap3,2022.2.5,59.99565006660578,
,,,,,,,,,,,,,,,,,,,,4,0,4,0,20,0,20,0,,,,,,paranoid,w,g,lower,,,,,,,1,nw,HiDemTar,g,1,0.5498465567625317,,,,,,,,,,,,,,,,,,,335,2023-11-20_12h50.53.048,leap3,2022.2.5,59.99565006660578,
,,,,,,,,,,,,,,,,,,,,4,0,4,0,21,0,21,0,,,,,,obviously,w,g,lower,,,,,,,1,w,HiDemTar,h,0,0.5262833720498747,,,,,,,,,,,,,,,,,,,335,2023-11-20_12h50.53.048,leap3,2022.2.5,59.99565006660578,
,,,,,,,,,,,,,,,,,,,,4,0,4,0,22,0,22,0,,,,,,cartles,nw,h,lower,,,,,,,1,w,HiDemTar,h,1,0.616377882361121,,,,,,,,,,,,,,,,,,,335,2023-11-20_12h50.53.048,leap3,2022.2.5,59.99565006660578,
,,,,,,,,,,,,,,,,,,,,4,0,4,0,23,0,23,0,,,,,,manage,w,g,lower,,,,,,,1,nw,HiDemTar,g,1,0.5270425136141057,,,,,,,,,,,,,,,,,,,335,2023-11-20_12h50.53.048,leap3,2022.2.5,59.99565006660578,
,,,,,,,,,,,,,,,,,,,,4,0,4,0,24,0,24,0,,,,,,gures,nw,h,lower,,,,,,,1,w,HiDemTar,h,1,0.5531509579632257,,,,,,,,,,,,,,,,,,,335,2023-11-20_12h50.53.048,leap3,2022.2.5,59.99565006660578,
,,,,,,,,,,,,,,,,,,,,4,0,4,0,25,0,25,0,,,,,,ergonomic,w,g,lower,,,,,,,1,nw,HiDemTar,g,1,0.7058648807787904,,,,,,,,,,,,,,,,,,,335,2023-11-20_12h50.53.048,leap3,2022.2.5,59.99565006660578,
,,,,,,,,,,,,,,,,,,,,4,0,4,0,26,0,26,0,,,,,,tritical,nw,h,lower,,,,,,,1,w,HiDemTar,h,1,0.764572380190657,,,,,,,,,,,,,,,,,,,335,2023-11-20_12h50.53.048,leap3,2022.2.5,59.99565006660578,
,,,,,,,,,,,,,,,,,,,,4,0,4,0,27,0,27,0,,,,,,ignore,w,g,lower,,,,,,,1,nw,HiDemTar,g,1,0.4773136095891459,,,,,,,,,,,,,,,,,,,335,2023-11-20_12h50.53.048,leap3,2022.2.5,59.99565006660578,
,,,,,,,,,,,,,,,,,,,,4,0,4,0,28,0,28,0,,,,,,reborn,w,g,lower,,,,,,,1,w,HiDemTar,g,1,0.5533896588212883,,,,,,,,,,,,,,,,,,,335,2023-11-20_12h50.53.048,leap3,2022.2.5,59.99565006660578,
,,,,,,,,,,,,,,,,,,,,4,0,4,0,29,0,29,0,,,,,,argue,w,g,lower,,,,,,,1,w,HiDemTar,g,1,0.3941036822816386,,,,,,,,,,,,,,,,,,,335,2023-11-20_12h50.53.048,leap3,2022.2.5,59.99565006660578,
,,,,,,,,,,,,,,,,,,,,4,0,4,0,,,,,,,,,,,,,,,,,,,,,,,,,,,0,,,,,,,,,,,,,,,,,335,2023-11-20_12h50.53.048,leap3,2022.2.5,59.99565006660578,
,,,,,,,,,,,,,,,,,,,,5,0,5,0,0,0,0,0,,,,,,rander,nw,h,upper,,,,,,,3,nw,LoDemNoTar,g,0,0.5847932231772575,,,,,,,,,,,,,,,,,,,335,2023-11-20_12h50.53.048,leap3,2022.2.5,59.99565006660578,
,,,,,,,,,,,,,,,,,,,,5,0,5,0,1,0,1,0,,,,,,glaims,nw,h,upper,,,,,,,3,nw,LoDemNoTar,g,0,0.5842582154291449,,,,,,,,,,,,,,,,,,,335,2023-11-20_12h50.53.048,leap3,2022.2.5,59.99565006660578,
,,,,,,,,,,,,,,,,,,,,5,0,5,0,2,0,2,0,,,,,,daining,nw,h,upper,,,,,,,3,nw,LoDemNoTar,h,1,0.6475540022101995,,,,,,,,,,,,,,,,,,,335,2023-11-20_12h50.53.048,leap3,2022.2.5,59.99565006660578,
,,,,,,,,,,,,,,,,,,,,5,0,5,0,3,0,3,0,,,,,,angry,w,g,upper,,,,,,,3,w,LoDemNoTar,g,1,0.5569281259113268,,,,,,,,,,,,,,,,,,,335,2023-11-20_12h50.53.048,leap3,2022.2.5,59.99565006660578,
,,,,,,,,,,,,,,,,,,,,5,0,5,0,4,0,4,0,,,,,,worps,nw,h,upper,,,,,,,3,nw,LoDemNoTar,h,1,0.5817126247238775,,,,,,,,,,,,,,,,,,,335,2023-11-20_12h50.53.048,leap3,2022.2.5,59.99565006660578,
,,,,,,,,,,,,,,,,,,,,5,0,5,0,5,0,5,0,,,,,,mestowal,nw,h,upper,,,,,,,3,nw,LoDemNoTar,g,0,0.5493201568124277,,,,,,,,,,,,,,,,,,,335,2023-11-20_12h50.53.048,leap3,2022.2.5,59.99565006660578,
,,,,,,,,,,,,,,,,,,,,5,0,5,0,6,0,6,0,,,,,,resonant,w,g,upper,,,,,,,3,w,LoDemNoTar,h,0,0.7182849399941915,,,,,,,,,,,,,,,,,,,335,2023-11-20_12h50.53.048,leap3,2022.2.5,59.99565006660578,
,,,,,,,,,,,,,,,,,,,,5,0,5,0,7,0,7,0,,,,,,envelop,w,g,upper,,,,,,,3,w,LoDemNoTar,g,1,0.6170886878280726,,,,,,,,,,,,,,,,,,,335,2023-11-20_12h50.53.048,leap3,2022.2.5,59.99565006660578,
,,,,,,,,,,,,,,,,,,,,5,0,5,0,8,0,8,0,,,,,,beartiset,nw,h,upper,,,,,,,3,nw,LoDemNoTar,h,1,0.5677252841469453,,,,,,,,,,,,,,,,,,,335,2023-11-20_12h50.53.048,leap3,2022.2.5,59.99565006660578,
,,,,,,,,,,,,,,,,,,,,5,0,5,0,9,0,9,0,,,,,,submit,w,g,upper,,,,,,,3,w,LoDemNoTar,g,1,0.8639080237235248,,,,,,,,,,,,,,,,,,,335,2023-11-20_12h50.53.048,leap3,2022.2.5,59.99565006660578,
,,,,,,,,,,,,,,,,,,,,5,0,5,0,10,0,10,0,,,,,,collute,nw,h,upper,,,,,,,3,nw,LoDemNoTar,h,1,0.9725847833651642,,,,,,,,,,,,,,,,,,,335,2023-11-20_12h50.53.048,leap3,2022.2.5,59.99565006660578,
,,,,,,,,,,,,,,,,,,,,5,0,5,0,11,0,11,0,,,,,,humanize,w,g,upper,,,,,,,3,w,LoDemNoTar,g,1,0.5486394786366873,,,,,,,,,,,,,,,,,,,335,2023-11-20_12h50.53.048,leap3,2022.2.5,59.99565006660578,
,,,,,,,,,,,,,,,,,,,,5,0,5,0,12,0,12,0,,,,,,brother,w,g,upper,,,,,,,3,w,LoDemNoTar,g,1,0.45417584873484884,,,,,,,,,,,,,,,,,,,335,2023-11-20_12h50.53.048,leap3,2022.2.5,59.99565006660578,
,,,,,,,,,,,,,,,,,,,,5,0,5,0,13,0,13,0,,,,,,sullen,w,g,upper,,,,,,,3,w,LoDemNoTar,h,0,0.570886332403461,,,,,,,,,,,,,,,,,,,335,2023-11-20_12h50.53.048,leap3,2022.2.5,59.99565006660578,
,,,,,,,,,,,,,,,,,,,,5,0,5,0,14,0,14,0,,,,,,ofsters,nw,h,upper,,,,,,,3,nw,LoDemNoTar,h,1,0.6829042419212783,,,,,,,,,,,,,,,,,,,335,2023-11-20_12h50.53.048,leap3,2022.2.5,59.99565006660578,
,,,,,,,,,,,,,,,,,,,,5,0,5,0,15,0,15,0,,,,,,volition,w,g,upper,,,,,,,3,w,LoDemNoTar,g,1,0.6380311291386533,,,,,,,,,,,,,,,,,,,335,2023-11-20_12h50.53.048,leap3,2022.2.5,59.99565006660578,
,,,,,,,,,,,,,,,,,,,,5,0,5,0,16,0,16,0,,,,,,serving,w,g,upper,,,,,,,3,w,LoDemNoTar,g,1,0.5393288208915692,,,,,,,,,,,,,,,,,,,335,2023-11-20_12h50.53.048,leap3,2022.2.5,59.99565006660578,
,,,,,,,,,,,,,,,,,,,,5,0,5,0,17,0,17,0,,,,,,summon,w,g,upper,,,,,,,3,w,LoDemNoTar,g,1,0.46879486925354286,,,,,,,,,,,,,,,,,,,335,2023-11-20_12h50.53.048,leap3,2022.2.5,59.99565006660578,
,,,,,,,,,,,,,,,,,,,,5,0,5,0,18,0,18,0,,,,,,edasion,nw,h,upper,,,,,,,3,nw,LoDemNoTar,h,1,0.5848375864443369,,,,,,,,,,,,,,,,,,,335,2023-11-20_12h50.53.048,leap3,2022.2.5,59.99565006660578,
,,,,,,,,,,,,,,,,,,,,5,0,5,0,19,0,19,0,,,,,,cassette,w,g,upper,,,,,,,3,w,LoDemNoTar,g,1,0.624241436844386,,,,,,,,,,,,,,,,,,,335,2023-11-20_12h50.53.048,leap3,2022.2.5,59.99565006660578,
,,,,,,,,,,,,,,,,,,,,5,0,5,0,20,0,20,0,,,,,,unamufed,nw,h,upper,,,,,,,3,nw,LoDemNoTar,h,1,0.5342796852637548,,,,,,,,,,,,,,,,,,,335,2023-11-20_12h50.53.048,leap3,2022.2.5,59.99565006660578,
,,,,,,,,,,,,,,,,,,,,5,0,5,0,21,0,21,0,,,,,,digar,nw,h,upper,,,,,,,3,nw,LoDemNoTar,h,1,0.5997641702042529,,,,,,,,,,,,,,,,,,,335,2023-11-20_12h50.53.048,leap3,2022.2.5,59.99565006660578,
,,,,,,,,,,,,,,,,,,,,5,0,5,0,22,0,22,0,,,,,,godomy,nw,h,upper,,,,,,,3,nw,LoDemNoTar,h,1,0.5910782399487289,,,,,,,,,,,,,,,,,,,335,2023-11-20_12h50.53.048,leap3,2022.2.5,59.99565006660578,
,,,,,,,,,,,,,,,,,,,,5,0,5,0,23,0,23,0,,,,,,reloant,nw,h,upper,,,,,,,3,nw,LoDemNoTar,h,1,0.6465137829363812,,,,,,,,,,,,,,,,,,,335,2023-11-20_12h50.53.048,leap3,2022.2.5,59.99565006660578,
,,,,,,,,,,,,,,,,,,,,5,0,5,0,24,0,24,0,,,,,,dests,nw,h,upper,,,,,,,3,nw,LoDemNoTar,g,0,0.747930527155404,,,,,,,,,,,,,,,,,,,335,2023-11-20_12h50.53.048,leap3,2022.2.5,59.99565006660578,
,,,,,,,,,,,,,,,,,,,,5,0,5,0,25,0,25,0,,,,,,patio,w,g,upper,,,,,,,3,w,LoDemNoTar,g,1,0.6923589147463645,,,,,,,,,,,,,,,,,,,335,2023-11-20_12h50.53.048,leap3,2022.2.5,59.99565006660578,
,,,,,,,,,,,,,,,,,,,,5,0,5,0,26,0,26,0,,,,,,gestalion,nw,h,upper,,,,,,,3,nw,LoDemNoTar,h,1,0.631773591107958,,,,,,,,,,,,,,,,,,,335,2023-11-20_12h50.53.048,leap3,2022.2.5,59.99565006660578,
,,,,,,,,,,,,,,,,,,,,5,0,5,0,27,0,27,0,,,,,,inside,w,g,upper,,,,,,,3,w,LoDemNoTar,g,1,0.4138291133913299,,,,,,,,,,,,,,,,,,,335,2023-11-20_12h50.53.048,leap3,2022.2.5,59.99565006660578,
,,,,,,,,,,,,,,,,,,,,5,0,5,0,28,0,28,0,,,,,,probable,w,g,upper,,,,,,,3,w,LoDemNoTar,g,1,0.5084735070495299,,,,,,,,,,,,,,,,,,,335,2023-11-20_12h50.53.048,leap3,2022.2.5,59.99565006660578,
,,,,,,,,,,,,,,,,,,,,5,0,5,0,29,0,29,0,,,,,,marinate,w,g,upper,,,,,,,3,w,LoDemNoTar,g,1,0.5592432924868262,,,,,,,,,,,,,,,,,,,335,2023-11-20_12h50.53.048,leap3,2022.2.5,59.99565006660578,
,,,,,,,,,,,,,,,,,,,,5,0,5,0,,,,,,,,,,,,,,,,,,,,,,,,,,,NA,,,,,,,,,,,,,,,,,335,2023-11-20_12h50.53.048,leap3,2022.2.5,59.99565006660578,
,,,,,,,,,,,,,,,,,,,,6,0,6,0,0,0,0,0,,,,,,flacked,nw,h,upper,,,,,,,3,nw,LoDemNoTar,g,0,0.7446840630573206,,,,,,,,,,,,,,,,,,,335,2023-11-20_12h50.53.048,leap3,2022.2.5,59.99565006660578,
,,,,,,,,,,,,,,,,,,,,6,0,6,0,1,0,1,0,,,,,,portify,nw,h,upper,,,,,,,3,nw,LoDemNoTar,g,0,0.5772074357118981,,,,,,,,,,,,,,,,,,,335,2023-11-20_12h50.53.048,leap3,2022.2.5,59.99565006660578,
,,,,,,,,,,,,,,,,,,,,6,0,6,0,2,0,2,0,,,,,,esdings,nw,h,upper,,,,,,,3,nw,LoDemNoTar,h,1,0.7613232675375912,,,,,,,,,,,,,,,,,,,335,2023-11-20_12h50.53.048,leap3,2022.2.5,59.99565006660578,
,,,,,,,,,,,,,,,,,,,,6,0,6,0,3,0,3,0,,,,,,virulent,w,g,upper,,,,,,,3,w,LoDemNoTar,g,1,0.7460258863284253,,,,,,,,,,,,,,,,,,,335,2023-11-20_12h50.53.048,leap3,2022.2.5,59.99565006660578,
,,,,,,,,,,,,,,,,,,,,6,0,6,0,4,0,4,0,,,,,,apticle,nw,h,upper,,,,,,,3,nw,LoDemNoTar,h,1,0.7075539955894783,,,,,,,,,,,,,,,,,,,335,2023-11-20_12h50.53.048,leap3,2022.2.5,59.99565006660578,
,,,,,,,,,,,,,,,,,,,,6,0,6,0,5,0,5,0,,,,,,trembla,nw,h,upper,,,,,,,3,nw,LoDemNoTar,h,1,1.0063167570633595,,,,,,,,,,,,,,,,,,,335,2023-11-20_12h50.53.048,leap3,2022.2.5,59.99565006660578,
,,,,,,,,,,,,,,,,,,,,6,0,6,0,6,0,6,0,,,,,,living,w,g,upper,,,,,,,3,w,LoDemNoTar,g,1,0.5890650084393201,,,,,,,,,,,,,,,,,,,335,2023-11-20_12h50.53.048,leap3,2022.2.5,59.99565006660578,
,,,,,,,,,,,,,,,,,,,,6,0,6,0,7,0,7,0,,,,,,deadly,w,g,upper,,,,,,,3,w,LoDemNoTar,g,1,0.5405378854329683,,,,,,,,,,,,,,,,,,,335,2023-11-20_12h50.53.048,leap3,2022.2.5,59.99565006660578,
,,,,,,,,,,,,,,,,,,,,6,0,6,0,8,0,8,0,,,,,,anterior,w,g,upper,,,,,,,3,w,LoDemNoTar,g,1,0.5739361414262021,,,,,,,,,,,,,,,,,,,335,2023-11-20_12h50.53.048,leap3,2022.2.5,59.99565006660578,
,,,,,,,,,,,,,,,,,,,,6,0,6,0,9,0,9,0,,,,,,reason,w,g,upper,,,,,,,3,w,LoDemNoTar,g,1,0.4530826583968519,,,,,,,,,,,,,,,,,,,335,2023-11-20_12h50.53.048,leap3,2022.2.5,59.99565006660578,
,,,,,,,,,,,,,,,,,,,,6,0,6,0,10,0,10,0,,,,,,located,w,g,upper,,,,,,,3,w,LoDemNoTar,g,1,0.5296208801655666,,,,,,,,,,,,,,,,,,,335,2023-11-20_12h50.53.048,leap3,2022.2.5,59.99565006660578,
,,,,,,,,,,,,,,,,,,,,6,0,6,0,11,0,11,0,,,,,,noblest,w,g,upper,,,,,,,3,w,LoDemNoTar,g,1,0.5236897763170418,,,,,,,,,,,,,,,,,,,335,2023-11-20_12h50.53.048,leap3,2022.2.5,59.99565006660578,
,,,,,,,,,,,,,,,,,,,,6,0,6,0,12,0,12,0,,,,,,finstrel,nw,h,upper,,,,,,,3,nw,LoDemNoTar,h,1,0.6218137067580756,,,,,,,,,,,,,,,,,,,335,2023-11-20_12h50.53.048,leap3,2022.2.5,59.99565006660578,
,,,,,,,,,,,,,,,,,,,,6,0,6,0,13,0,13,0,,,,,,fission,w,g,upper,,,,,,,3,w,LoDemNoTar,g,1,0.5558286452596803,,,,,,,,,,,,,,,,,,,335,2023-11-20_12h50.53.048,leap3,2022.2.5,59.99565006660578,
,,,,,,,,,,,,,,,,,,,,6,0,6,0,14,0,14,0,,,,,,zears,nw,h,upper,,,,,,,3,nw,LoDemNoTar,h,1,0.5486345125991647,,,,,,,,,,,,,,,,,,,335,2023-11-20_12h50.53.048,leap3,2022.2.5,59.99565006660578,
,,,,,,,,,,,,,,,,,,,,6,0,6,0,15,0,15,0,,,,,,roughly,w,g,upper,,,,,,,3,w,LoDemNoTar,g,1,0.5100272145773488,,,,,,,,,,,,,,,,,,,335,2023-11-20_12h50.53.048,leap3,2022.2.5,59.99565006660578,
,,,,,,,,,,,,,,,,,,,,6,0,6,0,16,0,16,0,,,,,,dorte,nw,h,upper,,,,,,,3,nw,LoDemNoTar,h,1,0.49669737733438524,,,,,,,,,,,,,,,,,,,335,2023-11-20_12h50.53.048,leap3,2022.2.5,59.99565006660578,
,,,,,,,,,,,,,,,,,,,,6,0,6,0,17,0,17,0,,,,,,eightiech,nw,h,upper,,,,,,,3,nw,LoDemNoTar,g,0,0.5561355463632935,,,,,,,,,,,,,,,,,,,335,2023-11-20_12h50.53.048,leap3,2022.2.5,59.99565006660578,
,,,,,,,,,,,,,,,,,,,,6,0,6,0,18,0,18,0,,,,,,ilcurring,nw,h,upper,,,,,,,3,nw,LoDemNoTar,h,1,0.5568294673039418,,,,,,,,,,,,,,,,,,,335,2023-11-20_12h50.53.048,leap3,2022.2.5,59.99565006660578,
,,,,,,,,,,,,,,,,,,,,6,0,6,0,19,0,19,0,,,,,,strenuous,w,g,upper,,,,,,,3,w,LoDemNoTar,g,1,0.7807017381774131,,,,,,,,,,,,,,,,,,,335,2023-11-20_12h50.53.048,leap3,2022.2.5,59.99565006660578,
,,,,,,,,,,,,,,,,,,,,6,0,6,0,20,0,20,0,,,,,,typical,w,g,upper,,,,,,,3,w,LoDemNoTar,g,1,0.6606623541911176,,,,,,,,,,,,,,,,,,,335,2023-11-20_12h50.53.048,leap3,2022.2.5,59.99565006660578,
,,,,,,,,,,,,,,,,,,,,6,0,6,0,21,0,21,0,,,,,,galashes,nw,h,upper,,,,,,,3,nw,LoDemNoTar,h,1,0.5374245111333948,,,,,,,,,,,,,,,,,,,335,2023-11-20_12h50.53.048,leap3,2022.2.5,59.99565006660578,
,,,,,,,,,,,,,,,,,,,,6,0,6,0,22,0,22,0,,,,,,rationale,w,g,upper,,,,,,,3,w,LoDemNoTar,g,1,0.7068100832057098,,,,,,,,,,,,,,,,,,,335,2023-11-20_12h50.53.048,leap3,2022.2.5,59.99565006660578,
,,,,,,,,,,,,,,,,,,,,6,0,6,0,23,0,23,0,,,,,,require,w,g,upper,,,,,,,3,w,LoDemNoTar,g,1,0.46946991925415205,,,,,,,,,,,,,,,,,,,335,2023-11-20_12h50.53.048,leap3,2022.2.5,59.99565006660578,
,,,,,,,,,,,,,,,,,,,,6,0,6,0,24,0,24,0,,,,,,gelented,nw,h,upper,,,,,,,3,nw,LoDemNoTar,h,1,0.5295679091004786,,,,,,,,,,,,,,,,,,,335,2023-11-20_12h50.53.048,leap3,2022.2.5,59.99565006660578,
,,,,,,,,,,,,,,,,,,,,6,0,6,0,25,0,25,0,,,,,,restock,w,g,upper,,,,,,,3,w,LoDemNoTar,g,1,0.6116730586500125,,,,,,,,,,,,,,,,,,,335,2023-11-20_12h50.53.048,leap3,2022.2.5,59.99565006660578,
,,,,,,,,,,,,,,,,,,,,6,0,6,0,26,0,26,0,,,,,,vivid,w,g,upper,,,,,,,3,w,LoDemNoTar,g,1,0.4583112335049009,,,,,,,,,,,,,,,,,,,335,2023-11-20_12h50.53.048,leap3,2022.2.5,59.99565006660578,
,,,,,,,,,,,,,,,,,,,,6,0,6,0,27,0,27,0,,,,,,racile,nw,h,upper,,,,,,,3,nw,LoDemNoTar,h,1,0.6628212561272449,,,,,,,,,,,,,,,,,,,335,2023-11-20_12h50.53.048,leap3,2022.2.5,59.99565006660578,
,,,,,,,,,,,,,,,,,,,,6,0,6,0,28,0,28,0,,,,,,iolize,nw,h,upper,,,,,,,3,nw,LoDemNoTar,h,1,0.536791506915506,,,,,,,,,,,,,,,,,,,335,2023-11-20_12h50.53.048,leap3,2022.2.5,59.99565006660578,
,,,,,,,,,,,,,,,,,,,,6,0,6,0,29,0,29,0,,,,,,redefloy,nw,h,upper,,,,,,,3,nw,LoDemNoTar,h,1,0.7387307775770751,,,,,,,,,,,,,,,,,,,335,2023-11-20_12h50.53.048,leap3,2022.2.5,59.99565006660578,
,,,,,,,,,,,,,,,,,,,,6,0,6,0,,,,,,,,,,,,,,,,,,,,,,,,,,,NA,,,,,,,,,,,,,,,,,335,2023-11-20_12h50.53.048,leap3,2022.2.5,59.99565006660578,
,,,,,,,,,,,,,,,,,,,,7,0,7,0,0,0,0,0,,,,,,opert,nw,h,lower,,,,,,,2,nw,HiDemNoTar,h,1,0.5165853633980078,,,,,,,,,,,,,,,,,,,335,2023-11-20_12h50.53.048,leap3,2022.2.5,59.99565006660578,
,,,,,,,,,,,,,,,,,,,,7,0,7,0,1,0,1,0,,,,,,efficient,w,g,lower,,,,,,,2,w,HiDemNoTar,g,1,0.6705725781685032,,,,,,,,,,,,,,,,,,,335,2023-11-20_12h50.53.048,leap3,2022.2.5,59.99565006660578,
,,,,,,,,,,,,,,,,,,,,7,0,7,0,2,0,2,0,,,,,,region,w,g,lower,,,,,,,2,w,HiDemNoTar,g,1,0.5226584959109459,,,,,,,,,,,,,,,,,,,335,2023-11-20_12h50.53.048,leap3,2022.2.5,59.99565006660578,
,,,,,,,,,,,,,,,,,,,,7,0,7,0,3,0,3,0,,,,,,peahem,nw,h,lower,,,,,,,2,nw,HiDemNoTar,h,1,0.4767256307750358,,,,,,,,,,,,,,,,,,,335,2023-11-20_12h50.53.048,leap3,2022.2.5,59.99565006660578,
,,,,,,,,,,,,,,,,,,,,7,0,7,0,4,0,4,0,,,,,,icepick,w,g,lower,,,,,,,2,w,HiDemNoTar,h,0,0.6159855654159401,,,,,,,,,,,,,,,,,,,335,2023-11-20_12h50.53.048,leap3,2022.2.5,59.99565006660578,
,,,,,,,,,,,,,,,,,,,,7,0,7,0,5,0,5,0,,,,,,ufionize,nw,h,lower,,,,,,,2,nw,HiDemNoTar,h,1,0.6538069052730862,,,,,,,,,,,,,,,,,,,335,2023-11-20_12h50.53.048,leap3,2022.2.5,59.99565006660578,
,,,,,,,,,,,,,,,,,,,,7,0,7,0,6,0,6,0,,,,,,sporidic,nw,h,lower,,,,,,,2,nw,HiDemNoTar,h,1,1.2905925946106436,,,,,,,,,,,,,,,,,,,335,2023-11-20_12h50.53.048,leap3,2022.2.5,59.99565006660578,
,,,,,,,,,,,,,,,,,,,,7,0,7,0,7,0,7,0,,,,,,planar,w,g,lower,,,,,,,2,w,HiDemNoTar,g,1,0.8620156324550408,,,,,,,,,,,,,,,,,,,335,2023-11-20_12h50.53.048,leap3,2022.2.5,59.99565006660578,
,,,,,,,,,,,,,,,,,,,,7,0,7,0,8,0,8,0,,,,,,antique,w,g,lower,,,,,,,2,w,HiDemNoTar,g,1,0.4341858933730691,,,,,,,,,,,,,,,,,,,335,2023-11-20_12h50.53.048,leap3,2022.2.5,59.99565006660578,
,,,,,,,,,,,,,,,,,,,,7,0,7,0,9,0,9,0,,,,,,colicky,w,g,lower,,,,,,,2,w,HiDemNoTar,h,0,0.5434423550977954,,,,,,,,,,,,,,,,,,,335,2023-11-20_12h50.53.048,leap3,2022.2.5,59.99565006660578,
,,,,,,,,,,,,,,,,,,,,7,0,7,0,10,0,10,0,,,,,,thesis,w,g,lower,,,,,,,2,w,HiDemNoTar,g,1,0.4641863866663698,,,,,,,,,,,,,,,,,,,335,2023-11-20_12h50.53.048,leap3,2022.2.5,59.99565006660578,
,,,,,,,,,,,,,,,,,,,,7,0,7,0,11,0,11,0,,,,,,refebs,nw,h,lower,,,,,,,2,nw,HiDemNoTar,h,1,0.5242545802902896,,,,,,,,,,,,,,,,,,,335,2023-11-20_12h50.53.048,leap3,2022.2.5,59.99565006660578,
,,,,,,,,,,,,,,,,,,,,7,0,7,0,12,0,12,0,,,,,,frigs,nw,h,lower,,,,,,,2,nw,HiDemNoTar,h,1,0.5903525363683002,,,,,,,,,,,,,,,,,,,335,2023-11-20_12h50.53.048,leap3,2022.2.5,59.99565006660578,
,,,,,,,,,,,,,,,,,,,,7,0,7,0,13,0,13,0,,,,,,burrowing,w,g,lower,,,,,,,2,w,HiDemNoTar,g,1,0.652133681781379,,,,,,,,,,,,,,,,,,,335,2023-11-20_12h50.53.048,leap3,2022.2.5,59.99565006660578,
,,,,,,,,,,,,,,,,,,,,7,0,7,0,14,0,14,0,,,,,,ubefully,nw,h,lower,,,,,,,2,nw,HiDemNoTar,h,1,0.8247094361968266,,,,,,,,,,,,,,,,,,,335,2023-11-20_12h50.53.048,leap3,2022.2.5,59.99565006660578,
,,,,,,,,,,,,,,,,,,,,7,0,7,0,15,0,15,0,,,,,,become,w,g,lower,,,,,,,2,w,HiDemNoTar,g,1,0.40622544819143513,,,,,,,,,,,,,,,,,,,335,2023-11-20_12h50.53.048,leap3,2022.2.5,59.99565006660578,
,,,,,,,,,,,,,,,,,,,,7,0,7,0,16,0,16,0,,,,,,bumbo,nw,h,lower,,,,,,,2,nw,HiDemNoTar,h,1,0.6043160399667613,,,,,,,,,,,,,,,,,,,335,2023-11-20_12h50.53.048,leap3,2022.2.5,59.99565006660578,
,,,,,,,,,,,,,,,,,,,,7,0,7,0,17,0,17,0,,,,,,checkout,w,g,lower,,,,,,,2,w,HiDemNoTar,g,1,0.458317192749746,,,,,,,,,,,,,,,,,,,335,2023-11-20_12h50.53.048,leap3,2022.2.5,59.99565006660578,
,,,,,,,,,,,,,,,,,,,,7,0,7,0,18,0,18,0,,,,,,trooper,w,g,lower,,,,,,,2,w,HiDemNoTar,g,1,0.48638026936896495,,,,,,,,,,,,,,,,,,,335,2023-11-20_12h50.53.048,leap3,2022.2.5,59.99565006660578,
,,,,,,,,,,,,,,,,,,,,7,0,7,0,19,0,19,0,,,,,,dorth,nw,h,lower,,,,,,,2,nw,HiDemNoTar,h,1,0.5611406497937423,,,,,,,,,,,,,,,,,,,335,2023-11-20_12h50.53.048,leap3,2022.2.5,59.99565006660578,
,,,,,,,,,,,,,,,,,,,,7,0,7,0,20,0,20,0,,,,,,season,w,g,lower,,,,,,,2,w,HiDemNoTar,g,1,0.5052240633294787,,,,,,,,,,,,,,,,,,,335,2023-11-20_12h50.53.048,leap3,2022.2.5,59.99565006660578,
,,,,,,,,,,,,,,,,,,,,7,0,7,0,21,0,21,0,,,,,,jiggling,w,g,lower,,,,,,,2,w,HiDemNoTar,g,1,0.643285858710442,,,,,,,,,,,,,,,,,,,335,2023-11-20_12h50.53.048,leap3,2022.2.5,59.99565006660578,
,,,,,,,,,,,,,,,,,,,,7,0,7,0,22,0,22,0,,,,,,cegalia,nw,h,lower,,,,,,,2,nw,HiDemNoTar,h,1,0.47999858040657273,,,,,,,,,,,,,,,,,,,335,2023-11-20_12h50.53.048,leap3,2022.2.5,59.99565006660578,
,,,,,,,,,,,,,,,,,,,,7,0,7,0,23,0,23,0,,,,,,spiud,nw,h,lower,,,,,,,2,nw,HiDemNoTar,h,1,0.5551446563931677,,,,,,,,,,,,,,,,,,,335,2023-11-20_12h50.53.048,leap3,2022.2.5,59.99565006660578,
,,,,,,,,,,,,,,,,,,,,7,0,7,0,24,0,24,0,,,,,,earterner,nw,h,lower,,,,,,,2,nw,HiDemNoTar,h,1,0.9548646381053914,,,,,,,,,,,,,,,,,,,335,2023-11-20_12h50.53.048,leap3,2022.2.5,59.99565006660578,
,,,,,,,,,,,,,,,,,,,,7,0,7,0,25,0,25,0,,,,,,buttress,w,g,lower,,,,,,,2,w,HiDemNoTar,h,0,0.8272427773435993,,,,,,,,,,,,,,,,,,,335,2023-11-20_12h50.53.048,leap3,2022.2.5,59.99565006660578,
,,,,,,,,,,,,,,,,,,,,7,0,7,0,26,0,26,0,,,,,,yash,nw,h,lower,,,,,,,2,nw,HiDemNoTar,h,1,0.5681934159265438,,,,,,,,,,,,,,,,,,,335,2023-11-20_12h50.53.048,leap3,2022.2.5,59.99565006660578,
,,,,,,,,,,,,,,,,,,,,7,0,7,0,27,0,27,0,,,,,,decant,w,g,lower,,,,,,,2,w,HiDemNoTar,g,1,0.5527612895721177,,,,,,,,,,,,,,,,,,,335,2023-11-20_12h50.53.048,leap3,2022.2.5,59.99565006660578,
,,,,,,,,,,,,,,,,,,,,7,0,7,0,28,0,28,0,,,,,,funtair,nw,h,lower,,,,,,,2,nw,HiDemNoTar,h,1,0.6088682407989836,,,,,,,,,,,,,,,,,,,335,2023-11-20_12h50.53.048,leap3,2022.2.5,59.99565006660578,
,,,,,,,,,,,,,,,,,,,,7,0,7,0,29,0,29,0,,,,,,egect,nw,h,lower,,,,,,,2,nw,HiDemNoTar,h,1,0.5429805136318464,,,,,,,,,,,,,,,,,,,335,2023-11-20_12h50.53.048,leap3,2022.2.5,59.99565006660578,
,,,,,,,,,,,,,,,,,,,,7,0,7,0,,,,,,,,,,,,,,,,,,,,,,,,,,,NA,,,,,,,,,,,,,,,,,335,2023-11-20_12h50.53.048,leap3,2022.2.5,59.99565006660578,
,,,,,,,,,,,,,,,,,,,,8,0,8,0,0,0,0,0,,,,,,telecast,w,g,upper,,,,,,,3,w,LoDemNoTar,g,1,0.5516283709357594,,,,,,,,,,,,,,,,,,,335,2023-11-20_12h50.53.048,leap3,2022.2.5,59.99565006660578,
,,,,,,,,,,,,,,,,,,,,8,0,8,0,1,0,1,0,,,,,,rawhide,w,g,upper,,,,,,,3,w,LoDemNoTar,g,1,0.5683688825765785,,,,,,,,,,,,,,,,,,,335,2023-11-20_12h50.53.048,leap3,2022.2.5,59.99565006660578,
,,,,,,,,,,,,,,,,,,,,8,0,8,0,2,0,2,0,,,,,,kettle,w,g,upper,,,,,,,3,w,LoDemNoTar,g,1,0.49643550163546024,,,,,,,,,,,,,,,,,,,335,2023-11-20_12h50.53.048,leap3,2022.2.5,59.99565006660578,
,,,,,,,,,,,,,,,,,,,,8,0,8,0,3,0,3,0,,,,,,noblin,nw,h,upper,,,,,,,3,nw,LoDemNoTar,g,0,0.5391334900923539,,,,,,,,,,,,,,,,,,,335,2023-11-20_12h50.53.048,leap3,2022.2.5,59.99565006660578,
,,,,,,,,,,,,,,,,,,,,8,0,8,0,4,0,4,0,,,,,,reses,nw,h,upper,,,,,,,3,nw,LoDemNoTar,h,1,0.55585479972342,,,,,,,,,,,,,,,,,,,335,2023-11-20_12h50.53.048,leap3,2022.2.5,59.99565006660578,
,,,,,,,,,,,,,,,,,,,,8,0,8,0,5,0,5,0,,,,,,chiffol,nw,h,upper,,,,,,,3,nw,LoDemNoTar,h,1,0.47601052140817046,,,,,,,,,,,,,,,,,,,335,2023-11-20_12h50.53.048,leap3,2022.2.5,59.99565006660578,
,,,,,,,,,,,,,,,,,,,,8,0,8,0,6,0,6,0,,,,,,maximized,w,g,upper,,,,,,,3,w,LoDemNoTar,g,1,0.5433407168684425,,,,,,,,,,,,,,,,,,,335,2023-11-20_12h50.53.048,leap3,2022.2.5,59.99565006660578,
,,,,,,,,,,,,,,,,,,,,8,0,8,0,7,0,7,0,,,,,,solidity,w,g,upper,,,,,,,3,w,LoDemNoTar,g,1,0.5120954035664909,,,,,,,,,,,,,,,,,,,335,2023-11-20_12h50.53.048,leap3,2022.2.5,59.99565006660578,
,,,,,,,,,,,,,,,,,,,,8,0,8,0,8,0,8,0,,,,,,standard,w,g,upper,,,,,,,3,w,LoDemNoTar,g,1,0.497228081184403,,,,,,,,,,,,,,,,,,,335,2023-11-20_12h50.53.048,leap3,2022.2.5,59.99565006660578,
,,,,,,,,,,,,,,,,,,,,8,0,8,0,9,0,9,0,,,,,,lancos,nw,h,upper,,,,,,,3,nw,LoDemNoTar,h,1,0.499949138539705,,,,,,,,,,,,,,,,,,,335,2023-11-20_12h50.53.048,leap3,2022.2.5,59.99565006660578,
,,,,,,,,,,,,,,,,,,,,8,0,8,0,10,0,10,0,,,,,,brudent,nw,h,upper,,,,,,,3,nw,LoDemNoTar,g,0,0.4546300756110213,,,,,,,,,,,,,,,,,,,335,2023-11-20_12h50.53.048,leap3,2022.2.5,59.99565006660578,
,,,,,,,,,,,,,,,,,,,,8,0,8,0,11,0,11,0,,,,,,gund,nw,h,upper,,,,,,,3,nw,LoDemNoTar,h,1,0.5146737701170423,,,,,,,,,,,,,,,,,,,335,2023-11-20_12h50.53.048,leap3,2022.2.5,59.99565006660578,
,,,,,,,,,,,,,,,,,,,,8,0,8,0,12,0,12,0,,,,,,managed,w,g,upper,,,,,,,3,w,LoDemNoTar,g,1,0.4287282184122887,,,,,,,,,,,,,,,,,,,335,2023-11-20_12h50.53.048,leap3,2022.2.5,59.99565006660578,
,,,,,,,,,,,,,,,,,,,,8,0,8,0,13,0,13,0,,,,,,gettle,nw,h,upper,,,,,,,3,nw,LoDemNoTar,h,1,0.5781003292131572,,,,,,,,,,,,,,,,,,,335,2023-11-20_12h50.53.048,leap3,2022.2.5,59.99565006660578,
,,,,,,,,,,,,,,,,,,,,8,0,8,0,14,0,14,0,,,,,,army,w,g,upper,,,,,,,3,w,LoDemNoTar,g,1,0.47349307158128795,,,,,,,,,,,,,,,,,,,335,2023-11-20_12h50.53.048,leap3,2022.2.5,59.99565006660578,
,,,,,,,,,,,,,,,,,,,,8,0,8,0,15,0,15,0,,,,,,retona,nw,h,upper,,,,,,,3,nw,LoDemNoTar,h,1,0.5010165054836762,,,,,,,,,,,,,,,,,,,335,2023-11-20_12h50.53.048,leap3,2022.2.5,59.99565006660578,
,,,,,,,,,,,,,,,,,,,,8,0,8,0,16,0,16,0,,,,,,ireology,nw,h,upper,,,,,,,3,nw,LoDemNoTar,h,1,0.7198787068882666,,,,,,,,,,,,,,,,,,,335,2023-11-20_12h50.53.048,leap3,2022.2.5,59.99565006660578,
,,,,,,,,,,,,,,,,,,,,8,0,8,0,17,0,17,0,,,,,,senalize,nw,h,upper,,,,,,,3,nw,LoDemNoTar,h,1,0.8970083174808678,,,,,,,,,,,,,,,,,,,335,2023-11-20_12h50.53.048,leap3,2022.2.5,59.99565006660578,
,,,,,,,,,,,,,,,,,,,,8,0,8,0,18,0,18,0,,,,,,trake,nw,h,upper,,,,,,,3,nw,LoDemNoTar,h,1,0.6034946574027344,,,,,,,,,,,,,,,,,,,335,2023-11-20_12h50.53.048,leap3,2022.2.5,59.99565006660578,
,,,,,,,,,,,,,,,,,,,,8,0,8,0,19,0,19,0,,,,,,hustle,w,g,upper,,,,,,,3,w,LoDemNoTar,g,1,0.522144676588141,,,,,,,,,,,,,,,,,,,335,2023-11-20_12h50.53.048,leap3,2022.2.5,59.99565006660578,
,,,,,,,,,,,,,,,,,,,,8,0,8,0,20,0,20,0,,,,,,infancy,w,g,upper,,,,,,,3,w,LoDemNoTar,g,1,0.4835939913909897,,,,,,,,,,,,,,,,,,,335,2023-11-20_12h50.53.048,leap3,2022.2.5,59.99565006660578,
,,,,,,,,,,,,,,,,,,,,8,0,8,0,21,0,21,0,,,,,,criminal,w,g,upper,,,,,,,3,w,LoDemNoTar,g,1,0.4389648765736638,,,,,,,,,,,,,,,,,,,335,2023-11-20_12h50.53.048,leap3,2022.2.5,59.99565006660578,
,,,,,,,,,,,,,,,,,,,,8,0,8,0,22,0,22,0,,,,,,dricked,nw,h,upper,,,,,,,3,nw,LoDemNoTar,h,1,0.5075643911604857,,,,,,,,,,,,,,,,,,,335,2023-11-20_12h50.53.048,leap3,2022.2.5,59.99565006660578,
,,,,,,,,,,,,,,,,,,,,8,0,8,0,23,0,23,0,,,,,,engineer,w,g,upper,,,,,,,3,w,LoDemNoTar,g,1,0.47780259872524766,,,,,,,,,,,,,,,,,,,335,2023-11-20_12h50.53.048,leap3,2022.2.5,59.99565006660578,
,,,,,,,,,,,,,,,,,,,,8,0,8,0,24,0,24,0,,,,,,tunneg,nw,h,upper,,,,,,,3,nw,LoDemNoTar,h,1,0.4732480804086663,,,,,,,,,,,,,,,,,,,335,2023-11-20_12h50.53.048,leap3,2022.2.5,59.99565006660578,
,,,,,,,,,,,,,,,,,,,,8,0,8,0,25,0,25,0,,,,,,axis,w,g,upper,,,,,,,3,w,LoDemNoTar,g,1,0.5966223239574902,,,,,,,,,,,,,,,,,,,335,2023-11-20_12h50.53.048,leap3,2022.2.5,59.99565006660578,
,,,,,,,,,,,,,,,,,,,,8,0,8,0,26,0,26,0,,,,,,urgent,w,g,upper,,,,,,,3,w,LoDemNoTar,g,1,0.5873702654525914,,,,,,,,,,,,,,,,,,,335,2023-11-20_12h50.53.048,leap3,2022.2.5,59.99565006660578,
,,,,,,,,,,,,,,,,,,,,8,0,8,0,27,0,27,0,,,,,,mandate,w,g,upper,,,,,,,3,w,LoDemNoTar,g,1,0.37807828000768495,,,,,,,,,,,,,,,,,,,335,2023-11-20_12h50.53.048,leap3,2022.2.5,59.99565006660578,
,,,,,,,,,,,,,,,,,,,,8,0,8,0,28,0,28,0,,,,,,flougy,nw,h,upper,,,,,,,3,nw,LoDemNoTar,h,1,0.6405204380880605,,,,,,,,,,,,,,,,,,,335,2023-11-20_12h50.53.048,leap3,2022.2.5,59.99565006660578,
,,,,,,,,,,,,,,,,,,,,8,0,8,0,29,0,29,0,,,,,,thaken,nw,h,upper,,,,,,,3,nw,LoDemNoTar,h,1,0.48524701966380235,,,,,,,,,,,,,,,,,,,335,2023-11-20_12h50.53.048,leap3,2022.2.5,59.99565006660578,
,,,,,,,,,,,,,,,,,,,,8,0,8,0,,,,,,,,,,,,,,,,,,,,,,,,,,,NA,,,,,,,,,,,,,,,,,335,2023-11-20_12h50.53.048,leap3,2022.2.5,59.99565006660578,
,,,,,,,,,,,,,,,,,,,,9,0,9,0,0,0,0,0,,,,,,potatoes,w,g,lower,,,,,,,1,w,HiDemTar,g,1,0.6729748159323208,,,,,,,,,,,,,,,,,,,335,2023-11-20_12h50.53.048,leap3,2022.2.5,59.99565006660578,
,,,,,,,,,,,,,,,,,,,,9,0,9,0,1,0,1,0,,,,,,vopings,nw,h,lower,,,,,,,1,nw,HiDemTar,h,1,0.5403819518624005,,,,,,,,,,,,,,,,,,,335,2023-11-20_12h50.53.048,leap3,2022.2.5,59.99565006660578,
,,,,,,,,,,,,,,,,,,,,9,0,9,0,2,0,2,0,,,,,,remain,w,g,lower,,,,,,,1,w,HiDemTar,g,1,0.637098507339033,,,,,,,,,,,,,,,,,,,335,2023-11-20_12h50.53.048,leap3,2022.2.5,59.99565006660578,
,,,,,,,,,,,,,,,,,,,,9,0,9,0,3,0,3,0,,,,,,recount,w,g,lower,,,,,,,1,w,HiDemTar,g,1,0.5209372673925827,,,,,,,,,,,,,,,,,,,335,2023-11-20_12h50.53.048,leap3,2022.2.5,59.99565006660578,
,,,,,,,,,,,,,,,,,,,,9,0,9,0,4,0,4,0,,,,,,budget,w,g,lower,,,,,,,1,w,HiDemTar,g,1,0.4982441324100364,,,,,,,,,,,,,,,,,,,335,2023-11-20_12h50.53.048,leap3,2022.2.5,59.99565006660578,
,,,,,,,,,,,,,,,,,,,,9,0,9,0,5,0,5,0,,,,,,sheerio,nw,h,lower,,,,,,,1,nw,HiDemTar,h,1,0.5090396352989046,,,,,,,,,,,,,,,,,,,335,2023-11-20_12h50.53.048,leap3,2022.2.5,59.99565006660578,
,,,,,,,,,,,,,,,,,,,,9,0,9,0,6,0,6,0,,,,,,decantel,nw,h,lower,,,,,,,1,nw,HiDemTar,h,1,0.5831517823253307,,,,,,,,,,,,,,,,,,,335,2023-11-20_12h50.53.048,leap3,2022.2.5,59.99565006660578,
,,,,,,,,,,,,,,,,,,,,9,0,9,0,7,0,7,0,,,,,,olgies,nw,h,lower,,,,,,,1,nw,HiDemTar,h,1,0.4944646469775762,,,,,,,,,,,,,,,,,,,335,2023-11-20_12h50.53.048,leap3,2022.2.5,59.99565006660578,
,,,,,,,,,,,,,,,,,,,,9,0,9,0,8,0,8,0,,,,,,shazer,nw,h,lower,,,,,,,1,nw,HiDemTar,h,1,0.5451490165733048,,,,,,,,,,,,,,,,,,,335,2023-11-20_12h50.53.048,leap3,2022.2.5,59.99565006660578,
,,,,,,,,,,,,,,,,,,,,9,0,9,0,9,0,9,0,,,,,,module,w,g,lower,,,,,,,1,w,HiDemTar,h,0,0.41786981238419685,,,,,,,,,,,,,,,,,,,335,2023-11-20_12h50.53.048,leap3,2022.2.5,59.99565006660578,
,,,,,,,,,,,,,,,,,,,,9,0,9,0,10,0,10,0,,,,,,forbid,w,g,lower,,,,,,,1,w,HiDemTar,g,1,0.6239530756138265,,,,,,,,,,,,,,,,,,,335,2023-11-20_12h50.53.048,leap3,2022.2.5,59.99565006660578,
,,,,,,,,,,,,,,,,,,,,9,0,9,0,11,0,11,0,,,,,,threaded,w,g,lower,,,,,,,1,w,HiDemTar,g,1,0.5173650312490281,,,,,,,,,,,,,,,,,,,335,2023-11-20_12h50.53.048,leap3,2022.2.5,59.99565006660578,
,,,,,,,,,,,,,,,,,,,,9,0,9,0,12,0,12,0,,,,,,trecious,nw,h,lower,,,,,,,1,nw,HiDemTar,h,1,0.7114010191280613,,,,,,,,,,,,,,,,,,,335,2023-11-20_12h50.53.048,leap3,2022.2.5,59.99565006660578,
,,,,,,,,,,,,,,,,,,,,9,0,9,0,13,0,13,0,,,,,,ascending,w,g,lower,,,,,,,1,w,HiDemTar,g,1,0.5364975175089057,,,,,,,,,,,,,,,,,,,335,2023-11-20_12h50.53.048,leap3,2022.2.5,59.99565006660578,
,,,,,,,,,,,,,,,,,,,,9,0,9,0,14,0,14,0,,,,,,century,w,g,lower,,,,,,,1,w,HiDemTar,g,1,0.5295298361488676,,,,,,,,,,,,,,,,,,,335,2023-11-20_12h50.53.048,leap3,2022.2.5,59.99565006660578,
,,,,,,,,,,,,,,,,,,,,9,0,9,0,15,0,15,0,,,,,,smallash,nw,h,lower,,,,,,,1,nw,HiDemTar,h,1,0.5388305618198501,,,,,,,,,,,,,,,,,,,335,2023-11-20_12h50.53.048,leap3,2022.2.5,59.99565006660578,
,,,,,,,,,,,,,,,,,,,,9,0,9,0,16,0,16,0,,,,,,stranded,w,g,lower,,,,,,,1,w,HiDemTar,g,1,0.5560156993306009,,,,,,,,,,,,,,,,,,,335,2023-11-20_12h50.53.048,leap3,2022.2.5,59.99565006660578,
,,,,,,,,,,,,,,,,,,,,9,0,9,0,17,0,17,0,,,,,,arrive,w,g,lower,,,,,,,1,w,HiDemTar,g,1,0.48417700416575826,,,,,,,,,,,,,,,,,,,335,2023-11-20_12h50.53.048,leap3,2022.2.5,59.99565006660578,
,,,,,,,,,,,,,,,,,,,,9,0,9,0,18,0,18,0,,,,,,metrol,nw,h,lower,,,,,,,1,nw,HiDemTar,h,1,0.7274840274349117,,,,,,,,,,,,,,,,,,,335,2023-11-20_12h50.53.048,leap3,2022.2.5,59.99565006660578,
,,,,,,,,,,,,,,,,,,,,9,0,9,0,19,0,19,0,,,,,,halents,nw,h,lower,,,,,,,1,nw,HiDemTar,h,1,0.5530109157116385,,,,,,,,,,,,,,,,,,,335,2023-11-20_12h50.53.048,leap3,2022.2.5,59.99565006660578,
,,,,,,,,,,,,,,,,,,,,9,0,9,0,20,0,20,0,,,,,,sodent,nw,h,lower,,,,,,,1,nw,HiDemTar,g,0,0.5851934857828383,,,,,,,,,,,,,,,,,,,335,2023-11-20_12h50.53.048,leap3,2022.2.5,59.99565006660578,
,,,,,,,,,,,,,,,,,,,,9,0,9,0,21,0,21,0,,,,,,presently,w,g,lower,,,,,,,1,w,HiDemTar,g,1,0.5764870292387059,,,,,,,,,,,,,,,,,,,335,2023-11-20_12h50.53.048,leap3,2022.2.5,59.99565006660578,
,,,,,,,,,,,,,,,,,,,,9,0,9,0,22,0,22,0,,,,,,intrude,w,g,lower,,,,,,,1,w,HiDemTar,g,1,0.5037501434662772,,,,,,,,,,,,,,,,,,,335,2023-11-20_12h50.53.048,leap3,2022.2.5,59.99565006660578,
,,,,,,,,,,,,,,,,,,,,9,0,9,0,23,0,23,0,,,,,,riosk,nw,h,lower,,,,,,,1,nw,HiDemTar,h,1,0.4247802187810521,,,,,,,,,,,,,,,,,,,335,2023-11-20_12h50.53.048,leap3,2022.2.5,59.99565006660578,
,,,,,,,,,,,,,,,,,,,,9,0,9,0,24,0,24,0,,,,,,monkey,target,q,lower,,,,,,,1,target,HiDemTar,g,0,0.5342339977214579,,,,,,,,,,,,,,,,,,,335,2023-11-20_12h50.53.048,leap3,2022.2.5,59.99565006660578,
,,,,,,,,,,,,,,,,,,,,9,0,9,0,25,0,25,0,,,,,,withep,nw,h,lower,,,,,,,1,aftertar1,HiDemTar,h,1,0.4796006352862605,,,,,,,,,,,,,,,,,,,335,2023-11-20_12h50.53.048,leap3,2022.2.5,59.99565006660578,
,,,,,,,,,,,,,,,,,,,,9,0,9,0,26,0,26,0,,,,,,sampling,w,g,lower,,,,,,,1,aftertar2,HiDemTar,g,1,0.8270547300653561,,,,,,,,,,,,,,,,,,,335,2023-11-20_12h50.53.048,leap3,2022.2.5,59.99565006660578,
,,,,,,,,,,,,,,,,,,,,9,0,9,0,27,0,27,0,,,,,,mabit,nw,h,lower,,,,,,,1,aftertar3,HiDemTar,h,1,0.5763757900031123,,,,,,,,,,,,,,,,,,,335,2023-11-20_12h50.53.048,leap3,2022.2.5,59.99565006660578,
,,,,,,,,,,,,,,,,,,,,9,0,9,0,28,0,28,0,,,,,,mandlers,nw,h,lower,,,,,,,1,nw,HiDemTar,h,1,0.7117559252583305,,,,,,,,,,,,,,,,,,,335,2023-11-20_12h50.53.048,leap3,2022.2.5,59.99565006660578,
,,,,,,,,,,,,,,,,,,,,9,0,9,0,29,0,29,0,,,,,,confined,w,g,lower,,,,,,,1,nw,HiDemTar,g,1,0.5378588738603867,,,,,,,,,,,,,,,,,,,335,2023-11-20_12h50.53.048,leap3,2022.2.5,59.99565006660578,
,,,,,,,,,,,,,,,,,,,,9,0,9,0,,,,,,,,,,,,,,,,,,,,,,,,,,,0,,,,,,,,,,,,,,,,,335,2023-11-20_12h50.53.048,leap3,2022.2.5,59.99565006660578,
,,,,,,,,,,,,,,,,,,,,10,0,10,0,0,0,0,0,,,,,,atsless,nw,h,upper,,,,,,,4,nw,LoDemTar,h,1,0.5707075550626541,,,,,,,,,,,,,,,,,,,335,2023-11-20_12h50.53.048,leap3,2022.2.5,59.99565006660578,
,,,,,,,,,,,,,,,,,,,,10,0,10,0,1,0,1,0,,,,,,visible,w,g,upper,,,,,,,4,w,LoDemTar,g,1,0.5459773515904089,,,,,,,,,,,,,,,,,,,335,2023-11-20_12h50.53.048,leap3,2022.2.5,59.99565006660578,
,,,,,,,,,,,,,,,,,,,,10,0,10,0,2,0,2,0,,,,,,stooping,w,g,upper,,,,,,,4,w,LoDemTar,g,1,0.5227002106239524,,,,,,,,,,,,,,,,,,,335,2023-11-20_12h50.53.048,leap3,2022.2.5,59.99565006660578,
,,,,,,,,,,,,,,,,,,,,10,0,10,0,3,0,3,0,,,,,,harder,w,g,upper,,,,,,,4,w,LoDemTar,g,1,0.355730781218881,,,,,,,,,,,,,,,,,,,335,2023-11-20_12h50.53.048,leap3,2022.2.5,59.99565006660578,
,,,,,,,,,,,,,,,,,,,,10,0,10,0,4,0,4,0,,,,,,fisco,nw,h,upper,,,,,,,4,nw,LoDemTar,h,1,0.5075319463830965,,,,,,,,,,,,,,,,,,,335,2023-11-20_12h50.53.048,leap3,2022.2.5,59.99565006660578,
,,,,,,,,,,,,,,,,,,,,10,0,10,0,5,0,5,0,,,,,,poyride,nw,h,upper,,,,,,,4,nw,LoDemTar,h,1,0.5417052352604514,,,,,,,,,,,,,,,,,,,335,2023-11-20_12h50.53.048,leap3,2022.2.5,59.99565006660578,
,,,,,,,,,,,,,,,,,,,,10,0,10,0,6,0,6,0,,,,,,chesume,nw,h,upper,,,,,,,4,nw,LoDemTar,h,1,0.6062849082109096,,,,,,,,,,,,,,,,,,,335,2023-11-20_12h50.53.048,leap3,2022.2.5,59.99565006660578,
,,,,,,,,,,,,,,,,,,,,10,0,10,0,7,0,7,0,,,,,,preight,nw,h,upper,,,,,,,4,nw,LoDemTar,g,0,0.5563855035725283,,,,,,,,,,,,,,,,,,,335,2023-11-20_12h50.53.048,leap3,2022.2.5,59.99565006660578,
,,,,,,,,,,,,,,,,,,,,10,0,10,0,8,0,8,0,,,,,,slooping,nw,h,upper,,,,,,,4,nw,LoDemTar,h,1,0.7959262841741293,,,,,,,,,,,,,,,,,,,335,2023-11-20_12h50.53.048,leap3,2022.2.5,59.99565006660578,
,,,,,,,,,,,,,,,,,,,,10,0,10,0,9,0,9,0,,,,,,snocks,nw,h,upper,,,,,,,4,nw,LoDemTar,h,1,0.554282221253743,,,,,,,,,,,,,,,,,,,335,2023-11-20_12h50.53.048,leap3,2022.2.5,59.99565006660578,
,,,,,,,,,,,,,,,,,,,,10,0,10,0,10,0,10,0,,,,,,fidelity,w,g,upper,,,,,,,4,w,LoDemTar,g,1,0.6028249045093617,,,,,,,,,,,,,,,,,,,335,2023-11-20_12h50.53.048,leap3,2022.2.5,59.99565006660578,
,,,,,,,,,,,,,,,,,,,,10,0,10,0,11,0,11,0,,,,,,aligning,w,g,upper,,,,,,,4,w,LoDemTar,g,1,0.5455661637042795,,,,,,,,,,,,,,,,,,,335,2023-11-20_12h50.53.048,leap3,2022.2.5,59.99565006660578,
,,,,,,,,,,,,,,,,,,,,10,0,10,0,12,0,12,0,,,,,,derived,w,g,upper,,,,,,,4,w,LoDemTar,g,1,0.43427991701173596,,,,,,,,,,,,,,,,,,,335,2023-11-20_12h50.53.048,leap3,2022.2.5,59.99565006660578,
,,,,,,,,,,,,,,,,,,,,10,0,10,0,13,0,13,0,,,,,,sequence,w,g,upper,,,,,,,4,w,LoDemTar,g,1,0.44776270820329955,,,,,,,,,,,,,,,,,,,335,2023-11-20_12h50.53.048,leap3,2022.2.5,59.99565006660578,
,,,,,,,,,,,,,,,,,,,,10,0,10,0,14,0,14,0,,,,,,contain,w,g,upper,,,,,,,4,w,LoDemTar,g,1,0.41248364835973916,,,,,,,,,,,,,,,,,,,335,2023-11-20_12h50.53.048,leap3,2022.2.5,59.99565006660578,
,,,,,,,,,,,,,,,,,,,,10,0,10,0,15,0,15,0,,,,,,fuack,nw,h,upper,,,,,,,4,nw,LoDemTar,h,1,0.43453086742920277,,,,,,,,,,,,,,,,,,,335,2023-11-20_12h50.53.048,leap3,2022.2.5,59.99565006660578,
,,,,,,,,,,,,,,,,,,,,10,0,10,0,16,0,16,0,,,,,,elpired,nw,h,upper,,,,,,,4,nw,LoDemTar,h,1,0.5518879291503254,,,,,,,,,,,,,,,,,,,335,2023-11-20_12h50.53.048,leap3,2022.2.5,59.99565006660578,
,,,,,,,,,,,,,,,,,,,,10,0,10,0,17,0,17,0,,,,,,truthful,w,g,upper,,,,,,,4,w,LoDemTar,q,0,0.6246430237251843,,,,,,,,,,,,,,,,,,,335,2023-11-20_12h50.53.048,leap3,2022.2.5,59.99565006660578,
,,,,,,,,,,,,,,,,,,,,10,0,10,0,18,0,18,0,,,,,,endgume,nw,h,upper,,,,,,,4,nw,LoDemTar,h,1,1.1808984594672438,,,,,,,,,,,,,,,,,,,335,2023-11-20_12h50.53.048,leap3,2022.2.5,59.99565006660578,
,,,,,,,,,,,,,,,,,,,,10,0,10,0,19,0,19,0,,,,,,kangaroo,target,q,upper,,,,,,,4,target,LoDemTar,q,1,0.8763274208013172,1,,,,,,,,,,,,,,,,,,335,2023-11-20_12h50.53.048,leap3,2022.2.5,59.99565006660578,
,,,,,,,,,,,,,,,,,,,,10,0,10,0,20,0,20,0,,,,,,awful,w,g,upper,,,,,,,4,aftertar1,LoDemTar,g,1,0.5998336947259304,,,,,,,,,,,,,,,,,,,335,2023-11-20_12h50.53.048,leap3,2022.2.5,59.99565006660578,
,,,,,,,,,,,,,,,,,,,,10,0,10,0,21,0,21,0,,,,,,undimmec,nw,h,upper,,,,,,,4,aftertar2,LoDemTar,h,1,0.5504431433737409,,,,,,,,,,,,,,,,,,,335,2023-11-20_12h50.53.048,leap3,2022.2.5,59.99565006660578,
,,,,,,,,,,,,,,,,,,,,10,0,10,0,22,0,22,0,,,,,,airmen,w,g,upper,,,,,,,4,aftertar3,LoDemTar,g,1,0.9751797033732146,,,,,,,,,,,,,,,,,,,335,2023-11-20_12h50.53.048,leap3,2022.2.5,59.99565006660578,
,,,,,,,,,,,,,,,,,,,,10,0,10,0,23,0,23,0,,,,,,inversion,w,g,upper,,,,,,,4,w,LoDemTar,g,1,0.5906091149608983,,,,,,,,,,,,,,,,,,,335,2023-11-20_12h50.53.048,leap3,2022.2.5,59.99565006660578,
,,,,,,,,,,,,,,,,,,,,10,0,10,0,24,0,24,0,,,,,,kiner,nw,h,upper,,,,,,,4,w,LoDemTar,h,1,0.5494009376852773,,,,,,,,,,,,,,,,,,,335,2023-11-20_12h50.53.048,leap3,2022.2.5,59.99565006660578,
,,,,,,,,,,,,,,,,,,,,10,0,10,0,25,0,25,0,,,,,,ifling,nw,h,upper,,,,,,,4,nw,LoDemTar,h,1,0.5892298808757914,,,,,,,,,,,,,,,,,,,335,2023-11-20_12h50.53.048,leap3,2022.2.5,59.99565006660578,
,,,,,,,,,,,,,,,,,,,,10,0,10,0,26,0,26,0,,,,,,deficit,w,g,upper,,,,,,,4,nw,LoDemTar,g,1,0.4927550058791894,,,,,,,,,,,,,,,,,,,335,2023-11-20_12h50.53.048,leap3,2022.2.5,59.99565006660578,
,,,,,,,,,,,,,,,,,,,,10,0,10,0,27,0,27,0,,,,,,arranged,w,g,upper,,,,,,,4,w,LoDemTar,g,1,0.478562071358283,,,,,,,,,,,,,,,,,,,335,2023-11-20_12h50.53.048,leap3,2022.2.5,59.99565006660578,
,,,,,,,,,,,,,,,,,,,,10,0,10,0,28,0,28,0,,,,,,setwixt,nw,h,upper,,,,,,,4,w,LoDemTar,h,1,0.48991807432139467,,,,,,,,,,,,,,,,,,,335,2023-11-20_12h50.53.048,leap3,2022.2.5,59.99565006660578,
,,,,,,,,,,,,,,,,,,,,10,0,10,0,29,0,29,0,,,,,,plashed,nw,h,upper,,,,,,,4,nw,LoDemTar,g,0,0.8127541980711612,,,,,,,,,,,,,,,,,,,335,2023-11-20_12h50.53.048,leap3,2022.2.5,59.99565006660578,
,,,,,,,,,,,,,,,,,,,,10,0,10,0,,,,,,,,,,,,,,,,,,,,,,,,,,,1,,,,,,,,,,,,,,,,,335,2023-11-20_12h50.53.048,leap3,2022.2.5,59.99565006660578,
,,,,,,,,,,,,,,,,,,,,11,0,11,0,0,0,0,0,,,,,,unburnid,nw,h,upper,,,,,,,3,nw,LoDemNoTar,h,1,0.7396359206368288,,,,,,,,,,,,,,,,,,,335,2023-11-20_12h50.53.048,leap3,2022.2.5,59.99565006660578,
,,,,,,,,,,,,,,,,,,,,11,0,11,0,1,0,1,0,,,,,,baults,nw,h,upper,,,,,,,3,nw,LoDemNoTar,h,1,0.4844339138280702,,,,,,,,,,,,,,,,,,,335,2023-11-20_12h50.53.048,leap3,2022.2.5,59.99565006660578,
,,,,,,,,,,,,,,,,,,,,11,0,11,0,2,0,2,0,,,,,,epthuse,nw,h,upper,,,,,,,3,nw,LoDemNoTar,h,1,0.4869192499472774,,,,,,,,,,,,,,,,,,,335,2023-11-20_12h50.53.048,leap3,2022.2.5,59.99565006660578,
,,,,,,,,,,,,,,,,,,,,11,0,11,0,3,0,3,0,,,,,,uncle,w,g,upper,,,,,,,3,w,LoDemNoTar,g,1,0.4255238000960162,,,,,,,,,,,,,,,,,,,335,2023-11-20_12h50.53.048,leap3,2022.2.5,59.99565006660578,
,,,,,,,,,,,,,,,,,,,,11,0,11,0,4,0,4,0,,,,,,gelfry,nw,h,upper,,,,,,,3,nw,LoDemNoTar,h,1,0.5030015961156096,,,,,,,,,,,,,,,,,,,335,2023-11-20_12h50.53.048,leap3,2022.2.5,59.99565006660578,
,,,,,,,,,,,,,,,,,,,,11,0,11,0,5,0,5,0,,,,,,ugifies,nw,h,upper,,,,,,,3,nw,LoDemNoTar,h,1,0.481135140803417,,,,,,,,,,,,,,,,,,,335,2023-11-20_12h50.53.048,leap3,2022.2.5,59.99565006660578,
,,,,,,,,,,,,,,,,,,,,11,0,11,0,6,0,6,0,,,,,,pastnoss,nw,h,upper,,,,,,,3,nw,LoDemNoTar,h,1,0.5244651402699674,,,,,,,,,,,,,,,,,,,335,2023-11-20_12h50.53.048,leap3,2022.2.5,59.99565006660578,
,,,,,,,,,,,,,,,,,,,,11,0,11,0,7,0,7,0,,,,,,euphoric,w,g,upper,,,,,,,3,w,LoDemNoTar,g,1,0.5819221914971422,,,,,,,,,,,,,,,,,,,335,2023-11-20_12h50.53.048,leap3,2022.2.5,59.99565006660578,
,,,,,,,,,,,,,,,,,,,,11,0,11,0,8,0,8,0,,,,,,dileting,nw,h,upper,,,,,,,3,nw,LoDemNoTar,h,1,0.48530230821234,,,,,,,,,,,,,,,,,,,335,2023-11-20_12h50.53.048,leap3,2022.2.5,59.99565006660578,
,,,,,,,,,,,,,,,,,,,,11,0,11,0,9,0,9,0,,,,,,prison,w,g,upper,,,,,,,3,w,LoDemNoTar,g,1,0.4247371797919186,,,,,,,,,,,,,,,,,,,335,2023-11-20_12h50.53.048,leap3,2022.2.5,59.99565006660578,
,,,,,,,,,,,,,,,,,,,,11,0,11,0,10,0,10,0,,,,,,dialect,w,g,upper,,,,,,,3,w,LoDemNoTar,h,0,0.4301200331246946,,,,,,,,,,,,,,,,,,,335,2023-11-20_12h50.53.048,leap3,2022.2.5,59.99565006660578,
,,,,,,,,,,,,,,,,,,,,11,0,11,0,11,0,11,0,,,,,,anonymous,w,g,upper,,,,,,,3,w,LoDemNoTar,g,1,0.6275633847099016,,,,,,,,,,,,,,,,,,,335,2023-11-20_12h50.53.048,leap3,2022.2.5,59.99565006660578,
,,,,,,,,,,,,,,,,,,,,11,0,11,0,12,0,12,0,,,,,,lovud,nw,h,upper,,,,,,,3,nw,LoDemNoTar,h,1,0.5199768357842913,,,,,,,,,,,,,,,,,,,335,2023-11-20_12h50.53.048,leap3,2022.2.5,59.99565006660578,
,,,,,,,,,,,,,,,,,,,,11,0,11,0,13,0,13,0,,,,,,enunciate,w,g,upper,,,,,,,3,w,LoDemNoTar,g,1,0.7533603923084229,,,,,,,,,,,,,,,,,,,335,2023-11-20_12h50.53.048,leap3,2022.2.5,59.99565006660578,
,,,,,,,,,,,,,,,,,,,,11,0,11,0,14,0,14,0,,,,,,sliding,w,g,upper,,,,,,,3,w,LoDemNoTar,g,1,0.4413919445223655,,,,,,,,,,,,,,,,,,,335,2023-11-20_12h50.53.048,leap3,2022.2.5,59.99565006660578,
,,,,,,,,,,,,,,,,,,,,11,0,11,0,15,0,15,0,,,,,,calcify,w,g,upper,,,,,,,3,w,LoDemNoTar,g,1,0.6381486586878964,,,,,,,,,,,,,,,,,,,335,2023-11-20_12h50.53.048,leap3,2022.2.5,59.99565006660578,
,,,,,,,,,,,,,,,,,,,,11,0,11,0,16,0,16,0,,,,,,mantos,nw,h,upper,,,,,,,3,nw,LoDemNoTar,h,1,0.5388769115006653,,,,,,,,,,,,,,,,,,,335,2023-11-20_12h50.53.048,leap3,2022.2.5,59.99565006660578,
,,,,,,,,,,,,,,,,,,,,11,0,11,0,17,0,17,0,,,,,,ciping,nw,h,upper,,,,,,,3,nw,LoDemNoTar,h,1,0.5476336905549033,,,,,,,,,,,,,,,,,,,335,2023-11-20_12h50.53.048,leap3,2022.2.5,59.99565006660578,
,,,,,,,,,,,,,,,,,,,,11,0,11,0,18,0,18,0,,,,,,colored,w,g,upper,,,,,,,3,w,LoDemNoTar,g,1,0.49236401321195444,,,,,,,,,,,,,,,,,,,335,2023-11-20_12h50.53.048,leap3,2022.2.5,59.99565006660578,
,,,,,,,,,,,,,,,,,,,,11,0,11,0,19,0,19,0,,,,,,mogus,nw,h,upper,,,,,,,3,nw,LoDemNoTar,h,1,0.5270951536094799,,,,,,,,,,,,,,,,,,,335,2023-11-20_12h50.53.048,leap3,2022.2.5,59.99565006660578,
,,,,,,,,,,,,,,,,,,,,11,0,11,0,20,0,20,0,,,,,,carbled,nw,h,upper,,,,,,,3,nw,LoDemNoTar,h,1,0.7044949166293009,,,,,,,,,,,,,,,,,,,335,2023-11-20_12h50.53.048,leap3,2022.2.5,59.99565006660578,
,,,,,,,,,,,,,,,,,,,,11,0,11,0,21,0,21,0,,,,,,fravity,nw,h,upper,,,,,,,3,nw,LoDemNoTar,h,1,0.5145499502541497,,,,,,,,,,,,,,,,,,,335,2023-11-20_12h50.53.048,leap3,2022.2.5,59.99565006660578,
,,,,,,,,,,,,,,,,,,,,11,0,11,0,22,0,22,0,,,,,,amidst,w,g,upper,,,,,,,3,w,LoDemNoTar,g,1,0.7076238511799602,,,,,,,,,,,,,,,,,,,335,2023-11-20_12h50.53.048,leap3,2022.2.5,59.99565006660578,
,,,,,,,,,,,,,,,,,,,,11,0,11,0,23,0,23,0,,,,,,prominent,w,g,upper,,,,,,,3,w,LoDemNoTar,g,1,0.5177010664374393,,,,,,,,,,,,,,,,,,,335,2023-11-20_12h50.53.048,leap3,2022.2.5,59.99565006660578,
,,,,,,,,,,,,,,,,,,,,11,0,11,0,24,0,24,0,,,,,,antonym,w,g,upper,,,,,,,3,w,LoDemNoTar,g,1,0.4878207512474546,,,,,,,,,,,,,,,,,,,335,2023-11-20_12h50.53.048,leap3,2022.2.5,59.99565006660578,
,,,,,,,,,,,,,,,,,,,,11,0,11,0,25,0,25,0,,,,,,coster,nw,h,upper,,,,,,,3,nw,LoDemNoTar,h,1,0.5465229535520848,,,,,,,,,,,,,,,,,,,335,2023-11-20_12h50.53.048,leap3,2022.2.5,59.99565006660578,
,,,,,,,,,,,,,,,,,,,,11,0,11,0,26,0,26,0,,,,,,triangle,w,g,upper,,,,,,,3,w,LoDemNoTar,g,1,0.5871868531430664,,,,,,,,,,,,,,,,,,,335,2023-11-20_12h50.53.048,leap3,2022.2.5,59.99565006660578,
,,,,,,,,,,,,,,,,,,,,11,0,11,0,27,0,27,0,,,,,,glates,nw,h,upper,,,,,,,3,nw,LoDemNoTar,h,1,0.5779486995415937,,,,,,,,,,,,,,,,,,,335,2023-11-20_12h50.53.048,leap3,2022.2.5,59.99565006660578,
,,,,,,,,,,,,,,,,,,,,11,0,11,0,28,0,28,0,,,,,,consonant,w,g,upper,,,,,,,3,w,LoDemNoTar,g,1,0.5693028286532353,,,,,,,,,,,,,,,,,,,335,2023-11-20_12h50.53.048,leap3,2022.2.5,59.99565006660578,
,,,,,,,,,,,,,,,,,,,,11,0,11,0,29,0,29,0,,,,,,foster,w,g,upper,,,,,,,3,w,LoDemNoTar,g,1,0.5128346809815412,,,,,,,,,,,,,,,,,,,335,2023-11-20_12h50.53.048,leap3,2022.2.5,59.99565006660578,
,,,,,,,,,,,,,,,,,,,,11,0,11,0,,,,,,,,,,,,,,,,,,,,,,,,,,,NA,,,,,,,,,,,,,,,,,335,2023-11-20_12h50.53.048,leap3,2022.2.5,59.99565006660578,
,,,,,,,,,,,,,,,,,,,,12,0,12,0,0,0,0,0,,,,,,regiment,w,g,lower,,,,,,,1,w,HiDemTar,g,1,0.6268141752198062,,,,,,,,,,,,,,,,,,,335,2023-11-20_12h50.53.048,leap3,2022.2.5,59.99565006660578,
,,,,,,,,,,,,,,,,,,,,12,0,12,0,1,0,1,0,,,,,,servant,w,g,lower,,,,,,,1,w,HiDemTar,g,1,0.4394873036944773,,,,,,,,,,,,,,,,,,,335,2023-11-20_12h50.53.048,leap3,2022.2.5,59.99565006660578,
,,,,,,,,,,,,,,,,,,,,12,0,12,0,2,0,2,0,,,,,,baladroit,nw,h,lower,,,,,,,1,nw,HiDemTar,h,1,0.5175616863252799,,,,,,,,,,,,,,,,,,,335,2023-11-20_12h50.53.048,leap3,2022.2.5,59.99565006660578,
,,,,,,,,,,,,,,,,,,,,12,0,12,0,3,0,3,0,,,,,,rarren,nw,h,lower,,,,,,,1,nw,HiDemTar,h,1,0.5750372774236894,,,,,,,,,,,,,,,,,,,335,2023-11-20_12h50.53.048,leap3,2022.2.5,59.99565006660578,
,,,,,,,,,,,,,,,,,,,,12,0,12,0,4,0,4,0,,,,,,official,w,g,lower,,,,,,,1,w,HiDemTar,g,1,0.44645465398571105,,,,,,,,,,,,,,,,,,,335,2023-11-20_12h50.53.048,leap3,2022.2.5,59.99565006660578,
,,,,,,,,,,,,,,,,,,,,12,0,12,0,5,0,5,0,,,,,,educate,w,g,lower,,,,,,,1,w,HiDemTar,g,1,0.4672166626096441,,,,,,,,,,,,,,,,,,,335,2023-11-20_12h50.53.048,leap3,2022.2.5,59.99565006660578,
,,,,,,,,,,,,,,,,,,,,12,0,12,0,6,0,6,0,,,,,,maroon,w,g,lower,,,,,,,1,w,HiDemTar,g,1,0.4466225060459692,,,,,,,,,,,,,,,,,,,335,2023-11-20_12h50.53.048,leap3,2022.2.5,59.99565006660578,
,,,,,,,,,,,,,,,,,,,,12,0,12,0,7,0,7,0,,,,,,punctual,w,g,lower,,,,,,,1,w,HiDemTar,g,1,0.522326764621539,,,,,,,,,,,,,,,,,,,335,2023-11-20_12h50.53.048,leap3,2022.2.5,59.99565006660578,
,,,,,,,,,,,,,,,,,,,,12,0,12,0,8,0,8,0,,,,,,fashing,nw,h,lower,,,,,,,1,nw,HiDemTar,h,1,0.6917083638636541,,,,,,,,,,,,,,,,,,,335,2023-11-20_12h50.53.048,leap3,2022.2.5,59.99565006660578,
,,,,,,,,,,,,,,,,,,,,12,0,12,0,9,0,9,0,,,,,,bingu,nw,h,lower,,,,,,,1,nw,HiDemTar,h,1,0.4784223601764097,,,,,,,,,,,,,,,,,,,335,2023-11-20_12h50.53.048,leap3,2022.2.5,59.99565006660578,
,,,,,,,,,,,,,,,,,,,,12,0,12,0,10,0,10,0,,,,,,spigat,nw,h,lower,,,,,,,1,nw,HiDemTar,h,1,0.6578489285420801,,,,,,,,,,,,,,,,,,,335,2023-11-20_12h50.53.048,leap3,2022.2.5,59.99565006660578,
,,,,,,,,,,,,,,,,,,,,12,0,12,0,11,0,11,0,,,,,,rumblos,nw,h,lower,,,,,,,1,nw,HiDemTar,h,1,0.5019216485434299,,,,,,,,,,,,,,,,,,,335,2023-11-20_12h50.53.048,leap3,2022.2.5,59.99565006660578,
,,,,,,,,,,,,,,,,,,,,12,0,12,0,12,0,12,0,,,,,,gazes,w,g,lower,,,,,,,1,w,HiDemTar,h,0,0.5359823739099738,,,,,,,,,,,,,,,,,,,335,2023-11-20_12h50.53.048,leap3,2022.2.5,59.99565006660578,
,,,,,,,,,,,,,,,,,,,,12,0,12,0,13,0,13,0,,,,,,schides,nw,h,lower,,,,,,,1,nw,HiDemTar,h,1,0.58479189890204,,,,,,,,,,,,,,,,,,,335,2023-11-20_12h50.53.048,leap3,2022.2.5,59.99565006660578,
,,,,,,,,,,,,,,,,,,,,12,0,12,0,14,0,14,0,,,,,,trallion,nw,h,lower,,,,,,,1,nw,HiDemTar,g,0,0.5114733246309697,,,,,,,,,,,,,,,,,,,335,2023-11-20_12h50.53.048,leap3,2022.2.5,59.99565006660578,
,,,,,,,,,,,,,,,,,,,,12,0,12,0,15,0,15,0,,,,,,coyote,target,q,lower,,,,,,,1,target,HiDemTar,g,0,0.5295513556429796,,,,,,,,,,,,,,,,,,,335,2023-11-20_12h50.53.048,leap3,2022.2.5,59.99565006660578,
,,,,,,,,,,,,,,,,,,,,12,0,12,0,16,0,16,0,,,,,,offonents,nw,h,lower,,,,,,,1,aftertar1,HiDemTar,h,1,0.7069911780317852,,,,,,,,,,,,,,,,,,,335,2023-11-20_12h50.53.048,leap3,2022.2.5,59.99565006660578,
,,,,,,,,,,,,,,,,,,,,12,0,12,0,17,0,17,0,,,,,,kraums,nw,h,lower,,,,,,,1,aftertar2,HiDemTar,h,1,0.5240168726395495,,,,,,,,,,,,,,,,,,,335,2023-11-20_12h50.53.048,leap3,2022.2.5,59.99565006660578,
,,,,,,,,,,,,,,,,,,,,12,0,12,0,18,0,18,0,,,,,,grolific,nw,h,lower,,,,,,,1,aftertar3,HiDemTar,h,1,0.5093534888546856,,,,,,,,,,,,,,,,,,,335,2023-11-20_12h50.53.048,leap3,2022.2.5,59.99565006660578,
,,,,,,,,,,,,,,,,,,,,12,0,12,0,19,0,19,0,,,,,,system,w,g,lower,,,,,,,1,nw,HiDemTar,g,1,0.5514148313332043,,,,,,,,,,,,,,,,,,,335,2023-11-20_12h50.53.048,leap3,2022.2.5,59.99565006660578,
,,,,,,,,,,,,,,,,,,,,12,0,12,0,20,0,20,0,,,,,,number,w,g,lower,,,,,,,1,w,HiDemTar,g,1,0.535479810938341,,,,,,,,,,,,,,,,,,,335,2023-11-20_12h50.53.048,leap3,2022.2.5,59.99565006660578,
,,,,,,,,,,,,,,,,,,,,12,0,12,0,21,0,21,0,,,,,,clooped,nw,h,lower,,,,,,,1,w,HiDemTar,h,1,0.6163245802272286,,,,,,,,,,,,,,,,,,,335,2023-11-20_12h50.53.048,leap3,2022.2.5,59.99565006660578,
,,,,,,,,,,,,,,,,,,,,12,0,12,0,22,0,22,0,,,,,,mubby,nw,h,lower,,,,,,,1,nw,HiDemTar,h,1,0.5742910475573808,,,,,,,,,,,,,,,,,,,335,2023-11-20_12h50.53.048,leap3,2022.2.5,59.99565006660578,
,,,,,,,,,,,,,,,,,,,,12,0,12,0,23,0,23,0,,,,,,observer,w,g,lower,,,,,,,1,nw,HiDemTar,g,1,0.5176272380167575,,,,,,,,,,,,,,,,,,,335,2023-11-20_12h50.53.048,leap3,2022.2.5,59.99565006660578,
,,,,,,,,,,,,,,,,,,,,12,0,12,0,24,0,24,0,,,,,,bickering,w,g,lower,,,,,,,1,w,HiDemTar,h,0,0.5911153196930172,,,,,,,,,,,,,,,,,,,335,2023-11-20_12h50.53.048,leap3,2022.2.5,59.99565006660578,
,,,,,,,,,,,,,,,,,,,,12,0,12,0,25,0,25,0,,,,,,befriend,w,g,lower,,,,,,,1,w,HiDemTar,g,1,0.5489139349629113,,,,,,,,,,,,,,,,,,,335,2023-11-20_12h50.53.048,leap3,2022.2.5,59.99565006660578,
,,,,,,,,,,,,,,,,,,,,12,0,12,0,26,0,26,0,,,,,,filny,nw,h,lower,,,,,,,1,w,HiDemTar,h,1,0.5175500989053035,,,,,,,,,,,,,,,,,,,335,2023-11-20_12h50.53.048,leap3,2022.2.5,59.99565006660578,
,,,,,,,,,,,,,,,,,,,,12,0,12,0,27,0,27,0,,,,,,implode,w,g,lower,,,,,,,1,nw,HiDemTar,g,1,0.5830170371800705,,,,,,,,,,,,,,,,,,,335,2023-11-20_12h50.53.048,leap3,2022.2.5,59.99565006660578,
,,,,,,,,,,,,,,,,,,,,12,0,12,0,28,0,28,0,,,,,,desert,w,g,lower,,,,,,,1,w,HiDemTar,g,1,0.5663208888054214,,,,,,,,,,,,,,,,,,,335,2023-11-20_12h50.53.048,leap3,2022.2.5,59.99565006660578,
,,,,,,,,,,,,,,,,,,,,12,0,12,0,29,0,29,0,,,,,,chappef,nw,h,lower,,,,,,,1,w,HiDemTar,h,1,0.6060591190498599,,,,,,,,,,,,,,,,,,,335,2023-11-20_12h50.53.048,leap3,2022.2.5,59.99565006660578,
,,,,,,,,,,,,,,,,,,,,12,0,12,0,,,,,,,,,,,,,,,,,,,,,,,,,,,0,,,,,,,,,,,,,,,,,335,2023-11-20_12h50.53.048,leap3,2022.2.5,59.99565006660578,
,,,,,,,,,,,,,,,,,,,,13,0,13,0,0,0,0,0,,,,,,govern,w,g,lower,,,,,,,1,w,HiDemTar,g,1,0.6688612817260946,,,,,,,,,,,,,,,,,,,335,2023-11-20_12h50.53.048,leap3,2022.2.5,59.99565006660578,
,,,,,,,,,,,,,,,,,,,,13,0,13,0,1,0,1,0,,,,,,meteoroid,w,g,lower,,,,,,,1,w,HiDemTar,g,1,0.7913873261077242,,,,,,,,,,,,,,,,,,,335,2023-11-20_12h50.53.048,leap3,2022.2.5,59.99565006660578,
,,,,,,,,,,,,,,,,,,,,13,0,13,0,2,0,2,0,,,,,,oppose,w,g,lower,,,,,,,1,w,HiDemTar,g,1,0.5180639182281084,,,,,,,,,,,,,,,,,,,335,2023-11-20_12h50.53.048,leap3,2022.2.5,59.99565006660578,
,,,,,,,,,,,,,,,,,,,,13,0,13,0,3,0,3,0,,,,,,encrusted,w,g,lower,,,,,,,1,w,HiDemTar,g,1,0.6481323800180689,,,,,,,,,,,,,,,,,,,335,2023-11-20_12h50.53.048,leap3,2022.2.5,59.99565006660578,
,,,,,,,,,,,,,,,,,,,,13,0,13,0,4,0,4,0,,,,,,mineluyer,nw,h,lower,,,,,,,1,nw,HiDemTar,h,1,0.5248445455181354,,,,,,,,,,,,,,,,,,,335,2023-11-20_12h50.53.048,leap3,2022.2.5,59.99565006660578,
,,,,,,,,,,,,,,,,,,,,13,0,13,0,5,0,5,0,,,,,,squadroim,nw,h,lower,,,,,,,1,nw,HiDemTar,h,1,0.566132179390479,,,,,,,,,,,,,,,,,,,335,2023-11-20_12h50.53.048,leap3,2022.2.5,59.99565006660578,
,,,,,,,,,,,,,,,,,,,,13,0,13,0,6,0,6,0,,,,,,arpired,nw,h,lower,,,,,,,1,nw,HiDemTar,h,1,0.7343000791233862,,,,,,,,,,,,,,,,,,,335,2023-11-20_12h50.53.048,leap3,2022.2.5,59.99565006660578,
,,,,,,,,,,,,,,,,,,,,13,0,13,0,7,0,7,0,,,,,,veirs,nw,h,lower,,,,,,,1,nw,HiDemTar,h,1,0.4710620308032958,,,,,,,,,,,,,,,,,,,335,2023-11-20_12h50.53.048,leap3,2022.2.5,59.99565006660578,
,,,,,,,,,,,,,,,,,,,,13,0,13,0,8,0,8,0,,,,,,joadbed,nw,h,lower,,,,,,,1,nw,HiDemTar,h,1,0.474465752748074,,,,,,,,,,,,,,,,,,,335,2023-11-20_12h50.53.048,leap3,2022.2.5,59.99565006660578,
,,,,,,,,,,,,,,,,,,,,13,0,13,0,9,0,9,0,,,,,,alticles,nw,h,lower,,,,,,,1,nw,HiDemTar,h,1,0.533832741909464,,,,,,,,,,,,,,,,,,,335,2023-11-20_12h50.53.048,leap3,2022.2.5,59.99565006660578,
,,,,,,,,,,,,,,,,,,,,13,0,13,0,10,0,10,0,,,,,,retreat,w,g,lower,,,,,,,1,w,HiDemTar,g,1,0.5586377670088041,,,,,,,,,,,,,,,,,,,335,2023-11-20_12h50.53.048,leap3,2022.2.5,59.99565006660578,
,,,,,,,,,,,,,,,,,,,,13,0,13,0,11,0,11,0,,,,,,posing,w,g,lower,,,,,,,1,w,HiDemTar,g,1,0.5426517619644073,,,,,,,,,,,,,,,,,,,335,2023-11-20_12h50.53.048,leap3,2022.2.5,59.99565006660578,
,,,,,,,,,,,,,,,,,,,,13,0,13,0,12,0,12,0,,,,,,partner,w,g,lower,,,,,,,1,w,HiDemTar,g,1,0.49438055541304493,,,,,,,,,,,,,,,,,,,335,2023-11-20_12h50.53.048,leap3,2022.2.5,59.99565006660578,
,,,,,,,,,,,,,,,,,,,,13,0,13,0,13,0,13,0,,,,,,snorls,nw,h,lower,,,,,,,1,nw,HiDemTar,h,1,0.5211282942927937,,,,,,,,,,,,,,,,,,,335,2023-11-20_12h50.53.048,leap3,2022.2.5,59.99565006660578,
,,,,,,,,,,,,,,,,,,,,13,0,13,0,14,0,14,0,,,,,,blipover,nw,h,lower,,,,,,,1,nw,HiDemTar,h,1,0.5145026073660119,,,,,,,,,,,,,,,,,,,335,2023-11-20_12h50.53.048,leap3,2022.2.5,59.99565006660578,
,,,,,,,,,,,,,,,,,,,,13,0,13,0,15,0,15,0,,,,,,chight,nw,h,lower,,,,,,,1,nw,HiDemTar,h,1,0.46857835002901993,,,,,,,,,,,,,,,,,,,335,2023-11-20_12h50.53.048,leap3,2022.2.5,59.99565006660578,
,,,,,,,,,,,,,,,,,,,,13,0,13,0,16,0,16,0,,,,,,octopus,target,q,lower,,,,,,,1,target,HiDemTar,g,0,0.48064515845999267,1,,1,,,,,,,,,,,,,,,,335,2023-11-20_12h50.53.048,leap3,2022.2.5,59.99565006660578,
,,,,,,,,,,,,,,,,,,,,13,0,13,0,17,0,17,0,,,,,,intercede,w,g,lower,,,,,,,1,aftertar1,HiDemTar,g,1,2.2760894482944423,,,,,,,,,,,,,,,,,,,335,2023-11-20_12h50.53.048,leap3,2022.2.5,59.99565006660578,
,,,,,,,,,,,,,,,,,,,,13,0,13,0,18,0,18,0,,,,,,dealer,w,g,lower,,,,,,,1,aftertar2,HiDemTar,g,1,0.6555241609612494,,,,,,,,,,,,,,,,,,,335,2023-11-20_12h50.53.048,leap3,2022.2.5,59.99565006660578,
,,,,,,,,,,,,,,,,,,,,13,0,13,0,19,0,19,0,,,,,,acroad,nw,h,lower,,,,,,,1,aftertar3,HiDemTar,h,1,0.9236481278185238,,,,,,,,,,,,,,,,,,,335,2023-11-20_12h50.53.048,leap3,2022.2.5,59.99565006660578,
,,,,,,,,,,,,,,,,,,,,13,0,13,0,20,0,20,0,,,,,,sazer,nw,h,lower,,,,,,,1,nw,HiDemTar,g,0,0.523993035660169,,,,,,,,,,,,,,,,,,,335,2023-11-20_12h50.53.048,leap3,2022.2.5,59.99565006660578,
,,,,,,,,,,,,,,,,,,,,13,0,13,0,21,0,21,0,,,,,,ordinary,w,g,lower,,,,,,,1,nw,HiDemTar,g,1,0.5093673937590211,,,,,,,,,,,,,,,,,,,335,2023-11-20_12h50.53.048,leap3,2022.2.5,59.99565006660578,
,,,,,,,,,,,,,,,,,,,,13,0,13,0,22,0,22,0,,,,,,gonesty,nw,h,lower,,,,,,,1,w,HiDemTar,h,1,0.575830188042346,,,,,,,,,,,,,,,,,,,335,2023-11-20_12h50.53.048,leap3,2022.2.5,59.99565006660578,
,,,,,,,,,,,,,,,,,,,,13,0,13,0,23,0,23,0,,,,,,sefine,nw,h,lower,,,,,,,1,nw,HiDemTar,h,1,0.6154601586731587,,,,,,,,,,,,,,,,,,,335,2023-11-20_12h50.53.048,leap3,2022.2.5,59.99565006660578,
,,,,,,,,,,,,,,,,,,,,13,0,13,0,24,0,24,0,,,,,,alchemist,w,g,lower,,,,,,,1,nw,HiDemTar,g,1,0.7094119556668375,,,,,,,,,,,,,,,,,,,335,2023-11-20_12h50.53.048,leap3,2022.2.5,59.99565006660578,
,,,,,,,,,,,,,,,,,,,,13,0,13,0,25,0,25,0,,,,,,huzzles,nw,h,lower,,,,,,,1,w,HiDemTar,h,1,0.6476268374226493,,,,,,,,,,,,,,,,,,,335,2023-11-20_12h50.53.048,leap3,2022.2.5,59.99565006660578,
,,,,,,,,,,,,,,,,,,,,13,0,13,0,26,0,26,0,,,,,,flieves,nw,h,lower,,,,,,,1,nw,HiDemTar,h,1,0.5804111918896524,,,,,,,,,,,,,,,,,,,335,2023-11-20_12h50.53.048,leap3,2022.2.5,59.99565006660578,
,,,,,,,,,,,,,,,,,,,,13,0,13,0,27,0,27,0,,,,,,tinker,w,g,lower,,,,,,,1,nw,HiDemTar,g,1,0.571802069676778,,,,,,,,,,,,,,,,,,,335,2023-11-20_12h50.53.048,leap3,2022.2.5,59.99565006660578,
,,,,,,,,,,,,,,,,,,,,13,0,13,0,28,0,28,0,,,,,,recollect,w,g,lower,,,,,,,1,w,HiDemTar,g,1,0.5713236747524206,,,,,,,,,,,,,,,,,,,335,2023-11-20_12h50.53.048,leap3,2022.2.5,59.99565006660578,
,,,,,,,,,,,,,,,,,,,,13,0,13,0,29,0,29,0,,,,,,couple,w,g,lower,,,,,,,1,w,HiDemTar,g,1,0.5057471525888104,,,,,,,,,,,,,,,,,,,335,2023-11-20_12h50.53.048,leap3,2022.2.5,59.99565006660578,
,,,,,,,,,,,,,,,,,,,,13,0,13,0,,,,,,,,,,,,,,,,,,,,,,,,,,,1,,,,,,,,,,,,,,,,,335,2023-11-20_12h50.53.048,leap3,2022.2.5,59.99565006660578,
,,,,,,,,,,,,,,,,,,,,14,0,14,0,0,0,0,0,,,,,,hinsome,nw,h,lower,,,,,,,1,nw,HiDemTar,h,1,0.6442800593722495,,,,,,,,,,,,,,,,,,,335,2023-11-20_12h50.53.048,leap3,2022.2.5,59.99565006660578,
,,,,,,,,,,,,,,,,,,,,14,0,14,0,1,0,1,0,,,,,,peadgear,nw,h,lower,,,,,,,1,nw,HiDemTar,h,1,0.5529940311853352,,,,,,,,,,,,,,,,,,,335,2023-11-20_12h50.53.048,leap3,2022.2.5,59.99565006660578,
,,,,,,,,,,,,,,,,,,,,14,0,14,0,2,0,2,0,,,,,,plogging,nw,h,lower,,,,,,,1,nw,HiDemTar,h,1,0.6891452264944746,,,,,,,,,,,,,,,,,,,335,2023-11-20_12h50.53.048,leap3,2022.2.5,59.99565006660578,
,,,,,,,,,,,,,,,,,,,,14,0,14,0,3,0,3,0,,,,,,rational,w,g,lower,,,,,,,1,w,HiDemTar,g,1,0.5718209406186361,,,,,,,,,,,,,,,,,,,335,2023-11-20_12h50.53.048,leap3,2022.2.5,59.99565006660578,
,,,,,,,,,,,,,,,,,,,,14,0,14,0,4,0,4,0,,,,,,slowning,nw,h,lower,,,,,,,1,nw,HiDemTar,h,1,0.555253909212297,,,,,,,,,,,,,,,,,,,335,2023-11-20_12h50.53.048,leap3,2022.2.5,59.99565006660578,
,,,,,,,,,,,,,,,,,,,,14,0,14,0,5,0,5,0,,,,,,chrik,nw,h,lower,,,,,,,1,nw,HiDemTar,h,1,0.5062877885129637,,,,,,,,,,,,,,,,,,,335,2023-11-20_12h50.53.048,leap3,2022.2.5,59.99565006660578,
,,,,,,,,,,,,,,,,,,,,14,0,14,0,6,0,6,0,,,,,,hecture,nw,h,lower,,,,,,,1,nw,HiDemTar,h,1,0.5963614414667973,,,,,,,,,,,,,,,,,,,335,2023-11-20_12h50.53.048,leap3,2022.2.5,59.99565006660578,
,,,,,,,,,,,,,,,,,,,,14,0,14,0,7,0,7,0,,,,,,fonducts,nw,h,lower,,,,,,,1,nw,HiDemTar,h,1,0.5471692005357909,,,,,,,,,,,,,,,,,,,335,2023-11-20_12h50.53.048,leap3,2022.2.5,59.99565006660578,
,,,,,,,,,,,,,,,,,,,,14,0,14,0,8,0,8,0,,,,,,omners,nw,h,lower,,,,,,,1,nw,HiDemTar,h,1,0.5718566960867975,,,,,,,,,,,,,,,,,,,335,2023-11-20_12h50.53.048,leap3,2022.2.5,59.99565006660578,
,,,,,,,,,,,,,,,,,,,,14,0,14,0,9,0,9,0,,,,,,digest,w,g,lower,,,,,,,1,w,HiDemTar,g,1,0.4832665640005871,,,,,,,,,,,,,,,,,,,335,2023-11-20_12h50.53.048,leap3,2022.2.5,59.99565006660578,
,,,,,,,,,,,,,,,,,,,,14,0,14,0,10,0,10,0,,,,,,fivalve,nw,h,lower,,,,,,,1,nw,HiDemTar,h,1,0.5584629624972877,,,,,,,,,,,,,,,,,,,335,2023-11-20_12h50.53.048,leap3,2022.2.5,59.99565006660578,
,,,,,,,,,,,,,,,,,,,,14,0,14,0,11,0,11,0,,,,,,arrigns,nw,h,lower,,,,,,,1,nw,HiDemTar,h,1,0.6384376820578836,,,,,,,,,,,,,,,,,,,335,2023-11-20_12h50.53.048,leap3,2022.2.5,59.99565006660578,
,,,,,,,,,,,,,,,,,,,,14,0,14,0,12,0,12,0,,,,,,suburb,w,g,lower,,,,,,,1,w,HiDemTar,g,1,0.5472602445524899,,,,,,,,,,,,,,,,,,,335,2023-11-20_12h50.53.048,leap3,2022.2.5,59.99565006660578,
,,,,,,,,,,,,,,,,,,,,14,0,14,0,13,0,13,0,,,,,,pillage,w,g,lower,,,,,,,1,w,HiDemTar,g,1,0.4360488194888603,,,,,,,,,,,,,,,,,,,335,2023-11-20_12h50.53.048,leap3,2022.2.5,59.99565006660578,
,,,,,,,,,,,,,,,,,,,,14,0,14,0,14,0,14,0,,,,,,childhood,w,g,lower,,,,,,,1,w,HiDemTar,g,1,0.5126184928249131,,,,,,,,,,,,,,,,,,,335,2023-11-20_12h50.53.048,leap3,2022.2.5,59.99565006660578,
,,,,,,,,,,,,,,,,,,,,14,0,14,0,15,0,15,0,,,,,,protest,w,g,lower,,,,,,,1,w,HiDemTar,g,1,0.5456734301087636,,,,,,,,,,,,,,,,,,,335,2023-11-20_12h50.53.048,leap3,2022.2.5,59.99565006660578,
,,,,,,,,,,,,,,,,,,,,14,0,14,0,16,0,16,0,,,,,,scarlet,w,g,lower,,,,,,,1,w,HiDemTar,g,1,0.6817067647998556,,,,,,,,,,,,,,,,,,,335,2023-11-20_12h50.53.048,leap3,2022.2.5,59.99565006660578,
,,,,,,,,,,,,,,,,,,,,14,0,14,0,17,0,17,0,,,,,,goblet,w,g,lower,,,,,,,1,w,HiDemTar,g,1,0.6534774914671289,,,,,,,,,,,,,,,,,,,335,2023-11-20_12h50.53.048,leap3,2022.2.5,59.99565006660578,
,,,,,,,,,,,,,,,,,,,,14,0,14,0,18,0,18,0,,,,,,browting,nw,h,lower,,,,,,,1,nw,HiDemTar,h,1,0.4899432355769022,,,,,,,,,,,,,,,,,,,335,2023-11-20_12h50.53.048,leap3,2022.2.5,59.99565006660578,
,,,,,,,,,,,,,,,,,,,,14,0,14,0,19,0,19,0,,,,,,oleandur,nw,h,lower,,,,,,,1,nw,HiDemTar,h,1,0.500717218970749,,,,,,,,,,,,,,,,,,,335,2023-11-20_12h50.53.048,leap3,2022.2.5,59.99565006660578,
,,,,,,,,,,,,,,,,,,,,14,0,14,0,20,0,20,0,,,,,,larger,w,g,lower,,,,,,,1,w,HiDemTar,g,1,0.4874198265042651,,,,,,,,,,,,,,,,,,,335,2023-11-20_12h50.53.048,leap3,2022.2.5,59.99565006660578,
,,,,,,,,,,,,,,,,,,,,14,0,14,0,21,0,21,0,,,,,,elephant,target,q,lower,,,,,,,1,target,HiDemTar,q,1,0.6901566427513899,1,,,,,,,,,,,,,,,,,,335,2023-11-20_12h50.53.048,leap3,2022.2.5,59.99565006660578,
,,,,,,,,,,,,,,,,,,,,14,0,14,0,22,0,22,0,,,,,,pircus,nw,h,lower,,,,,,,1,aftertar1,HiDemTar,h,1,0.8609734267656677,,,,,,,,,,,,,,,,,,,335,2023-11-20_12h50.53.048,leap3,2022.2.5,59.99565006660578,
,,,,,,,,,,,,,,,,,,,,14,0,14,0,23,0,23,0,,,,,,surround,w,g,lower,,,,,,,1,aftertar2,HiDemTar,g,1,0.47303917577482935,,,,,,,,,,,,,,,,,,,335,2023-11-20_12h50.53.048,leap3,2022.2.5,59.99565006660578,
,,,,,,,,,,,,,,,,,,,,14,0,14,0,24,0,24,0,,,,,,sweeping,w,g,lower,,,,,,,1,aftertar3,HiDemTar,g,1,0.5552582131122108,,,,,,,,,,,,,,,,,,,335,2023-11-20_12h50.53.048,leap3,2022.2.5,59.99565006660578,
,,,,,,,,,,,,,,,,,,,,14,0,14,0,25,0,25,0,,,,,,sustain,w,g,lower,,,,,,,1,w,HiDemTar,g,1,0.5233067293092972,,,,,,,,,,,,,,,,,,,335,2023-11-20_12h50.53.048,leap3,2022.2.5,59.99565006660578,
,,,,,,,,,,,,,,,,,,,,14,0,14,0,26,0,26,0,,,,,,trewl,nw,h,lower,,,,,,,1,w,HiDemTar,h,1,0.5327051203794326,,,,,,,,,,,,,,,,,,,335,2023-11-20_12h50.53.048,leap3,2022.2.5,59.99565006660578,
,,,,,,,,,,,,,,,,,,,,14,0,14,0,27,0,27,0,,,,,,surfaced,w,g,lower,,,,,,,1,nw,HiDemTar,g,1,0.6781133402309933,,,,,,,,,,,,,,,,,,,335,2023-11-20_12h50.53.048,leap3,2022.2.5,59.99565006660578,
,,,,,,,,,,,,,,,,,,,,14,0,14,0,28,0,28,0,,,,,,twenties,w,g,lower,,,,,,,1,w,HiDemTar,g,1,0.48949231939241145,,,,,,,,,,,,,,,,,,,335,2023-11-20_12h50.53.048,leap3,2022.2.5,59.99565006660578,
,,,,,,,,,,,,,,,,,,,,14,0,14,0,29,0,29,0,,,,,,insole,w,g,lower,,,,,,,1,w,HiDemTar,g,1,0.5242568977737392,,,,,,,,,,,,,,,,,,,335,2023-11-20_12h50.53.048,leap3,2022.2.5,59.99565006660578,
,,,,,,,,,,,,,,,,,,,,14,0,14,0,,,,,,,,,,,,,,,,,,,,,,,,,,,1,,,,,,,,,,,,,,,,,335,2023-11-20_12h50.53.048,leap3,2022.2.5,59.99565006660578,
,,,,,,,,,,,,,,,,,,,,15,0,15,0,0,0,0,0,,,,,,contusiok,nw,h,upper,,,,,,,3,nw,LoDemNoTar,h,1,0.5499356143645855,,,,,,,,,,,,,,,,,,,335,2023-11-20_12h50.53.048,leap3,2022.2.5,59.99565006660578,
,,,,,,,,,,,,,,,,,,,,15,0,15,0,1,0,1,0,,,,,,afternoon,w,g,upper,,,,,,,3,w,LoDemNoTar,g,1,0.43035476115255733,,,,,,,,,,,,,,,,,,,335,2023-11-20_12h50.53.048,leap3,2022.2.5,59.99565006660578,
,,,,,,,,,,,,,,,,,,,,15,0,15,0,2,0,2,0,,,,,,extend,w,g,upper,,,,,,,3,w,LoDemNoTar,g,1,0.5557885858925147,,,,,,,,,,,,,,,,,,,335,2023-11-20_12h50.53.048,leap3,2022.2.5,59.99565006660578,
,,,,,,,,,,,,,,,,,,,,15,0,15,0,3,0,3,0,,,,,,thacked,nw,h,upper,,,,,,,3,nw,LoDemNoTar,h,1,0.5638382012393777,,,,,,,,,,,,,,,,,,,335,2023-11-20_12h50.53.048,leap3,2022.2.5,59.99565006660578,
,,,,,,,,,,,,,,,,,,,,15,0,15,0,4,0,4,0,,,,,,sefraud,nw,h,upper,,,,,,,3,nw,LoDemNoTar,h,1,0.5478922555621466,,,,,,,,,,,,,,,,,,,335,2023-11-20_12h50.53.048,leap3,2022.2.5,59.99565006660578,
,,,,,,,,,,,,,,,,,,,,15,0,15,0,5,0,5,0,,,,,,hackal,nw,h,upper,,,,,,,3,nw,LoDemNoTar,h,1,0.5725426713688648,,,,,,,,,,,,,,,,,,,335,2023-11-20_12h50.53.048,leap3,2022.2.5,59.99565006660578,
,,,,,,,,,,,,,,,,,,,,15,0,15,0,6,0,6,0,,,,,,insertion,w,g,upper,,,,,,,3,w,LoDemNoTar,g,1,0.6600154450698028,,,,,,,,,,,,,,,,,,,335,2023-11-20_12h50.53.048,leap3,2022.2.5,59.99565006660578,
,,,,,,,,,,,,,,,,,,,,15,0,15,0,7,0,7,0,,,,,,innocent,w,g,upper,,,,,,,3,w,LoDemNoTar,g,1,0.4320418895486,,,,,,,,,,,,,,,,,,,335,2023-11-20_12h50.53.048,leap3,2022.2.5,59.99565006660578,
,,,,,,,,,,,,,,,,,,,,15,0,15,0,8,0,8,0,,,,,,rodeo,w,g,upper,,,,,,,3,w,LoDemNoTar,h,0,0.5094547960143245,,,,,,,,,,,,,,,,,,,335,2023-11-20_12h50.53.048,leap3,2022.2.5,59.99565006660578,
,,,,,,,,,,,,,,,,,,,,15,0,15,0,9,0,9,0,,,,,,resent,w,g,upper,,,,,,,3,w,LoDemNoTar,g,1,0.4865577224345543,,,,,,,,,,,,,,,,,,,335,2023-11-20_12h50.53.048,leap3,2022.2.5,59.99565006660578,
,,,,,,,,,,,,,,,,,,,,15,0,15,0,10,0,10,0,,,,,,bloodless,w,g,upper,,,,,,,3,w,LoDemNoTar,g,1,0.4892042892306563,,,,,,,,,,,,,,,,,,,335,2023-11-20_12h50.53.048,leap3,2022.2.5,59.99565006660578,
,,,,,,,,,,,,,,,,,,,,15,0,15,0,11,0,11,0,,,,,,moral,w,g,upper,,,,,,,3,w,LoDemNoTar,g,1,0.428599763580678,,,,,,,,,,,,,,,,,,,335,2023-11-20_12h50.53.048,leap3,2022.2.5,59.99565006660578,
,,,,,,,,,,,,,,,,,,,,15,0,15,0,12,0,12,0,,,,,,gontracts,nw,h,upper,,,,,,,3,nw,LoDemNoTar,h,1,0.5774368666343435,,,,,,,,,,,,,,,,,,,335,2023-11-20_12h50.53.048,leap3,2022.2.5,59.99565006660578,
,,,,,,,,,,,,,,,,,,,,15,0,15,0,13,0,13,0,,,,,,lindo,nw,h,upper,,,,,,,3,nw,LoDemNoTar,h,1,0.6014208402384611,,,,,,,,,,,,,,,,,,,335,2023-11-20_12h50.53.048,leap3,2022.2.5,59.99565006660578,
,,,,,,,,,,,,,,,,,,,,15,0,15,0,14,0,14,0,,,,,,ecistle,nw,h,upper,,,,,,,3,nw,LoDemNoTar,h,1,0.7681181308016676,,,,,,,,,,,,,,,,,,,335,2023-11-20_12h50.53.048,leap3,2022.2.5,59.99565006660578,
,,,,,,,,,,,,,,,,,,,,15,0,15,0,15,0,15,0,,,,,,maunches,nw,h,upper,,,,,,,3,nw,LoDemNoTar,h,1,0.5755332190128684,,,,,,,,,,,,,,,,,,,335,2023-11-20_12h50.53.048,leap3,2022.2.5,59.99565006660578,
,,,,,,,,,,,,,,,,,,,,15,0,15,0,16,0,16,0,,,,,,lanthers,nw,h,upper,,,,,,,3,nw,LoDemNoTar,h,1,0.4550617897839402,,,,,,,,,,,,,,,,,,,335,2023-11-20_12h50.53.048,leap3,2022.2.5,59.99565006660578,
,,,,,,,,,,,,,,,,,,,,15,0,15,0,17,0,17,0,,,,,,scrooner,nw,h,upper,,,,,,,3,nw,LoDemNoTar,h,1,0.5870782624606363,,,,,,,,,,,,,,,,,,,335,2023-11-20_12h50.53.048,leap3,2022.2.5,59.99565006660578,
,,,,,,,,,,,,,,,,,,,,15,0,15,0,18,0,18,0,,,,,,nopping,nw,h,upper,,,,,,,3,nw,LoDemNoTar,h,1,0.5538303118619297,,,,,,,,,,,,,,,,,,,335,2023-11-20_12h50.53.048,leap3,2022.2.5,59.99565006660578,
,,,,,,,,,,,,,,,,,,,,15,0,15,0,19,0,19,0,,,,,,disuse,w,g,upper,,,,,,,3,w,LoDemNoTar,h,0,0.7209232300610893,,,,,,,,,,,,,,,,,,,335,2023-11-20_12h50.53.048,leap3,2022.2.5,59.99565006660578,
,,,,,,,,,,,,,,,,,,,,15,0,15,0,20,0,20,0,,,,,,mullet,w,g,upper,,,,,,,3,w,LoDemNoTar,g,1,0.45830097036196094,,,,,,,,,,,,,,,,,,,335,2023-11-20_12h50.53.048,leap3,2022.2.5,59.99565006660578,
,,,,,,,,,,,,,,,,,,,,15,0,15,0,21,0,21,0,,,,,,gensions,nw,h,upper,,,,,,,3,nw,LoDemNoTar,h,1,0.5183817446140893,,,,,,,,,,,,,,,,,,,335,2023-11-20_12h50.53.048,leap3,2022.2.5,59.99565006660578,
,,,,,,,,,,,,,,,,,,,,15,0,15,0,22,0,22,0,,,,,,pepperoni,w,g,upper,,,,,,,3,w,LoDemNoTar,g,1,0.48044155093066365,,,,,,,,,,,,,,,,,,,335,2023-11-20_12h50.53.048,leap3,2022.2.5,59.99565006660578,
,,,,,,,,,,,,,,,,,,,,15,0,15,0,23,0,23,0,,,,,,menarthe,nw,h,upper,,,,,,,3,nw,LoDemNoTar,h,1,0.5638954762025605,,,,,,,,,,,,,,,,,,,335,2023-11-20_12h50.53.048,leap3,2022.2.5,59.99565006660578,
,,,,,,,,,,,,,,,,,,,,15,0,15,0,24,0,24,0,,,,,,frose,nw,h,upper,,,,,,,3,nw,LoDemNoTar,h,1,0.6118829564920816,,,,,,,,,,,,,,,,,,,335,2023-11-20_12h50.53.048,leap3,2022.2.5,59.99565006660578,
,,,,,,,,,,,,,,,,,,,,15,0,15,0,25,0,25,0,,,,,,terming,w,g,upper,,,,,,,3,w,LoDemNoTar,g,1,0.7619946757768048,,,,,,,,,,,,,,,,,,,335,2023-11-20_12h50.53.048,leap3,2022.2.5,59.99565006660578,
,,,,,,,,,,,,,,,,,,,,15,0,15,0,26,0,26,0,,,,,,outset,w,g,upper,,,,,,,3,w,LoDemNoTar,g,1,0.466120161579056,,,,,,,,,,,,,,,,,,,335,2023-11-20_12h50.53.048,leap3,2022.2.5,59.99565006660578,
,,,,,,,,,,,,,,,,,,,,15,0,15,0,27,0,27,0,,,,,,paying,w,g,upper,,,,,,,3,w,LoDemNoTar,g,1,0.4541066552819757,,,,,,,,,,,,,,,,,,,335,2023-11-20_12h50.53.048,leap3,2022.2.5,59.99565006660578,
,,,,,,,,,,,,,,,,,,,,15,0,15,0,28,0,28,0,,,,,,yellep,nw,h,upper,,,,,,,3,nw,LoDemNoTar,h,1,0.5062209125435402,,,,,,,,,,,,,,,,,,,335,2023-11-20_12h50.53.048,leap3,2022.2.5,59.99565006660578,
,,,,,,,,,,,,,,,,,,,,15,0,15,0,29,0,29,0,,,,,,function,w,g,upper,,,,,,,3,w,LoDemNoTar,g,1,0.4433032067336171,,,,,,,,,,,,,,,,,,,335,2023-11-20_12h50.53.048,leap3,2022.2.5,59.99565006660578,
,,,,,,,,,,,,,,,,,,,,15,0,15,0,,,,,,,,,,,,,,,,,,,,,,,,,,,NA,,,,,,,,,,,,,,,,,335,2023-11-20_12h50.53.048,leap3,2022.2.5,59.99565006660578,
,,,,,,,,,,,,,,,,,,,,16,0,16,0,0,0,0,0,,,,,,snife,nw,h,upper,,,,,,,3,nw,LoDemNoTar,h,1,0.63283632308503,,,,,,,,,,,,,,,,,,,335,2023-11-20_12h50.53.048,leap3,2022.2.5,59.99565006660578,
,,,,,,,,,,,,,,,,,,,,16,0,16,0,1,0,1,0,,,,,,staircase,w,g,upper,,,,,,,3,w,LoDemNoTar,g,1,0.4861465345484248,,,,,,,,,,,,,,,,,,,335,2023-11-20_12h50.53.048,leap3,2022.2.5,59.99565006660578,
,,,,,,,,,,,,,,,,,,,,16,0,16,0,2,0,2,0,,,,,,monopoly,w,g,upper,,,,,,,3,w,LoDemNoTar,g,1,0.5449010457787153,,,,,,,,,,,,,,,,,,,335,2023-11-20_12h50.53.048,leap3,2022.2.5,59.99565006660578,
,,,,,,,,,,,,,,,,,,,,16,0,16,0,3,0,3,0,,,,,,handle,w,g,upper,,,,,,,3,w,LoDemNoTar,g,1,0.513624611976411,,,,,,,,,,,,,,,,,,,335,2023-11-20_12h50.53.048,leap3,2022.2.5,59.99565006660578,
,,,,,,,,,,,,,,,,,,,,16,0,16,0,4,0,4,0,,,,,,result,w,g,upper,,,,,,,3,w,LoDemNoTar,g,1,0.36270044899447385,,,,,,,,,,,,,,,,,,,335,2023-11-20_12h50.53.048,leap3,2022.2.5,59.99565006660578,
,,,,,,,,,,,,,,,,,,,,16,0,16,0,5,0,5,0,,,,,,legalize,w,g,upper,,,,,,,3,w,LoDemNoTar,g,1,0.3946691483924951,,,,,,,,,,,,,,,,,,,335,2023-11-20_12h50.53.048,leap3,2022.2.5,59.99565006660578,
,,,,,,,,,,,,,,,,,,,,16,0,16,0,6,0,6,0,,,,,,mustled,nw,h,upper,,,,,,,3,nw,LoDemNoTar,h,1,0.5295179176591773,,,,,,,,,,,,,,,,,,,335,2023-11-20_12h50.53.048,leap3,2022.2.5,59.99565006660578,
,,,,,,,,,,,,,,,,,,,,16,0,16,0,7,0,7,0,,,,,,laser,w,g,upper,,,,,,,3,w,LoDemNoTar,g,1,0.6667666072044085,,,,,,,,,,,,,,,,,,,335,2023-11-20_12h50.53.048,leap3,2022.2.5,59.99565006660578,
