demoRace_loop.thisRepN,demoRace_loop.thisTrialN,demoRace_loop.thisN,demoRace_loop.thisIndex,LDTunderstand.thisRepN,LDTunderstand.thisTrialN,LDTunderstand.thisN,LDTunderstand.thisIndex,pracBlocks.thisRepN,pracBlocks.thisTrialN,pracBlocks.thisN,pracBlocks.thisIndex,pracTrial.thisRepN,pracTrial.thisTrialN,pracTrial.thisN,pracTrial.thisIndex,PMunderstand.thisRepN,PMunderstand.thisTrialN,PMunderstand.thisN,PMunderstand.thisIndex,LDT_block.thisRepN,LDT_block.thisTrialN,LDT_block.thisN,LDT_block.thisIndex,LDT_trial.thisRepN,LDT_trial.thisTrialN,LDT_trial.thisN,LDT_trial.thisIndex,ageTextbox.text,genderTextbox.text,race,raceResp,LDTunderstand,stim,word_type,corr_key,stim_location,LDTpracKey.keys,LDTpracKey.corr,LDTpracKey.rt,PMunderstand,cueTextbox.text,intentionTextbox.text,block_type,role,block_desc,LDTResp.keys,LDTResp.corr,LDTResp.rt,pressedQ,pressedQ_blank,PM_accuracy,pressedQ_late,postQ1,Q2Textbox.text,Q3Textbox.text,Q4,Q5,Q6Key.keys,Q6Key.rt,postQ7_correct,postQ7,Q8Textbox.text,education,medTextbox.text,health,healthLimit,psych,participant,date,expName,psychopyVersion,frameRate,
0,0,0,0,,,,,,,,,,,,,,,,,,,,,,,,,"
18", Female,American Indian or Alaska Native,n,,,,,,,,,,,,,,,,,,,,,,,,,,,,,,,,,,,,,336,2023-11-20_13h44.37.529,leap3,2022.2.5,59.923521312797305,
1,0,1,0,,,,,,,,,,,,,,,,,,,,,,,,,,,Asian,y,,,,,,,,,,,,,,,,,,,,,,,,,,,,,,,,,,,,,336,2023-11-20_13h44.37.529,leap3,2022.2.5,59.923521312797305,
2,0,2,0,,,,,,,,,,,,,,,,,,,,,,,,,,,Black or African American,n,,,,,,,,,,,,,,,,,,,,,,,,,,,,,,,,,,,,,336,2023-11-20_13h44.37.529,leap3,2022.2.5,59.923521312797305,
3,0,3,0,,,,,,,,,,,,,,,,,,,,,,,,,,,Native Hawaiian or other Pacific Islander,n,,,,,,,,,,,,,,,,,,,,,,,,,,,,,,,,,,,,,336,2023-11-20_13h44.37.529,leap3,2022.2.5,59.923521312797305,
4,0,4,0,,,,,,,,,,,,,,,,,,,,,,,,,,,White,n,,,,,,,,,,,,,,,,,,,,,,,,,,,,,,,,,,,,,336,2023-11-20_13h44.37.529,leap3,2022.2.5,59.923521312797305,
,,,,0,0,0,0,,,,,,,,,,,,,,,,,,,,,,,,,y,,,,,,,,,,,,,,,,,,,,,,,,,,,,,,,,,,,,336,2023-11-20_13h44.37.529,leap3,2022.2.5,59.923521312797305,
,,,,,,,,0,0,0,0,0,0,0,0,,,,,,,,,,,,,,,,,,raestro,nw,h,upper,h,1,0.6416193970308086,,,,,,,,,,,,,,,,,,,,,,,,,,,,,336,2023-11-20_13h44.37.529,leap3,2022.2.5,59.923521312797305,
,,,,,,,,0,0,0,0,1,0,1,0,,,,,,,,,,,,,,,,,,latador,nw,h,upper,h,1,0.6939011752820079,,,,,,,,,,,,,,,,,,,,,,,,,,,,,336,2023-11-20_13h44.37.529,leap3,2022.2.5,59.923521312797305,
,,,,,,,,0,0,0,0,2,0,2,0,,,,,,,,,,,,,,,,,,grimace,w,g,upper,g,1,0.4472692245253711,,,,,,,,,,,,,,,,,,,,,,,,,,,,,336,2023-11-20_13h44.37.529,leap3,2022.2.5,59.923521312797305,
,,,,,,,,0,0,0,0,3,0,3,0,,,,,,,,,,,,,,,,,,julled,nw,h,upper,g,0,0.37801154446606233,,,,,,,,,,,,,,,,,,,,,,,,,,,,,336,2023-11-20_13h44.37.529,leap3,2022.2.5,59.923521312797305,
,,,,,,,,0,0,0,0,4,0,4,0,,,,,,,,,,,,,,,,,,picture,w,g,upper,g,1,0.40459705946341273,,,,,,,,,,,,,,,,,,,,,,,,,,,,,336,2023-11-20_13h44.37.529,leap3,2022.2.5,59.923521312797305,
,,,,,,,,0,0,0,0,5,0,5,0,,,,,,,,,,,,,,,,,,sponsor,w,g,upper,g,1,0.4407339194785891,,,,,,,,,,,,,,,,,,,,,,,,,,,,,336,2023-11-20_13h44.37.529,leap3,2022.2.5,59.923521312797305,
,,,,,,,,0,0,0,0,6,0,6,0,,,,,,,,,,,,,,,,,,lumbigo,nw,h,upper,h,1,0.5266208719440328,,,,,,,,,,,,,,,,,,,,,,,,,,,,,336,2023-11-20_13h44.37.529,leap3,2022.2.5,59.923521312797305,
,,,,,,,,0,0,0,0,7,0,7,0,,,,,,,,,,,,,,,,,,revival,w,g,upper,h,0,0.35149886468389013,,,,,,,,,,,,,,,,,,,,,,,,,,,,,336,2023-11-20_13h44.37.529,leap3,2022.2.5,59.923521312797305,
,,,,,,,,0,0,0,0,8,0,8,0,,,,,,,,,,,,,,,,,,treeps,nw,h,upper,h,1,0.5202140217243141,,,,,,,,,,,,,,,,,,,,,,,,,,,,,336,2023-11-20_13h44.37.529,leap3,2022.2.5,59.923521312797305,
,,,,,,,,0,0,0,0,9,0,9,0,,,,,,,,,,,,,,,,,,unscrew,w,g,upper,g,1,0.4487434754573769,,,,,,,,,,,,,,,,,,,,,,,,,,,,,336,2023-11-20_13h44.37.529,leap3,2022.2.5,59.923521312797305,
,,,,,,,,0,0,0,0,10,0,10,0,,,,,,,,,,,,,,,,,,overshoot,w,g,upper,g,1,0.4058498251324636,,,,,,,,,,,,,,,,,,,,,,,,,,,,,336,2023-11-20_13h44.37.529,leap3,2022.2.5,59.923521312797305,
,,,,,,,,0,0,0,0,11,0,11,0,,,,,,,,,,,,,,,,,,turative,nw,h,upper,h,1,0.5395060833161551,,,,,,,,,,,,,,,,,,,,,,,,,,,,,336,2023-11-20_13h44.37.529,leap3,2022.2.5,59.923521312797305,
,,,,,,,,0,0,0,0,12,0,12,0,,,,,,,,,,,,,,,,,,grutch,nw,h,upper,g,0,0.3801754124397121,,,,,,,,,,,,,,,,,,,,,,,,,,,,,336,2023-11-20_13h44.37.529,leap3,2022.2.5,59.923521312797305,
,,,,,,,,0,0,0,0,13,0,13,0,,,,,,,,,,,,,,,,,,summary,w,g,upper,g,1,0.39347412918323244,,,,,,,,,,,,,,,,,,,,,,,,,,,,,336,2023-11-20_13h44.37.529,leap3,2022.2.5,59.923521312797305,
,,,,,,,,0,0,0,0,,,,,,,,,,,,,,,,,,,,,,,,,,,,,,,,,,,,,,,,,,,,,,,,,,,,,,,,,336,2023-11-20_13h44.37.529,leap3,2022.2.5,59.923521312797305,
,,,,,,,,1,0,1,0,0,0,0,0,,,,,,,,,,,,,,,,,,lurshing,nw,h,lower,h,1,0.5232340345246485,,,,,,,,,,,,,,,,,,,,,,,,,,,,,336,2023-11-20_13h44.37.529,leap3,2022.2.5,59.923521312797305,
,,,,,,,,1,0,1,0,1,0,1,0,,,,,,,,,,,,,,,,,,hasking,nw,h,lower,h,1,0.6279134652304492,,,,,,,,,,,,,,,,,,,,,,,,,,,,,336,2023-11-20_13h44.37.529,leap3,2022.2.5,59.923521312797305,
,,,,,,,,1,0,1,0,2,0,2,0,,,,,,,,,,,,,,,,,,hiring,w,g,lower,g,1,0.6100112319381878,,,,,,,,,,,,,,,,,,,,,,,,,,,,,336,2023-11-20_13h44.37.529,leap3,2022.2.5,59.923521312797305,
,,,,,,,,1,0,1,0,3,0,3,0,,,,,,,,,,,,,,,,,,curlecs,nw,h,lower,h,1,0.4961780702633405,,,,,,,,,,,,,,,,,,,,,,,,,,,,,336,2023-11-20_13h44.37.529,leap3,2022.2.5,59.923521312797305,
,,,,,,,,1,0,1,0,4,0,4,0,,,,,,,,,,,,,,,,,,umpire,w,g,lower,g,1,0.49091804358613444,,,,,,,,,,,,,,,,,,,,,,,,,,,,,336,2023-11-20_13h44.37.529,leap3,2022.2.5,59.923521312797305,
,,,,,,,,1,0,1,0,5,0,5,0,,,,,,,,,,,,,,,,,,infinity,w,g,lower,g,1,0.37357621104638383,,,,,,,,,,,,,,,,,,,,,,,,,,,,,336,2023-11-20_13h44.37.529,leap3,2022.2.5,59.923521312797305,
,,,,,,,,1,0,1,0,6,0,6,0,,,,,,,,,,,,,,,,,,crinklo,nw,h,lower,h,1,0.4281794461876416,,,,,,,,,,,,,,,,,,,,,,,,,,,,,336,2023-11-20_13h44.37.529,leap3,2022.2.5,59.923521312797305,
,,,,,,,,1,0,1,0,7,0,7,0,,,,,,,,,,,,,,,,,,reputable,w,g,lower,g,1,0.4895811863534618,,,,,,,,,,,,,,,,,,,,,,,,,,,,,336,2023-11-20_13h44.37.529,leap3,2022.2.5,59.923521312797305,
,,,,,,,,1,0,1,0,8,0,8,0,,,,,,,,,,,,,,,,,,alolition,nw,h,lower,h,1,0.428303597120248,,,,,,,,,,,,,,,,,,,,,,,,,,,,,336,2023-11-20_13h44.37.529,leap3,2022.2.5,59.923521312797305,
,,,,,,,,1,0,1,0,9,0,9,0,,,,,,,,,,,,,,,,,,tricycle,w,g,lower,g,1,0.48180834481718193,,,,,,,,,,,,,,,,,,,,,,,,,,,,,336,2023-11-20_13h44.37.529,leap3,2022.2.5,59.923521312797305,
,,,,,,,,1,0,1,0,10,0,10,0,,,,,,,,,,,,,,,,,,slumber,w,g,lower,g,1,0.45324601591528335,,,,,,,,,,,,,,,,,,,,,,,,,,,,,336,2023-11-20_13h44.37.529,leap3,2022.2.5,59.923521312797305,
,,,,,,,,1,0,1,0,11,0,11,0,,,,,,,,,,,,,,,,,,grocus,nw,h,lower,h,1,0.41734454606921645,,,,,,,,,,,,,,,,,,,,,,,,,,,,,336,2023-11-20_13h44.37.529,leap3,2022.2.5,59.923521312797305,
,,,,,,,,1,0,1,0,12,0,12,0,,,,,,,,,,,,,,,,,,trotch,nw,h,lower,h,1,0.5341083318708115,,,,,,,,,,,,,,,,,,,,,,,,,,,,,336,2023-11-20_13h44.37.529,leap3,2022.2.5,59.923521312797305,
,,,,,,,,1,0,1,0,13,0,13,0,,,,,,,,,,,,,,,,,,busted,w,g,lower,g,1,0.39058190907599055,,,,,,,,,,,,,,,,,,,,,,,,,,,,,336,2023-11-20_13h44.37.529,leap3,2022.2.5,59.923521312797305,
,,,,,,,,1,0,1,0,,,,,,,,,,,,,,,,,,,,,,,,,,,,,,,,,,,,,,,,,,,,,,,,,,,,,,,,,336,2023-11-20_13h44.37.529,leap3,2022.2.5,59.923521312797305,
,,,,,,,,,,,,,,,,0,0,0,0,,,,,,,,,,,,,,,,,,,,,y,,,,,,,,,,,,,,,,,,,,,,,,,,,,336,2023-11-20_13h44.37.529,leap3,2022.2.5,59.923521312797305,
,,,,,,,,,,,,,,,,,,,,0,0,0,0,0,0,0,0,,,,,,even,w,g,lower,,,,,animal,q,4,w,LoDemTar,g,1,0.6277121751863888,,,,,,,,,,,,,,,,,,,,336,2023-11-20_13h44.37.529,leap3,2022.2.5,59.923521312797305,
,,,,,,,,,,,,,,,,,,,,0,0,0,0,1,0,1,0,,,,,,slutches,nw,h,lower,,,,,,,4,nw,LoDemTar,h,1,0.632776871065289,,,,,,,,,,,,,,,,,,,,336,2023-11-20_13h44.37.529,leap3,2022.2.5,59.923521312797305,
,,,,,,,,,,,,,,,,,,,,0,0,0,0,2,0,2,0,,,,,,subber,nw,h,lower,,,,,,,4,nw,LoDemTar,h,1,0.6478309164485836,,,,,,,,,,,,,,,,,,,,336,2023-11-20_13h44.37.529,leap3,2022.2.5,59.923521312797305,
,,,,,,,,,,,,,,,,,,,,0,0,0,0,3,0,3,0,,,,,,athcan,nw,h,lower,,,,,,,4,nw,LoDemTar,h,1,0.6292691934067989,,,,,,,,,,,,,,,,,,,,336,2023-11-20_13h44.37.529,leap3,2022.2.5,59.923521312797305,
,,,,,,,,,,,,,,,,,,,,0,0,0,0,4,0,4,0,,,,,,icepick,w,g,lower,,,,,,,4,w,LoDemTar,g,1,0.6034299082766665,,,,,,,,,,,,,,,,,,,,336,2023-11-20_13h44.37.529,leap3,2022.2.5,59.923521312797305,
,,,,,,,,,,,,,,,,,,,,0,0,0,0,5,0,5,0,,,,,,attrove,nw,h,lower,,,,,,,4,nw,LoDemTar,h,1,0.5692917127289547,,,,,,,,,,,,,,,,,,,,336,2023-11-20_13h44.37.529,leap3,2022.2.5,59.923521312797305,
,,,,,,,,,,,,,,,,,,,,0,0,0,0,6,0,6,0,,,,,,grefab,nw,h,lower,,,,,,,4,nw,LoDemTar,h,1,0.47331211718301347,,,,,,,,,,,,,,,,,,,,336,2023-11-20_13h44.37.529,leap3,2022.2.5,59.923521312797305,
,,,,,,,,,,,,,,,,,,,,0,0,0,0,7,0,7,0,,,,,,podges,nw,h,lower,,,,,,,4,nw,LoDemTar,h,1,0.45333308710360143,,,,,,,,,,,,,,,,,,,,336,2023-11-20_13h44.37.529,leap3,2022.2.5,59.923521312797305,
,,,,,,,,,,,,,,,,,,,,0,0,0,0,8,0,8,0,,,,,,phambled,nw,h,lower,,,,,,,4,nw,LoDemTar,h,1,0.594033172552372,,,,,,,,,,,,,,,,,,,,336,2023-11-20_13h44.37.529,leap3,2022.2.5,59.923521312797305,
,,,,,,,,,,,,,,,,,,,,0,0,0,0,9,0,9,0,,,,,,turning,w,g,lower,,,,,,,4,w,LoDemTar,g,1,0.45740325125007075,,,,,,,,,,,,,,,,,,,,336,2023-11-20_13h44.37.529,leap3,2022.2.5,59.923521312797305,
,,,,,,,,,,,,,,,,,,,,0,0,0,0,10,0,10,0,,,,,,splinging,nw,h,lower,,,,,,,4,nw,LoDemTar,h,1,0.7821562653862202,,,,,,,,,,,,,,,,,,,,336,2023-11-20_13h44.37.529,leap3,2022.2.5,59.923521312797305,
,,,,,,,,,,,,,,,,,,,,0,0,0,0,11,0,11,0,,,,,,asthmatic,w,g,lower,,,,,,,4,w,LoDemTar,g,1,0.7342419513806817,,,,,,,,,,,,,,,,,,,,336,2023-11-20_13h44.37.529,leap3,2022.2.5,59.923521312797305,
,,,,,,,,,,,,,,,,,,,,0,0,0,0,12,0,12,0,,,,,,railway,w,g,lower,,,,,,,4,w,LoDemTar,g,1,0.45563236236012017,,,,,,,,,,,,,,,,,,,,336,2023-11-20_13h44.37.529,leap3,2022.2.5,59.923521312797305,
,,,,,,,,,,,,,,,,,,,,0,0,0,0,13,0,13,0,,,,,,sludding,nw,h,lower,,,,,,,4,nw,LoDemTar,h,1,0.5803901438921457,,,,,,,,,,,,,,,,,,,,336,2023-11-20_13h44.37.529,leap3,2022.2.5,59.923521312797305,
,,,,,,,,,,,,,,,,,,,,0,0,0,0,14,0,14,0,,,,,,boutique,w,g,lower,,,,,,,4,w,LoDemTar,g,1,0.5151195296220976,,,,,,,,,,,,,,,,,,,,336,2023-11-20_13h44.37.529,leap3,2022.2.5,59.923521312797305,
,,,,,,,,,,,,,,,,,,,,0,0,0,0,15,0,15,0,,,,,,arrow,w,g,lower,,,,,,,4,w,LoDemTar,g,1,0.558263468226869,,,,,,,,,,,,,,,,,,,,336,2023-11-20_13h44.37.529,leap3,2022.2.5,59.923521312797305,
,,,,,,,,,,,,,,,,,,,,0,0,0,0,16,0,16,0,,,,,,vibrate,w,g,lower,,,,,,,4,w,LoDemTar,g,1,0.4389180051821313,,,,,,,,,,,,,,,,,,,,336,2023-11-20_13h44.37.529,leap3,2022.2.5,59.923521312797305,
,,,,,,,,,,,,,,,,,,,,0,0,0,0,17,0,17,0,,,,,,omission,w,g,lower,,,,,,,4,w,LoDemTar,g,1,0.4682924467106204,,,,,,,,,,,,,,,,,,,,336,2023-11-20_13h44.37.529,leap3,2022.2.5,59.923521312797305,
,,,,,,,,,,,,,,,,,,,,0,0,0,0,18,0,18,0,,,,,,minimum,w,g,lower,,,,,,,4,w,LoDemTar,g,1,0.4803579308627377,,,,,,,,,,,,,,,,,,,,336,2023-11-20_13h44.37.529,leap3,2022.2.5,59.923521312797305,
,,,,,,,,,,,,,,,,,,,,0,0,0,0,19,0,19,0,,,,,,flicking,w,g,lower,,,,,,,4,w,LoDemTar,g,1,0.5724504435020208,,,,,,,,,,,,,,,,,,,,336,2023-11-20_13h44.37.529,leap3,2022.2.5,59.923521312797305,
,,,,,,,,,,,,,,,,,,,,0,0,0,0,20,0,20,0,,,,,,classify,w,g,lower,,,,,,,4,w,LoDemTar,g,1,0.3884749849967193,,,,,,,,,,,,,,,,,,,,336,2023-11-20_13h44.37.529,leap3,2022.2.5,59.923521312797305,
,,,,,,,,,,,,,,,,,,,,0,0,0,0,21,0,21,0,,,,,,scrooner,nw,h,lower,,,,,,,4,nw,LoDemTar,g,0,0.39590252140806115,,,,,,,,,,,,,,,,,,,,336,2023-11-20_13h44.37.529,leap3,2022.2.5,59.923521312797305,
,,,,,,,,,,,,,,,,,,,,0,0,0,0,22,0,22,0,,,,,,bumbo,nw,h,lower,,,,,,,4,nw,LoDemTar,h,1,0.44327884804442874,,,,,,,,,,,,,,,,,,,,336,2023-11-20_13h44.37.529,leap3,2022.2.5,59.923521312797305,
,,,,,,,,,,,,,,,,,,,,0,0,0,0,23,0,23,0,,,,,,brongs,nw,h,lower,,,,,,,4,nw,LoDemTar,h,1,0.5766811761877761,,,,,,,,,,,,,,,,,,,,336,2023-11-20_13h44.37.529,leap3,2022.2.5,59.923521312797305,
,,,,,,,,,,,,,,,,,,,,0,0,0,0,24,0,24,0,,,,,,monkey,target,q,lower,,,,,,,4,target,LoDemTar,g,0,0.4247499008470186,1,1,,,,,,,,,,,,,,,,,,336,2023-11-20_13h44.37.529,leap3,2022.2.5,59.923521312797305,
,,,,,,,,,,,,,,,,,,,,0,0,0,0,25,0,25,0,,,,,,owner,w,g,lower,,,,,,,4,aftertar1,LoDemTar,g,1,0.7499743574571767,,,,,,,,,,,,,,,,,,,,336,2023-11-20_13h44.37.529,leap3,2022.2.5,59.923521312797305,
,,,,,,,,,,,,,,,,,,,,0,0,0,0,26,0,26,0,,,,,,duplex,w,g,lower,,,,,,,4,aftertar2,LoDemTar,h,0,0.9241438787666993,,,,,,,,,,,,,,,,,,,,336,2023-11-20_13h44.37.529,leap3,2022.2.5,59.923521312797305,
,,,,,,,,,,,,,,,,,,,,0,0,0,0,27,0,27,0,,,,,,fullity,nw,h,lower,,,,,,,4,aftertar3,LoDemTar,g,0,0.5212317282966978,,,,,,,,,,,,,,,,,,,,336,2023-11-20_13h44.37.529,leap3,2022.2.5,59.923521312797305,
,,,,,,,,,,,,,,,,,,,,0,0,0,0,28,0,28,0,,,,,,numbled,nw,h,lower,,,,,,,4,nw,LoDemTar,g,0,0.5632457278861693,,,,,,,,,,,,,,,,,,,,336,2023-11-20_13h44.37.529,leap3,2022.2.5,59.923521312797305,
,,,,,,,,,,,,,,,,,,,,0,0,0,0,29,0,29,0,,,,,,bloodless,w,g,lower,,,,,,,4,nw,LoDemTar,h,0,0.5880133421724167,,,,,,,,,,,,,,,,,,,,336,2023-11-20_13h44.37.529,leap3,2022.2.5,59.923521312797305,
,,,,,,,,,,,,,,,,,,,,0,0,0,0,,,,,,,,,,,,,,,,,,,,,,,,,,,,1,,,,,,,,,,,,,,,,,336,2023-11-20_13h44.37.529,leap3,2022.2.5,59.923521312797305,
,,,,,,,,,,,,,,,,,,,,1,0,1,0,0,0,0,0,,,,,,divider,w,g,lower,,,,,,,3,w,LoDemNoTar,g,1,0.442853093116355,,,,,,,,,,,,,,,,,,,,336,2023-11-20_13h44.37.529,leap3,2022.2.5,59.923521312797305,
,,,,,,,,,,,,,,,,,,,,1,0,1,0,1,0,1,0,,,,,,halents,nw,h,lower,,,,,,,3,nw,LoDemNoTar,h,1,0.5682716886731214,,,,,,,,,,,,,,,,,,,,336,2023-11-20_13h44.37.529,leap3,2022.2.5,59.923521312797305,
,,,,,,,,,,,,,,,,,,,,1,0,1,0,2,0,2,0,,,,,,grolific,nw,h,lower,,,,,,,3,nw,LoDemNoTar,h,1,0.5523475935606257,,,,,,,,,,,,,,,,,,,,336,2023-11-20_13h44.37.529,leap3,2022.2.5,59.923521312797305,
,,,,,,,,,,,,,,,,,,,,1,0,1,0,3,0,3,0,,,,,,passet,nw,h,lower,,,,,,,3,nw,LoDemNoTar,h,1,0.5610328616785409,,,,,,,,,,,,,,,,,,,,336,2023-11-20_13h44.37.529,leap3,2022.2.5,59.923521312797305,
,,,,,,,,,,,,,,,,,,,,1,0,1,0,4,0,4,0,,,,,,pocket,w,g,lower,,,,,,,3,w,LoDemNoTar,g,1,0.49777415464268415,,,,,,,,,,,,,,,,,,,,336,2023-11-20_13h44.37.529,leap3,2022.2.5,59.923521312797305,
,,,,,,,,,,,,,,,,,,,,1,0,1,0,5,0,5,0,,,,,,clypaper,nw,h,lower,,,,,,,3,nw,LoDemNoTar,h,1,0.6291794736662268,,,,,,,,,,,,,,,,,,,,336,2023-11-20_13h44.37.529,leap3,2022.2.5,59.923521312797305,
,,,,,,,,,,,,,,,,,,,,1,0,1,0,6,0,6,0,,,,,,praiged,nw,h,lower,,,,,,,3,nw,LoDemNoTar,g,0,0.571259587764871,,,,,,,,,,,,,,,,,,,,336,2023-11-20_13h44.37.529,leap3,2022.2.5,59.923521312797305,
,,,,,,,,,,,,,,,,,,,,1,0,1,0,7,0,7,0,,,,,,pepperoni,w,g,lower,,,,,,,3,w,LoDemNoTar,g,1,0.45132382842348306,,,,,,,,,,,,,,,,,,,,336,2023-11-20_13h44.37.529,leap3,2022.2.5,59.923521312797305,
,,,,,,,,,,,,,,,,,,,,1,0,1,0,8,0,8,0,,,,,,stranded,w,g,lower,,,,,,,3,w,LoDemNoTar,g,1,0.5360583291731018,,,,,,,,,,,,,,,,,,,,336,2023-11-20_13h44.37.529,leap3,2022.2.5,59.923521312797305,
,,,,,,,,,,,,,,,,,,,,1,0,1,0,9,0,9,0,,,,,,hackal,nw,h,lower,,,,,,,3,nw,LoDemNoTar,h,1,0.5294743569593265,,,,,,,,,,,,,,,,,,,,336,2023-11-20_13h44.37.529,leap3,2022.2.5,59.923521312797305,
,,,,,,,,,,,,,,,,,,,,1,0,1,0,10,0,10,0,,,,,,image,w,g,lower,,,,,,,3,w,LoDemNoTar,g,1,0.49862533343002724,,,,,,,,,,,,,,,,,,,,336,2023-11-20_13h44.37.529,leap3,2022.2.5,59.923521312797305,
,,,,,,,,,,,,,,,,,,,,1,0,1,0,11,0,11,0,,,,,,fudden,nw,h,lower,,,,,,,3,nw,LoDemNoTar,h,1,0.5339676274816156,,,,,,,,,,,,,,,,,,,,336,2023-11-20_13h44.37.529,leap3,2022.2.5,59.923521312797305,
,,,,,,,,,,,,,,,,,,,,1,0,1,0,12,0,12,0,,,,,,chight,nw,h,lower,,,,,,,3,nw,LoDemNoTar,h,1,0.5994395317939052,,,,,,,,,,,,,,,,,,,,336,2023-11-20_13h44.37.529,leap3,2022.2.5,59.923521312797305,
,,,,,,,,,,,,,,,,,,,,1,0,1,0,13,0,13,0,,,,,,lignpost,nw,h,lower,,,,,,,3,nw,LoDemNoTar,h,1,0.6467105784395244,,,,,,,,,,,,,,,,,,,,336,2023-11-20_13h44.37.529,leap3,2022.2.5,59.923521312797305,
,,,,,,,,,,,,,,,,,,,,1,0,1,0,14,0,14,0,,,,,,pammed,nw,h,lower,,,,,,,3,nw,LoDemNoTar,h,1,0.48424435163178714,,,,,,,,,,,,,,,,,,,,336,2023-11-20_13h44.37.529,leap3,2022.2.5,59.923521312797305,
,,,,,,,,,,,,,,,,,,,,1,0,1,0,15,0,15,0,,,,,,tracing,w,g,lower,,,,,,,3,w,LoDemNoTar,g,1,0.5355362331210927,,,,,,,,,,,,,,,,,,,,336,2023-11-20_13h44.37.529,leap3,2022.2.5,59.923521312797305,
,,,,,,,,,,,,,,,,,,,,1,0,1,0,16,0,16,0,,,,,,sustain,w,g,lower,,,,,,,3,w,LoDemNoTar,g,1,0.5449528329954774,,,,,,,,,,,,,,,,,,,,336,2023-11-20_13h44.37.529,leap3,2022.2.5,59.923521312797305,
,,,,,,,,,,,,,,,,,,,,1,0,1,0,17,0,17,0,,,,,,govern,w,g,lower,,,,,,,3,w,LoDemNoTar,g,1,0.6263240022362879,,,,,,,,,,,,,,,,,,,,336,2023-11-20_13h44.37.529,leap3,2022.2.5,59.923521312797305,
,,,,,,,,,,,,,,,,,,,,1,0,1,0,18,0,18,0,,,,,,plogging,nw,h,lower,,,,,,,3,nw,LoDemNoTar,h,1,0.6083946212711453,,,,,,,,,,,,,,,,,,,,336,2023-11-20_13h44.37.529,leap3,2022.2.5,59.923521312797305,
,,,,,,,,,,,,,,,,,,,,1,0,1,0,19,0,19,0,,,,,,implode,w,g,lower,,,,,,,3,w,LoDemNoTar,g,1,0.5031533662149741,,,,,,,,,,,,,,,,,,,,336,2023-11-20_13h44.37.529,leap3,2022.2.5,59.923521312797305,
,,,,,,,,,,,,,,,,,,,,1,0,1,0,20,0,20,0,,,,,,thamp,nw,h,lower,,,,,,,3,nw,LoDemNoTar,h,1,0.5529544433156843,,,,,,,,,,,,,,,,,,,,336,2023-11-20_13h44.37.529,leap3,2022.2.5,59.923521312797305,
,,,,,,,,,,,,,,,,,,,,1,0,1,0,21,0,21,0,,,,,,country,w,g,lower,,,,,,,3,w,LoDemNoTar,g,1,0.46561045551425195,,,,,,,,,,,,,,,,,,,,336,2023-11-20_13h44.37.529,leap3,2022.2.5,59.923521312797305,
,,,,,,,,,,,,,,,,,,,,1,0,1,0,22,0,22,0,,,,,,aicline,nw,h,lower,,,,,,,3,nw,LoDemNoTar,h,1,0.7343919257073139,,,,,,,,,,,,,,,,,,,,336,2023-11-20_13h44.37.529,leap3,2022.2.5,59.923521312797305,
,,,,,,,,,,,,,,,,,,,,1,0,1,0,23,0,23,0,,,,,,culer,nw,h,lower,,,,,,,3,nw,LoDemNoTar,h,1,0.5436855002826633,,,,,,,,,,,,,,,,,,,,336,2023-11-20_13h44.37.529,leap3,2022.2.5,59.923521312797305,
,,,,,,,,,,,,,,,,,,,,1,0,1,0,24,0,24,0,,,,,,handcuff,w,g,lower,,,,,,,3,w,LoDemNoTar,g,1,0.4890703466517152,,,,,,,,,,,,,,,,,,,,336,2023-11-20_13h44.37.529,leap3,2022.2.5,59.923521312797305,
,,,,,,,,,,,,,,,,,,,,1,0,1,0,25,0,25,0,,,,,,apticle,nw,h,lower,,,,,,,3,nw,LoDemNoTar,h,1,0.5243464268733078,,,,,,,,,,,,,,,,,,,,336,2023-11-20_13h44.37.529,leap3,2022.2.5,59.923521312797305,
,,,,,,,,,,,,,,,,,,,,1,0,1,0,26,0,26,0,,,,,,seeming,w,g,lower,,,,,,,3,w,LoDemNoTar,g,1,0.6225971567982924,,,,,,,,,,,,,,,,,,,,336,2023-11-20_13h44.37.529,leap3,2022.2.5,59.923521312797305,
,,,,,,,,,,,,,,,,,,,,1,0,1,0,27,0,27,0,,,,,,heaviest,w,g,lower,,,,,,,3,w,LoDemNoTar,g,1,0.5406767438362294,,,,,,,,,,,,,,,,,,,,336,2023-11-20_13h44.37.529,leap3,2022.2.5,59.923521312797305,
,,,,,,,,,,,,,,,,,,,,1,0,1,0,28,0,28,0,,,,,,movie,w,g,lower,,,,,,,3,w,LoDemNoTar,g,1,0.46215839747310383,,,,,,,,,,,,,,,,,,,,336,2023-11-20_13h44.37.529,leap3,2022.2.5,59.923521312797305,
,,,,,,,,,,,,,,,,,,,,1,0,1,0,29,0,29,0,,,,,,strenuous,w,g,lower,,,,,,,3,w,LoDemNoTar,h,0,0.5067570539285953,,,,,,,,,,,,,,,,,,,,336,2023-11-20_13h44.37.529,leap3,2022.2.5,59.923521312797305,
,,,,,,,,,,,,,,,,,,,,1,0,1,0,,,,,,,,,,,,,,,,,,,,,,,,,,,,NA,,,,,,,,,,,,,,,,,336,2023-11-20_13h44.37.529,leap3,2022.2.5,59.923521312797305,
,,,,,,,,,,,,,,,,,,,,2,0,2,0,0,0,0,0,,,,,,maximized,w,g,lower,,,,,,,3,w,LoDemNoTar,g,1,0.4519435898746451,,,,,,,,,,,,,,,,,,,,336,2023-11-20_13h44.37.529,leap3,2022.2.5,59.923521312797305,
,,,,,,,,,,,,,,,,,,,,2,0,2,0,1,0,1,0,,,,,,submit,w,g,lower,,,,,,,3,w,LoDemNoTar,g,1,0.4096336144630186,,,,,,,,,,,,,,,,,,,,336,2023-11-20_13h44.37.529,leap3,2022.2.5,59.923521312797305,
,,,,,,,,,,,,,,,,,,,,2,0,2,0,2,0,2,0,,,,,,loached,nw,h,lower,,,,,,,3,nw,LoDemNoTar,h,1,0.696355059832058,,,,,,,,,,,,,,,,,,,,336,2023-11-20_13h44.37.529,leap3,2022.2.5,59.923521312797305,
,,,,,,,,,,,,,,,,,,,,2,0,2,0,3,0,3,0,,,,,,greakable,nw,h,lower,,,,,,,3,nw,LoDemNoTar,h,1,0.6037675988100091,,,,,,,,,,,,,,,,,,,,336,2023-11-20_13h44.37.529,leap3,2022.2.5,59.923521312797305,
,,,,,,,,,,,,,,,,,,,,2,0,2,0,4,0,4,0,,,,,,reloant,nw,h,lower,,,,,,,3,nw,LoDemNoTar,h,1,0.5384996330958529,,,,,,,,,,,,,,,,,,,,336,2023-11-20_13h44.37.529,leap3,2022.2.5,59.923521312797305,
,,,,,,,,,,,,,,,,,,,,2,0,2,0,5,0,5,0,,,,,,result,w,g,lower,,,,,,,3,w,LoDemNoTar,g,1,0.555018659475536,,,,,,,,,,,,,,,,,,,,336,2023-11-20_13h44.37.529,leap3,2022.2.5,59.923521312797305,
,,,,,,,,,,,,,,,,,,,,2,0,2,0,6,0,6,0,,,,,,epic,w,g,lower,,,,,,,3,w,LoDemNoTar,g,1,0.4116951820687973,,,,,,,,,,,,,,,,,,,,336,2023-11-20_13h44.37.529,leap3,2022.2.5,59.923521312797305,
,,,,,,,,,,,,,,,,,,,,2,0,2,0,7,0,7,0,,,,,,capobly,nw,h,lower,,,,,,,3,nw,LoDemNoTar,h,1,0.5383744889568334,,,,,,,,,,,,,,,,,,,,336,2023-11-20_13h44.37.529,leap3,2022.2.5,59.923521312797305,
,,,,,,,,,,,,,,,,,,,,2,0,2,0,8,0,8,0,,,,,,actively,w,g,lower,,,,,,,3,w,LoDemNoTar,g,1,0.42774111063044984,,,,,,,,,,,,,,,,,,,,336,2023-11-20_13h44.37.529,leap3,2022.2.5,59.923521312797305,
,,,,,,,,,,,,,,,,,,,,2,0,2,0,9,0,9,0,,,,,,talate,nw,h,lower,,,,,,,3,nw,LoDemNoTar,h,1,0.5618274276421289,,,,,,,,,,,,,,,,,,,,336,2023-11-20_13h44.37.529,leap3,2022.2.5,59.923521312797305,
,,,,,,,,,,,,,,,,,,,,2,0,2,0,10,0,10,0,,,,,,arbitrary,w,g,lower,,,,,,,3,w,LoDemNoTar,g,1,0.47455263329356967,,,,,,,,,,,,,,,,,,,,336,2023-11-20_13h44.37.529,leap3,2022.2.5,59.923521312797305,
,,,,,,,,,,,,,,,,,,,,2,0,2,0,11,0,11,0,,,,,,hasks,nw,h,lower,,,,,,,3,nw,LoDemNoTar,h,1,0.5266718565926567,,,,,,,,,,,,,,,,,,,,336,2023-11-20_13h44.37.529,leap3,2022.2.5,59.923521312797305,
,,,,,,,,,,,,,,,,,,,,2,0,2,0,12,0,12,0,,,,,,crimb,nw,h,lower,,,,,,,3,nw,LoDemNoTar,h,1,0.5846887457537377,,,,,,,,,,,,,,,,,,,,336,2023-11-20_13h44.37.529,leap3,2022.2.5,59.923521312797305,
,,,,,,,,,,,,,,,,,,,,2,0,2,0,13,0,13,0,,,,,,huzzles,nw,h,lower,,,,,,,3,nw,LoDemNoTar,h,1,0.5280947918054153,,,,,,,,,,,,,,,,,,,,336,2023-11-20_13h44.37.529,leap3,2022.2.5,59.923521312797305,
,,,,,,,,,,,,,,,,,,,,2,0,2,0,14,0,14,0,,,,,,accessory,w,g,lower,,,,,,,3,w,LoDemNoTar,g,1,0.5141412202810898,,,,,,,,,,,,,,,,,,,,336,2023-11-20_13h44.37.529,leap3,2022.2.5,59.923521312797305,
,,,,,,,,,,,,,,,,,,,,2,0,2,0,15,0,15,0,,,,,,coupling,w,g,lower,,,,,,,3,w,LoDemNoTar,g,1,0.7249259965301462,,,,,,,,,,,,,,,,,,,,336,2023-11-20_13h44.37.529,leap3,2022.2.5,59.923521312797305,
,,,,,,,,,,,,,,,,,,,,2,0,2,0,16,0,16,0,,,,,,itself,w,g,lower,,,,,,,3,w,LoDemNoTar,g,1,0.4860778125912475,,,,,,,,,,,,,,,,,,,,336,2023-11-20_13h44.37.529,leap3,2022.2.5,59.923521312797305,
,,,,,,,,,,,,,,,,,,,,2,0,2,0,17,0,17,0,,,,,,collision,w,g,lower,,,,,,,3,w,LoDemNoTar,g,1,0.48928686587714765,,,,,,,,,,,,,,,,,,,,336,2023-11-20_13h44.37.529,leap3,2022.2.5,59.923521312797305,
,,,,,,,,,,,,,,,,,,,,2,0,2,0,18,0,18,0,,,,,,couple,w,g,lower,,,,,,,3,w,LoDemNoTar,g,1,0.3487595985261578,,,,,,,,,,,,,,,,,,,,336,2023-11-20_13h44.37.529,leap3,2022.2.5,59.923521312797305,
,,,,,,,,,,,,,,,,,,,,2,0,2,0,19,0,19,0,,,,,,mopping,w,g,lower,,,,,,,3,w,LoDemNoTar,g,1,0.4461260427469824,,,,,,,,,,,,,,,,,,,,336,2023-11-20_13h44.37.529,leap3,2022.2.5,59.923521312797305,
,,,,,,,,,,,,,,,,,,,,2,0,2,0,20,0,20,0,,,,,,cavern,w,g,lower,,,,,,,3,w,LoDemNoTar,g,1,0.34743896368127025,,,,,,,,,,,,,,,,,,,,336,2023-11-20_13h44.37.529,leap3,2022.2.5,59.923521312797305,
,,,,,,,,,,,,,,,,,,,,2,0,2,0,21,0,21,0,,,,,,rillains,nw,h,lower,,,,,,,3,nw,LoDemNoTar,g,0,0.540863797905331,,,,,,,,,,,,,,,,,,,,336,2023-11-20_13h44.37.529,leap3,2022.2.5,59.923521312797305,
,,,,,,,,,,,,,,,,,,,,2,0,2,0,22,0,22,0,,,,,,slimped,nw,h,lower,,,,,,,3,nw,LoDemNoTar,h,1,0.7479548356313899,,,,,,,,,,,,,,,,,,,,336,2023-11-20_13h44.37.529,leap3,2022.2.5,59.923521312797305,
,,,,,,,,,,,,,,,,,,,,2,0,2,0,23,0,23,0,,,,,,vorm,nw,h,lower,,,,,,,3,nw,LoDemNoTar,h,1,0.5357765893259057,,,,,,,,,,,,,,,,,,,,336,2023-11-20_13h44.37.529,leap3,2022.2.5,59.923521312797305,
,,,,,,,,,,,,,,,,,,,,2,0,2,0,24,0,24,0,,,,,,rivet,w,g,lower,,,,,,,3,w,LoDemNoTar,g,1,0.6491333424910408,,,,,,,,,,,,,,,,,,,,336,2023-11-20_13h44.37.529,leap3,2022.2.5,59.923521312797305,
,,,,,,,,,,,,,,,,,,,,2,0,2,0,25,0,25,0,,,,,,igiom,nw,h,lower,,,,,,,3,nw,LoDemNoTar,h,1,0.685669140832033,,,,,,,,,,,,,,,,,,,,336,2023-11-20_13h44.37.529,leap3,2022.2.5,59.923521312797305,
,,,,,,,,,,,,,,,,,,,,2,0,2,0,26,0,26,0,,,,,,noblin,nw,h,lower,,,,,,,3,nw,LoDemNoTar,h,1,0.5690036825671996,,,,,,,,,,,,,,,,,,,,336,2023-11-20_13h44.37.529,leap3,2022.2.5,59.923521312797305,
,,,,,,,,,,,,,,,,,,,,2,0,2,0,27,0,27,0,,,,,,hubris,w,g,lower,,,,,,,3,w,LoDemNoTar,h,0,0.4651022643665783,,,,,,,,,,,,,,,,,,,,336,2023-11-20_13h44.37.529,leap3,2022.2.5,59.923521312797305,
,,,,,,,,,,,,,,,,,,,,2,0,2,0,28,0,28,0,,,,,,batire,nw,h,lower,,,,,,,3,nw,LoDemNoTar,h,1,0.6458226509766973,,,,,,,,,,,,,,,,,,,,336,2023-11-20_13h44.37.529,leap3,2022.2.5,59.923521312797305,
,,,,,,,,,,,,,,,,,,,,2,0,2,0,29,0,29,0,,,,,,shillac,nw,h,lower,,,,,,,3,nw,LoDemNoTar,h,1,0.49927456003570114,,,,,,,,,,,,,,,,,,,,336,2023-11-20_13h44.37.529,leap3,2022.2.5,59.923521312797305,
,,,,,,,,,,,,,,,,,,,,2,0,2,0,,,,,,,,,,,,,,,,,,,,,,,,,,,,NA,,,,,,,,,,,,,,,,,336,2023-11-20_13h44.37.529,leap3,2022.2.5,59.923521312797305,
,,,,,,,,,,,,,,,,,,,,3,0,3,0,0,0,0,0,,,,,,elbalm,nw,h,upper,,,,,,,1,nw,HiDemTar,g,0,0.670931266487969,,,,,,,,,,,,,,,,,,,,336,2023-11-20_13h44.37.529,leap3,2022.2.5,59.923521312797305,
,,,,,,,,,,,,,,,,,,,,3,0,3,0,1,0,1,0,,,,,,carony,nw,h,upper,,,,,,,1,nw,HiDemTar,h,1,0.5940371453816624,,,,,,,,,,,,,,,,,,,,336,2023-11-20_13h44.37.529,leap3,2022.2.5,59.923521312797305,
,,,,,,,,,,,,,,,,,,,,3,0,3,0,2,0,2,0,,,,,,culinary,w,g,upper,,,,,,,1,w,HiDemTar,g,1,0.6174669092270051,,,,,,,,,,,,,,,,,,,,336,2023-11-20_13h44.37.529,leap3,2022.2.5,59.923521312797305,
,,,,,,,,,,,,,,,,,,,,3,0,3,0,3,0,3,0,,,,,,alber,nw,h,upper,,,,,,,1,nw,HiDemTar,h,1,0.47942696440986765,,,,,,,,,,,,,,,,,,,,336,2023-11-20_13h44.37.529,leap3,2022.2.5,59.923521312797305,
,,,,,,,,,,,,,,,,,,,,3,0,3,0,4,0,4,0,,,,,,drine,nw,h,upper,,,,,,,1,nw,HiDemTar,h,1,0.49963079044391634,,,,,,,,,,,,,,,,,,,,336,2023-11-20_13h44.37.529,leap3,2022.2.5,59.923521312797305,
,,,,,,,,,,,,,,,,,,,,3,0,3,0,5,0,5,0,,,,,,holdup,w,g,upper,,,,,,,1,w,HiDemTar,g,1,0.5829671861665702,,,,,,,,,,,,,,,,,,,,336,2023-11-20_13h44.37.529,leap3,2022.2.5,59.923521312797305,
,,,,,,,,,,,,,,,,,,,,3,0,3,0,6,0,6,0,,,,,,committed,w,g,upper,,,,,,,1,w,HiDemTar,g,1,0.42297934302587237,,,,,,,,,,,,,,,,,,,,336,2023-11-20_13h44.37.529,leap3,2022.2.5,59.923521312797305,
,,,,,,,,,,,,,,,,,,,,3,0,3,0,7,0,7,0,,,,,,castaway,w,g,upper,,,,,,,1,w,HiDemTar,g,1,0.6210133219774434,,,,,,,,,,,,,,,,,,,,336,2023-11-20_13h44.37.529,leap3,2022.2.5,59.923521312797305,
,,,,,,,,,,,,,,,,,,,,3,0,3,0,8,0,8,0,,,,,,recount,w,g,upper,,,,,,,1,w,HiDemTar,g,1,0.4671370153719181,,,,,,,,,,,,,,,,,,,,336,2023-11-20_13h44.37.529,leap3,2022.2.5,59.923521312797305,
,,,,,,,,,,,,,,,,,,,,3,0,3,0,9,0,9,0,,,,,,gures,nw,h,upper,,,,,,,1,nw,HiDemTar,h,1,0.49515142482596275,,,,,,,,,,,,,,,,,,,,336,2023-11-20_13h44.37.529,leap3,2022.2.5,59.923521312797305,
,,,,,,,,,,,,,,,,,,,,3,0,3,0,10,0,10,0,,,,,,talent,w,g,upper,,,,,,,1,w,HiDemTar,g,1,0.4745297895224212,,,,,,,,,,,,,,,,,,,,336,2023-11-20_13h44.37.529,leap3,2022.2.5,59.923521312797305,
,,,,,,,,,,,,,,,,,,,,3,0,3,0,11,0,11,0,,,,,,dislokes,nw,h,upper,,,,,,,1,nw,HiDemTar,h,1,0.5498794730356167,,,,,,,,,,,,,,,,,,,,336,2023-11-20_13h44.37.529,leap3,2022.2.5,59.923521312797305,
,,,,,,,,,,,,,,,,,,,,3,0,3,0,12,0,12,0,,,,,,epthuse,nw,h,upper,,,,,,,1,nw,HiDemTar,h,1,0.4709671543841978,,,,,,,,,,,,,,,,,,,,336,2023-11-20_13h44.37.529,leap3,2022.2.5,59.923521312797305,
,,,,,,,,,,,,,,,,,,,,3,0,3,0,13,0,13,0,,,,,,bentler,nw,h,upper,,,,,,,1,nw,HiDemTar,h,1,0.41900916176200553,,,,,,,,,,,,,,,,,,,,336,2023-11-20_13h44.37.529,leap3,2022.2.5,59.923521312797305,
,,,,,,,,,,,,,,,,,,,,3,0,3,0,14,0,14,0,,,,,,female,w,g,upper,,,,,,,1,w,HiDemTar,g,1,0.4890802787267603,,,,,,,,,,,,,,,,,,,,336,2023-11-20_13h44.37.529,leap3,2022.2.5,59.923521312797305,
,,,,,,,,,,,,,,,,,,,,3,0,3,0,15,0,15,0,,,,,,soluced,nw,h,upper,,,,,,,1,nw,HiDemTar,h,1,0.5085156932600512,,,,,,,,,,,,,,,,,,,,336,2023-11-20_13h44.37.529,leap3,2022.2.5,59.923521312797305,
,,,,,,,,,,,,,,,,,,,,3,0,3,0,16,0,16,0,,,,,,vopings,nw,h,upper,,,,,,,1,nw,HiDemTar,h,1,0.5030119996863505,,,,,,,,,,,,,,,,,,,,336,2023-11-20_13h44.37.529,leap3,2022.2.5,59.923521312797305,
,,,,,,,,,,,,,,,,,,,,3,0,3,0,17,0,17,0,,,,,,peems,nw,h,upper,,,,,,,1,nw,HiDemTar,h,1,0.5139021883533132,,,,,,,,,,,,,,,,,,,,336,2023-11-20_13h44.37.529,leap3,2022.2.5,59.923521312797305,
,,,,,,,,,,,,,,,,,,,,3,0,3,0,18,0,18,0,,,,,,dabble,w,g,upper,,,,,,,1,w,HiDemTar,h,0,0.4364892818884982,,,,,,,,,,,,,,,,,,,,336,2023-11-20_13h44.37.529,leap3,2022.2.5,59.923521312797305,
,,,,,,,,,,,,,,,,,,,,3,0,3,0,19,0,19,0,,,,,,regional,w,g,upper,,,,,,,1,w,HiDemTar,g,1,0.6736506684974302,,,,,,,,,,,,,,,,,,,,336,2023-11-20_13h44.37.529,leap3,2022.2.5,59.923521312797305,
,,,,,,,,,,,,,,,,,,,,3,0,3,0,20,0,20,0,,,,,,teliever,nw,h,upper,,,,,,,1,nw,HiDemTar,h,1,0.5421172257119906,,,,,,,,,,,,,,,,,,,,336,2023-11-20_13h44.37.529,leap3,2022.2.5,59.923521312797305,
,,,,,,,,,,,,,,,,,,,,3,0,3,0,21,0,21,0,,,,,,confined,w,g,upper,,,,,,,1,w,HiDemTar,g,1,0.47062847064262314,,,,,,,,,,,,,,,,,,,,336,2023-11-20_13h44.37.529,leap3,2022.2.5,59.923521312797305,
,,,,,,,,,,,,,,,,,,,,3,0,3,0,22,0,22,0,,,,,,border,w,g,upper,,,,,,,1,w,HiDemTar,g,1,0.47460328687338915,,,,,,,,,,,,,,,,,,,,336,2023-11-20_13h44.37.529,leap3,2022.2.5,59.923521312797305,
,,,,,,,,,,,,,,,,,,,,3,0,3,0,23,0,23,0,,,,,,crocodile,target,q,upper,,,,,,,1,target,HiDemTar,g,0,0.3346252632454707,,,,,,,,,,,,,,,,,,,,336,2023-11-20_13h44.37.529,leap3,2022.2.5,59.923521312797305,
,,,,,,,,,,,,,,,,,,,,3,0,3,0,24,0,24,0,,,,,,miurnal,nw,h,upper,,,,,,,1,aftertar1,HiDemTar,g,0,0.3759426933393115,,,,,,,,,,,,,,,,,,,,336,2023-11-20_13h44.37.529,leap3,2022.2.5,59.923521312797305,
,,,,,,,,,,,,,,,,,,,,3,0,3,0,25,0,25,0,,,,,,antonym,w,g,upper,,,,,,,1,aftertar2,HiDemTar,q,0,0.424131463672893,,,,1,,,,,,,,,,,,,,,,336,2023-11-20_13h44.37.529,leap3,2022.2.5,59.923521312797305,
,,,,,,,,,,,,,,,,,,,,3,0,3,0,26,0,26,0,,,,,,tredits,nw,h,upper,,,,,,,1,aftertar3,HiDemTar,h,1,0.6222190758253419,,,,,,,,,,,,,,,,,,,,336,2023-11-20_13h44.37.529,leap3,2022.2.5,59.923521312797305,
,,,,,,,,,,,,,,,,,,,,3,0,3,0,27,0,27,0,,,,,,overcoat,w,g,upper,,,,,,,1,nw,HiDemTar,g,1,0.5723266236400377,,,,,,,,,,,,,,,,,,,,336,2023-11-20_13h44.37.529,leap3,2022.2.5,59.923521312797305,
,,,,,,,,,,,,,,,,,,,,3,0,3,0,28,0,28,0,,,,,,airline,w,g,upper,,,,,,,1,w,HiDemTar,g,1,0.4843651918727119,,,,,,,,,,,,,,,,,,,,336,2023-11-20_13h44.37.529,leap3,2022.2.5,59.923521312797305,
,,,,,,,,,,,,,,,,,,,,3,0,3,0,29,0,29,0,,,,,,slogan,w,g,upper,,,,,,,1,w,HiDemTar,g,1,0.4797398247592355,,,,,,,,,,,,,,,,,,,,336,2023-11-20_13h44.37.529,leap3,2022.2.5,59.923521312797305,
,,,,,,,,,,,,,,,,,,,,3,0,3,0,,,,,,,,,,,,,,,,,,,,,,,,,,,,0,,,,,,,,,,,,,,,,,336,2023-11-20_13h44.37.529,leap3,2022.2.5,59.923521312797305,
,,,,,,,,,,,,,,,,,,,,4,0,4,0,0,0,0,0,,,,,,quickel,nw,h,upper,,,,,,,2,nw,HiDemNoTar,h,1,0.6591892368960544,,,,,,,,,,,,,,,,,,,,336,2023-11-20_13h44.37.529,leap3,2022.2.5,59.923521312797305,
,,,,,,,,,,,,,,,,,,,,4,0,4,0,1,0,1,0,,,,,,amplifier,w,g,upper,,,,,,,2,w,HiDemNoTar,g,1,0.5759531551248074,,,,,,,,,,,,,,,,,,,,336,2023-11-20_13h44.37.529,leap3,2022.2.5,59.923521312797305,
,,,,,,,,,,,,,,,,,,,,4,0,4,0,2,0,2,0,,,,,,scack,nw,h,upper,,,,,,,2,nw,HiDemNoTar,h,1,0.5999857958940993,,,,,,,,,,,,,,,,,,,,336,2023-11-20_13h44.37.529,leap3,2022.2.5,59.923521312797305,
,,,,,,,,,,,,,,,,,,,,4,0,4,0,3,0,3,0,,,,,,butler,w,g,upper,,,,,,,2,w,HiDemNoTar,g,1,0.45532479911707924,,,,,,,,,,,,,,,,,,,,336,2023-11-20_13h44.37.529,leap3,2022.2.5,59.923521312797305,
,,,,,,,,,,,,,,,,,,,,4,0,4,0,4,0,4,0,,,,,,amkles,nw,h,upper,,,,,,,2,nw,HiDemNoTar,h,1,0.6600755090148596,,,,,,,,,,,,,,,,,,,,336,2023-11-20_13h44.37.529,leap3,2022.2.5,59.923521312797305,
,,,,,,,,,,,,,,,,,,,,4,0,4,0,5,0,5,0,,,,,,abraid,nw,h,upper,,,,,,,2,nw,HiDemNoTar,h,1,0.5048408256789116,,,,,,,,,,,,,,,,,,,,336,2023-11-20_13h44.37.529,leap3,2022.2.5,59.923521312797305,
,,,,,,,,,,,,,,,,,,,,4,0,4,0,6,0,6,0,,,,,,brimitar,nw,h,upper,,,,,,,2,nw,HiDemNoTar,h,1,0.5955537731642835,,,,,,,,,,,,,,,,,,,,336,2023-11-20_13h44.37.529,leap3,2022.2.5,59.923521312797305,
,,,,,,,,,,,,,,,,,,,,4,0,4,0,7,0,7,0,,,,,,bamps,nw,h,upper,,,,,,,2,nw,HiDemNoTar,h,1,0.4580918750853016,,,,,,,,,,,,,,,,,,,,336,2023-11-20_13h44.37.529,leap3,2022.2.5,59.923521312797305,
,,,,,,,,,,,,,,,,,,,,4,0,4,0,8,0,8,0,,,,,,mennel,nw,h,upper,,,,,,,2,nw,HiDemNoTar,h,1,0.374692907293138,,,,,,,,,,,,,,,,,,,,336,2023-11-20_13h44.37.529,leap3,2022.2.5,59.923521312797305,
,,,,,,,,,,,,,,,,,,,,4,0,4,0,9,0,9,0,,,,,,atch,nw,h,upper,,,,,,,2,nw,HiDemNoTar,h,1,0.43863858281838475,,,,,,,,,,,,,,,,,,,,336,2023-11-20_13h44.37.529,leap3,2022.2.5,59.923521312797305,
,,,,,,,,,,,,,,,,,,,,4,0,4,0,10,0,10,0,,,,,,optional,w,g,upper,,,,,,,2,w,HiDemNoTar,g,1,0.48405862183790305,,,,,,,,,,,,,,,,,,,,336,2023-11-20_13h44.37.529,leap3,2022.2.5,59.923521312797305,
,,,,,,,,,,,,,,,,,,,,4,0,4,0,11,0,11,0,,,,,,presence,w,g,upper,,,,,,,2,w,HiDemNoTar,g,1,0.5274753614230576,,,,,,,,,,,,,,,,,,,,336,2023-11-20_13h44.37.529,leap3,2022.2.5,59.923521312797305,
,,,,,,,,,,,,,,,,,,,,4,0,4,0,12,0,12,0,,,,,,delegate,w,g,upper,,,,,,,2,w,HiDemNoTar,h,0,0.4095276723346615,,,,,,,,,,,,,,,,,,,,336,2023-11-20_13h44.37.529,leap3,2022.2.5,59.923521312797305,
,,,,,,,,,,,,,,,,,,,,4,0,4,0,13,0,13,0,,,,,,acroad,nw,h,upper,,,,,,,2,nw,HiDemNoTar,g,0,0.4001696717004961,,,,,,,,,,,,,,,,,,,,336,2023-11-20_13h44.37.529,leap3,2022.2.5,59.923521312797305,
,,,,,,,,,,,,,,,,,,,,4,0,4,0,14,0,14,0,,,,,,miteous,nw,h,upper,,,,,,,2,nw,HiDemNoTar,h,1,0.5756025528935425,,,,,,,,,,,,,,,,,,,,336,2023-11-20_13h44.37.529,leap3,2022.2.5,59.923521312797305,
,,,,,,,,,,,,,,,,,,,,4,0,4,0,15,0,15,0,,,,,,defensa,nw,h,upper,,,,,,,2,nw,HiDemNoTar,h,1,0.4954440899546171,,,,,,,,,,,,,,,,,,,,336,2023-11-20_13h44.37.529,leap3,2022.2.5,59.923521312797305,
,,,,,,,,,,,,,,,,,,,,4,0,4,0,16,0,16,0,,,,,,comment,w,g,upper,,,,,,,2,w,HiDemNoTar,g,1,0.5710993502962083,,,,,,,,,,,,,,,,,,,,336,2023-11-20_13h44.37.529,leap3,2022.2.5,59.923521312797305,
,,,,,,,,,,,,,,,,,,,,4,0,4,0,17,0,17,0,,,,,,meteoroid,w,g,upper,,,,,,,2,w,HiDemNoTar,g,1,0.5543078540067654,,,,,,,,,,,,,,,,,,,,336,2023-11-20_13h44.37.529,leap3,2022.2.5,59.923521312797305,
,,,,,,,,,,,,,,,,,,,,4,0,4,0,18,0,18,0,,,,,,achieve,w,g,upper,,,,,,,2,w,HiDemNoTar,g,1,0.5309800594604894,,,,,,,,,,,,,,,,,,,,336,2023-11-20_13h44.37.529,leap3,2022.2.5,59.923521312797305,
,,,,,,,,,,,,,,,,,,,,4,0,4,0,19,0,19,0,,,,,,casino,w,g,upper,,,,,,,2,w,HiDemNoTar,g,1,0.5089709133444558,,,,,,,,,,,,,,,,,,,,336,2023-11-20_13h44.37.529,leap3,2022.2.5,59.923521312797305,
,,,,,,,,,,,,,,,,,,,,4,0,4,0,20,0,20,0,,,,,,pregs,nw,h,upper,,,,,,,2,nw,HiDemNoTar,h,1,0.6077268547942367,,,,,,,,,,,,,,,,,,,,336,2023-11-20_13h44.37.529,leap3,2022.2.5,59.923521312797305,
,,,,,,,,,,,,,,,,,,,,4,0,4,0,21,0,21,0,,,,,,antwers,nw,h,upper,,,,,,,2,nw,HiDemNoTar,h,1,0.4625076754273323,,,,,,,,,,,,,,,,,,,,336,2023-11-20_13h44.37.529,leap3,2022.2.5,59.923521312797305,
,,,,,,,,,,,,,,,,,,,,4,0,4,0,22,0,22,0,,,,,,eyesight,w,g,upper,,,,,,,2,w,HiDemNoTar,g,1,0.5311826737815863,,,,,,,,,,,,,,,,,,,,336,2023-11-20_13h44.37.529,leap3,2022.2.5,59.923521312797305,
,,,,,,,,,,,,,,,,,,,,4,0,4,0,23,0,23,0,,,,,,unspoken,w,g,upper,,,,,,,2,w,HiDemNoTar,g,1,0.5172781004894205,,,,,,,,,,,,,,,,,,,,336,2023-11-20_13h44.37.529,leap3,2022.2.5,59.923521312797305,
,,,,,,,,,,,,,,,,,,,,4,0,4,0,24,0,24,0,,,,,,usually,w,g,upper,,,,,,,2,w,HiDemNoTar,g,1,0.45533009622522513,,,,,,,,,,,,,,,,,,,,336,2023-11-20_13h44.37.529,leap3,2022.2.5,59.923521312797305,
,,,,,,,,,,,,,,,,,,,,4,0,4,0,25,0,25,0,,,,,,cooray,nw,h,upper,,,,,,,2,nw,HiDemNoTar,h,1,0.6200522282306338,,,,,,,,,,,,,,,,,,,,336,2023-11-20_13h44.37.529,leap3,2022.2.5,59.923521312797305,
,,,,,,,,,,,,,,,,,,,,4,0,4,0,26,0,26,0,,,,,,butcher,w,g,upper,,,,,,,2,w,HiDemNoTar,g,1,0.5932578085994464,,,,,,,,,,,,,,,,,,,,336,2023-11-20_13h44.37.529,leap3,2022.2.5,59.923521312797305,
,,,,,,,,,,,,,,,,,,,,4,0,4,0,27,0,27,0,,,,,,series,w,g,upper,,,,,,,2,w,HiDemNoTar,g,1,0.49661541261230013,,,,,,,,,,,,,,,,,,,,336,2023-11-20_13h44.37.529,leap3,2022.2.5,59.923521312797305,
,,,,,,,,,,,,,,,,,,,,4,0,4,0,28,0,28,0,,,,,,reddar,nw,h,upper,,,,,,,2,nw,HiDemNoTar,h,1,0.7080010793706606,,,,,,,,,,,,,,,,,,,,336,2023-11-20_13h44.37.529,leap3,2022.2.5,59.923521312797305,
,,,,,,,,,,,,,,,,,,,,4,0,4,0,29,0,29,0,,,,,,machinery,w,g,upper,,,,,,,2,w,HiDemNoTar,g,1,0.5986648299804074,,,,,,,,,,,,,,,,,,,,336,2023-11-20_13h44.37.529,leap3,2022.2.5,59.923521312797305,
,,,,,,,,,,,,,,,,,,,,4,0,4,0,,,,,,,,,,,,,,,,,,,,,,,,,,,,NA,,,,,,,,,,,,,,,,,336,2023-11-20_13h44.37.529,leap3,2022.2.5,59.923521312797305,
,,,,,,,,,,,,,,,,,,,,5,0,5,0,0,0,0,0,,,,,,parlayid,nw,h,upper,,,,,,,1,nw,HiDemTar,h,1,0.598398981450373,,,,,,,,,,,,,,,,,,,,336,2023-11-20_13h44.37.529,leap3,2022.2.5,59.923521312797305,
,,,,,,,,,,,,,,,,,,,,5,0,5,0,1,0,1,0,,,,,,official,w,g,upper,,,,,,,1,w,HiDemTar,g,1,0.43776588453511067,,,,,,,,,,,,,,,,,,,,336,2023-11-20_13h44.37.529,leap3,2022.2.5,59.923521312797305,
,,,,,,,,,,,,,,,,,,,,5,0,5,0,2,0,2,0,,,,,,caloric,w,g,upper,,,,,,,1,w,HiDemTar,h,0,0.5062783279354335,,,,,,,,,,,,,,,,,,,,336,2023-11-20_13h44.37.529,leap3,2022.2.5,59.923521312797305,
,,,,,,,,,,,,,,,,,,,,5,0,5,0,3,0,3,0,,,,,,removable,w,g,upper,,,,,,,1,w,HiDemTar,g,1,0.4770942511695466,,,,,,,,,,,,,,,,,,,,336,2023-11-20_13h44.37.529,leap3,2022.2.5,59.923521312797305,
,,,,,,,,,,,,,,,,,,,,5,0,5,0,4,0,4,0,,,,,,curricula,w,g,upper,,,,,,,1,w,HiDemTar,h,0,0.5690129525028169,,,,,,,,,,,,,,,,,,,,336,2023-11-20_13h44.37.529,leap3,2022.2.5,59.923521312797305,
,,,,,,,,,,,,,,,,,,,,5,0,5,0,5,0,5,0,,,,,,coverall,w,g,upper,,,,,,,1,w,HiDemTar,h,0,0.6330559623602312,,,,,,,,,,,,,,,,,,,,336,2023-11-20_13h44.37.529,leap3,2022.2.5,59.923521312797305,
,,,,,,,,,,,,,,,,,,,,5,0,5,0,6,0,6,0,,,,,,chonemic,nw,h,upper,,,,,,,1,nw,HiDemTar,h,1,0.47906940972643497,,,,,,,,,,,,,,,,,,,,336,2023-11-20_13h44.37.529,leap3,2022.2.5,59.923521312797305,
,,,,,,,,,,,,,,,,,,,,5,0,5,0,7,0,7,0,,,,,,cervical,w,g,upper,,,,,,,1,w,HiDemTar,g,1,0.6431565511011286,,,,,,,,,,,,,,,,,,,,336,2023-11-20_13h44.37.529,leap3,2022.2.5,59.923521312797305,
,,,,,,,,,,,,,,,,,,,,5,0,5,0,8,0,8,0,,,,,,undimmec,nw,h,upper,,,,,,,1,nw,HiDemTar,h,1,0.5205030450943013,,,,,,,,,,,,,,,,,,,,336,2023-11-20_13h44.37.529,leap3,2022.2.5,59.923521312797305,
,,,,,,,,,,,,,,,,,,,,5,0,5,0,9,0,9,0,,,,,,facienda,nw,h,upper,,,,,,,1,nw,HiDemTar,h,1,0.4507020805576758,,,,,,,,,,,,,,,,,,,,336,2023-11-20_13h44.37.529,leap3,2022.2.5,59.923521312797305,
,,,,,,,,,,,,,,,,,,,,5,0,5,0,10,0,10,0,,,,,,agony,w,g,upper,,,,,,,1,w,HiDemTar,g,1,0.6049296515320748,,,,,,,,,,,,,,,,,,,,336,2023-11-20_13h44.37.529,leap3,2022.2.5,59.923521312797305,
,,,,,,,,,,,,,,,,,,,,5,0,5,0,11,0,11,0,,,,,,nomma,nw,h,upper,,,,,,,1,nw,HiDemTar,h,1,0.5419765213246137,,,,,,,,,,,,,,,,,,,,336,2023-11-20_13h44.37.529,leap3,2022.2.5,59.923521312797305,
,,,,,,,,,,,,,,,,,,,,5,0,5,0,12,0,12,0,,,,,,donastic,nw,h,upper,,,,,,,1,nw,HiDemTar,h,1,0.5825172631903115,,,,,,,,,,,,,,,,,,,,336,2023-11-20_13h44.37.529,leap3,2022.2.5,59.923521312797305,
,,,,,,,,,,,,,,,,,,,,5,0,5,0,13,0,13,0,,,,,,ireology,nw,h,upper,,,,,,,1,nw,HiDemTar,h,1,0.6945321930852515,,,,,,,,,,,,,,,,,,,,336,2023-11-20_13h44.37.529,leap3,2022.2.5,59.923521312797305,
,,,,,,,,,,,,,,,,,,,,5,0,5,0,14,0,14,0,,,,,,thrapping,nw,h,upper,,,,,,,1,nw,HiDemTar,h,1,0.6019023552125873,,,,,,,,,,,,,,,,,,,,336,2023-11-20_13h44.37.529,leap3,2022.2.5,59.923521312797305,
,,,,,,,,,,,,,,,,,,,,5,0,5,0,15,0,15,0,,,,,,elderly,w,g,upper,,,,,,,1,w,HiDemTar,g,1,0.45662192805320956,,,,,,,,,,,,,,,,,,,,336,2023-11-20_13h44.37.529,leap3,2022.2.5,59.923521312797305,
,,,,,,,,,,,,,,,,,,,,5,0,5,0,16,0,16,0,,,,,,located,w,g,upper,,,,,,,1,w,HiDemTar,g,1,0.44541424406997976,,,,,,,,,,,,,,,,,,,,336,2023-11-20_13h44.37.529,leap3,2022.2.5,59.923521312797305,
,,,,,,,,,,,,,,,,,,,,5,0,5,0,17,0,17,0,,,,,,overwork,w,g,upper,,,,,,,1,w,HiDemTar,g,1,0.4108334090688004,,,,,,,,,,,,,,,,,,,,336,2023-11-20_13h44.37.529,leap3,2022.2.5,59.923521312797305,
,,,,,,,,,,,,,,,,,,,,5,0,5,0,18,0,18,0,,,,,,rewrite,w,g,upper,,,,,,,1,w,HiDemTar,g,1,0.47356108118583506,,,,,,,,,,,,,,,,,,,,336,2023-11-20_13h44.37.529,leap3,2022.2.5,59.923521312797305,
,,,,,,,,,,,,,,,,,,,,5,0,5,0,19,0,19,0,,,,,,prison,w,g,upper,,,,,,,1,w,HiDemTar,g,1,0.3736066694073088,,,,,,,,,,,,,,,,,,,,336,2023-11-20_13h44.37.529,leap3,2022.2.5,59.923521312797305,
,,,,,,,,,,,,,,,,,,,,5,0,5,0,20,0,20,0,,,,,,sarlock,nw,h,upper,,,,,,,1,nw,HiDemTar,g,0,0.4776557444511127,,,,,,,,,,,,,,,,,,,,336,2023-11-20_13h44.37.529,leap3,2022.2.5,59.923521312797305,
,,,,,,,,,,,,,,,,,,,,5,0,5,0,21,0,21,0,,,,,,natch,nw,h,upper,,,,,,,1,nw,HiDemTar,h,1,0.4577313407789916,,,,,,,,,,,,,,,,,,,,336,2023-11-20_13h44.37.529,leap3,2022.2.5,59.923521312797305,
,,,,,,,,,,,,,,,,,,,,5,0,5,0,22,0,22,0,,,,,,army,w,g,upper,,,,,,,1,w,HiDemTar,g,1,0.5584554883353121,,,,,,,,,,,,,,,,,,,,336,2023-11-20_13h44.37.529,leap3,2022.2.5,59.923521312797305,
,,,,,,,,,,,,,,,,,,,,5,0,5,0,23,0,23,0,,,,,,schides,nw,h,upper,,,,,,,1,nw,HiDemTar,h,1,0.5182948138535721,,,,,,,,,,,,,,,,,,,,336,2023-11-20_13h44.37.529,leap3,2022.2.5,59.923521312797305,
,,,,,,,,,,,,,,,,,,,,5,0,5,0,24,0,24,0,,,,,,gelented,nw,h,upper,,,,,,,1,nw,HiDemTar,h,1,0.6323153606663254,,,,,,,,,,,,,,,,,,,,336,2023-11-20_13h44.37.529,leap3,2022.2.5,59.923521312797305,
,,,,,,,,,,,,,,,,,,,,5,0,5,0,25,0,25,0,,,,,,cobalt,w,g,upper,,,,,,,1,w,HiDemTar,g,1,0.6143429407147778,,,,,,,,,,,,,,,,,,,,336,2023-11-20_13h44.37.529,leap3,2022.2.5,59.923521312797305,
,,,,,,,,,,,,,,,,,,,,5,0,5,0,26,0,26,0,,,,,,caterpillar,target,q,upper,,,,,,,1,target,HiDemTar,g,0,0.49305873671983136,1,1,,,,,,,,,,,,,,,,,,336,2023-11-20_13h44.37.529,leap3,2022.2.5,59.923521312797305,
,,,,,,,,,,,,,,,,,,,,5,0,5,0,27,0,27,0,,,,,,pastnoss,nw,h,upper,,,,,,,1,aftertar1,HiDemTar,h,1,0.5524436036157567,,,,,,,,,,,,,,,,,,,,336,2023-11-20_13h44.37.529,leap3,2022.2.5,59.923521312797305,
,,,,,,,,,,,,,,,,,,,,5,0,5,0,28,0,28,0,,,,,,arranged,w,g,upper,,,,,,,1,aftertar2,HiDemTar,g,1,0.6411770886425074,,,,,,,,,,,,,,,,,,,,336,2023-11-20_13h44.37.529,leap3,2022.2.5,59.923521312797305,
,,,,,,,,,,,,,,,,,,,,5,0,5,0,29,0,29,0,,,,,,halms,nw,h,upper,,,,,,,1,aftertar3,HiDemTar,h,1,0.5426128362323652,,,,,,,,,,,,,,,,,,,,336,2023-11-20_13h44.37.529,leap3,2022.2.5,59.923521312797305,
,,,,,,,,,,,,,,,,,,,,5,0,5,0,,,,,,,,,,,,,,,,,,,,,,,,,,,,1,,,,,,,,,,,,,,,,,336,2023-11-20_13h44.37.529,leap3,2022.2.5,59.923521312797305,
,,,,,,,,,,,,,,,,,,,,6,0,6,0,0,0,0,0,,,,,,wrestle,w,g,upper,,,,,,,1,w,HiDemTar,g,1,0.5113757996605273,,,,,,,,,,,,,,,,,,,,336,2023-11-20_13h44.37.529,leap3,2022.2.5,59.923521312797305,
,,,,,,,,,,,,,,,,,,,,6,0,6,0,1,0,1,0,,,,,,cessation,w,g,upper,,,,,,,1,w,HiDemTar,g,1,0.6660671985155204,,,,,,,,,,,,,,,,,,,,336,2023-11-20_13h44.37.529,leap3,2022.2.5,59.923521312797305,
,,,,,,,,,,,,,,,,,,,,6,0,6,0,2,0,2,0,,,,,,aggepting,nw,h,upper,,,,,,,1,nw,HiDemTar,h,1,0.6307394715076953,,,,,,,,,,,,,,,,,,,,336,2023-11-20_13h44.37.529,leap3,2022.2.5,59.923521312797305,
,,,,,,,,,,,,,,,,,,,,6,0,6,0,3,0,3,0,,,,,,purport,w,g,upper,,,,,,,1,w,HiDemTar,h,0,0.5407922869690083,,,,,,,,,,,,,,,,,,,,336,2023-11-20_13h44.37.529,leap3,2022.2.5,59.923521312797305,
,,,,,,,,,,,,,,,,,,,,6,0,6,0,4,0,4,0,,,,,,rarely,w,g,upper,,,,,,,1,w,HiDemTar,g,1,0.5741557807014033,,,,,,,,,,,,,,,,,,,,336,2023-11-20_13h44.37.529,leap3,2022.2.5,59.923521312797305,
,,,,,,,,,,,,,,,,,,,,6,0,6,0,5,0,5,0,,,,,,explosion,w,g,upper,,,,,,,1,w,HiDemTar,g,1,0.4142053483756172,,,,,,,,,,,,,,,,,,,,336,2023-11-20_13h44.37.529,leap3,2022.2.5,59.923521312797305,
,,,,,,,,,,,,,,,,,,,,6,0,6,0,6,0,6,0,,,,,,funtair,nw,h,upper,,,,,,,1,nw,HiDemTar,h,1,0.492901478872227,,,,,,,,,,,,,,,,,,,,336,2023-11-20_13h44.37.529,leap3,2022.2.5,59.923521312797305,
,,,,,,,,,,,,,,,,,,,,6,0,6,0,7,0,7,0,,,,,,befin,nw,h,upper,,,,,,,1,nw,HiDemTar,h,1,0.5043640861022141,,,,,,,,,,,,,,,,,,,,336,2023-11-20_13h44.37.529,leap3,2022.2.5,59.923521312797305,
,,,,,,,,,,,,,,,,,,,,6,0,6,0,8,0,8,0,,,,,,worps,nw,h,upper,,,,,,,1,nw,HiDemTar,h,1,0.5221981191498344,,,,,,,,,,,,,,,,,,,,336,2023-11-20_13h44.37.529,leap3,2022.2.5,59.923521312797305,
,,,,,,,,,,,,,,,,,,,,6,0,6,0,9,0,9,0,,,,,,artifact,w,g,upper,,,,,,,1,w,HiDemTar,g,1,0.5321543617392308,,,,,,,,,,,,,,,,,,,,336,2023-11-20_13h44.37.529,leap3,2022.2.5,59.923521312797305,
,,,,,,,,,,,,,,,,,,,,6,0,6,0,10,0,10,0,,,,,,mantos,nw,h,upper,,,,,,,1,nw,HiDemTar,h,1,0.4622693056389835,,,,,,,,,,,,,,,,,,,,336,2023-11-20_13h44.37.529,leap3,2022.2.5,59.923521312797305,
,,,,,,,,,,,,,,,,,,,,6,0,6,0,11,0,11,0,,,,,,chraps,nw,h,upper,,,,,,,1,nw,HiDemTar,h,1,0.4270097788757994,,,,,,,,,,,,,,,,,,,,336,2023-11-20_13h44.37.529,leap3,2022.2.5,59.923521312797305,
,,,,,,,,,,,,,,,,,,,,6,0,6,0,12,0,12,0,,,,,,bloves,nw,h,upper,,,,,,,1,nw,HiDemTar,h,1,0.40114367714522814,,,,,,,,,,,,,,,,,,,,336,2023-11-20_13h44.37.529,leap3,2022.2.5,59.923521312797305,
,,,,,,,,,,,,,,,,,,,,6,0,6,0,13,0,13,0,,,,,,tapling,nw,h,upper,,,,,,,1,nw,HiDemTar,h,1,0.479901717573739,,,,,,,,,,,,,,,,,,,,336,2023-11-20_13h44.37.529,leap3,2022.2.5,59.923521312797305,
,,,,,,,,,,,,,,,,,,,,6,0,6,0,14,0,14,0,,,,,,bureaug,nw,h,upper,,,,,,,1,nw,HiDemTar,h,1,0.411929910098479,,,,,,,,,,,,,,,,,,,,336,2023-11-20_13h44.37.529,leap3,2022.2.5,59.923521312797305,
,,,,,,,,,,,,,,,,,,,,6,0,6,0,15,0,15,0,,,,,,gund,nw,h,upper,,,,,,,1,nw,HiDemTar,h,1,0.4986696966971067,,,,,,,,,,,,,,,,,,,,336,2023-11-20_13h44.37.529,leap3,2022.2.5,59.923521312797305,
,,,,,,,,,,,,,,,,,,,,6,0,6,0,16,0,16,0,,,,,,birn,nw,h,upper,,,,,,,1,nw,HiDemTar,h,1,0.4220450658813206,,,,,,,,,,,,,,,,,,,,336,2023-11-20_13h44.37.529,leap3,2022.2.5,59.923521312797305,
,,,,,,,,,,,,,,,,,,,,6,0,6,0,17,0,17,0,,,,,,twarfs,nw,h,upper,,,,,,,1,nw,HiDemTar,h,1,0.3801244277929072,,,,,,,,,,,,,,,,,,,,336,2023-11-20_13h44.37.529,leap3,2022.2.5,59.923521312797305,
,,,,,,,,,,,,,,,,,,,,6,0,6,0,18,0,18,0,,,,,,charcoal,w,g,upper,,,,,,,1,w,HiDemTar,g,1,0.6512664210331423,,,,,,,,,,,,,,,,,,,,336,2023-11-20_13h44.37.529,leap3,2022.2.5,59.923521312797305,
,,,,,,,,,,,,,,,,,,,,6,0,6,0,19,0,19,0,,,,,,resonant,w,g,upper,,,,,,,1,w,HiDemTar,h,0,0.5439943878009217,,,,,,,,,,,,,,,,,,,,336,2023-11-20_13h44.37.529,leap3,2022.2.5,59.923521312797305,
,,,,,,,,,,,,,,,,,,,,6,0,6,0,20,0,20,0,,,,,,stalemate,w,g,upper,,,,,,,1,w,HiDemTar,g,1,0.6413353396983439,,,,,,,,,,,,,,,,,,,,336,2023-11-20_13h44.37.529,leap3,2022.2.5,59.923521312797305,
,,,,,,,,,,,,,,,,,,,,6,0,6,0,21,0,21,0,,,,,,golemic,nw,h,upper,,,,,,,1,nw,HiDemTar,h,1,0.7827561626891111,,,,,,,,,,,,,,,,,,,,336,2023-11-20_13h44.37.529,leap3,2022.2.5,59.923521312797305,
,,,,,,,,,,,,,,,,,,,,6,0,6,0,22,0,22,0,,,,,,kettle,w,g,upper,,,,,,,1,w,HiDemTar,h,0,0.5268201755716291,,,,,,,,,,,,,,,,,,,,336,2023-11-20_13h44.37.529,leap3,2022.2.5,59.923521312797305,
,,,,,,,,,,,,,,,,,,,,6,0,6,0,23,0,23,0,,,,,,region,w,g,upper,,,,,,,1,w,HiDemTar,g,1,0.5048401635413029,,,,,,,,,,,,,,,,,,,,336,2023-11-20_13h44.37.529,leap3,2022.2.5,59.923521312797305,
,,,,,,,,,,,,,,,,,,,,6,0,6,0,24,0,24,0,,,,,,fictional,w,g,upper,,,,,,,1,w,HiDemTar,g,1,0.4036227229516953,,,,,,,,,,,,,,,,,,,,336,2023-11-20_13h44.37.529,leap3,2022.2.5,59.923521312797305,
,,,,,,,,,,,,,,,,,,,,6,0,6,0,25,0,25,0,,,,,,expired,w,g,upper,,,,,,,1,w,HiDemTar,g,1,0.4505100604510517,,,,,,,,,,,,,,,,,,,,336,2023-11-20_13h44.37.529,leap3,2022.2.5,59.923521312797305,
,,,,,,,,,,,,,,,,,,,,6,0,6,0,26,0,26,0,,,,,,dialect,w,g,upper,,,,,,,1,w,HiDemTar,g,1,0.5030057093736104,,,,,,,,,,,,,,,,,,,,336,2023-11-20_13h44.37.529,leap3,2022.2.5,59.923521312797305,
,,,,,,,,,,,,,,,,,,,,6,0,6,0,27,0,27,0,,,,,,intended,w,g,upper,,,,,,,1,w,HiDemTar,g,1,0.4338725113157125,,,,,,,,,,,,,,,,,,,,336,2023-11-20_13h44.37.529,leap3,2022.2.5,59.923521312797305,
,,,,,,,,,,,,,,,,,,,,6,0,6,0,28,0,28,0,,,,,,crundle,nw,h,upper,,,,,,,1,nw,HiDemTar,h,1,0.6460944587506674,,,,,,,,,,,,,,,,,,,,336,2023-11-20_13h44.37.529,leap3,2022.2.5,59.923521312797305,
,,,,,,,,,,,,,,,,,,,,6,0,6,0,29,0,29,0,,,,,,porcupine,target,q,upper,,,,,,,1,target,HiDemTar,g,0,0.56337815554798,1,1,,,,,,,,,,,,,,,,,,336,2023-11-20_13h44.37.529,leap3,2022.2.5,59.923521312797305,
,,,,,,,,,,,,,,,,,,,,6,0,6,0,,,,,,,,,,,,,,,,,,,,,,,,,,,,1,,,,,,,,,,,,,,,,,336,2023-11-20_13h44.37.529,leap3,2022.2.5,59.923521312797305,
,,,,,,,,,,,,,,,,,,,,7,0,7,0,0,0,0,0,,,,,,acidic,w,g,lower,,,,,,,3,w,LoDemNoTar,g,1,0.5083726713874057,,,,,,,,,,,,,,,,,,,,336,2023-11-20_13h44.37.529,leap3,2022.2.5,59.923521312797305,
,,,,,,,,,,,,,,,,,,,,7,0,7,0,1,0,1,0,,,,,,personify,w,g,lower,,,,,,,3,w,LoDemNoTar,g,1,0.43843464422207035,,,,,,,,,,,,,,,,,,,,336,2023-11-20_13h44.37.529,leap3,2022.2.5,59.923521312797305,
,,,,,,,,,,,,,,,,,,,,7,0,7,0,2,0,2,0,,,,,,gelfry,nw,h,lower,,,,,,,3,nw,LoDemNoTar,h,1,0.5957957847149373,,,,,,,,,,,,,,,,,,,,336,2023-11-20_13h44.37.529,leap3,2022.2.5,59.923521312797305,
,,,,,,,,,,,,,,,,,,,,7,0,7,0,3,0,3,0,,,,,,tenpince,nw,h,lower,,,,,,,3,nw,LoDemNoTar,h,1,0.7293626542268612,,,,,,,,,,,,,,,,,,,,336,2023-11-20_13h44.37.529,leap3,2022.2.5,59.923521312797305,
,,,,,,,,,,,,,,,,,,,,7,0,7,0,4,0,4,0,,,,,,mustled,nw,h,lower,,,,,,,3,nw,LoDemNoTar,h,1,0.8511533940254594,,,,,,,,,,,,,,,,,,,,336,2023-11-20_13h44.37.529,leap3,2022.2.5,59.923521312797305,
,,,,,,,,,,,,,,,,,,,,7,0,7,0,5,0,5,0,,,,,,frogmy,nw,h,lower,,,,,,,3,nw,LoDemNoTar,h,1,0.5036880428942823,,,,,,,,,,,,,,,,,,,,336,2023-11-20_13h44.37.529,leap3,2022.2.5,59.923521312797305,
,,,,,,,,,,,,,,,,,,,,7,0,7,0,6,0,6,0,,,,,,pollute,w,g,lower,,,,,,,3,w,LoDemNoTar,g,1,0.7778219080573763,,,,,,,,,,,,,,,,,,,,336,2023-11-20_13h44.37.529,leap3,2022.2.5,59.923521312797305,
,,,,,,,,,,,,,,,,,,,,7,0,7,0,7,0,7,0,,,,,,entertain,w,g,lower,,,,,,,3,w,LoDemNoTar,g,1,0.585153566842564,,,,,,,,,,,,,,,,,,,,336,2023-11-20_13h44.37.529,leap3,2022.2.5,59.923521312797305,
,,,,,,,,,,,,,,,,,,,,7,0,7,0,8,0,8,0,,,,,,intercede,w,g,lower,,,,,,,3,w,LoDemNoTar,g,1,0.5206566611796006,,,,,,,,,,,,,,,,,,,,336,2023-11-20_13h44.37.529,leap3,2022.2.5,59.923521312797305,
,,,,,,,,,,,,,,,,,,,,7,0,7,0,9,0,9,0,,,,,,alchemist,w,g,lower,,,,,,,3,w,LoDemNoTar,g,1,0.5858951617428829,,,,,,,,,,,,,,,,,,,,336,2023-11-20_13h44.37.529,leap3,2022.2.5,59.923521312797305,
,,,,,,,,,,,,,,,,,,,,7,0,7,0,10,0,10,0,,,,,,arrested,w,g,lower,,,,,,,3,w,LoDemNoTar,g,1,0.4007579815843201,,,,,,,,,,,,,,,,,,,,336,2023-11-20_13h44.37.529,leap3,2022.2.5,59.923521312797305,
,,,,,,,,,,,,,,,,,,,,7,0,7,0,11,0,11,0,,,,,,mineluyer,nw,h,lower,,,,,,,3,nw,LoDemNoTar,h,1,0.5274799963899568,,,,,,,,,,,,,,,,,,,,336,2023-11-20_13h44.37.529,leap3,2022.2.5,59.923521312797305,
,,,,,,,,,,,,,,,,,,,,7,0,7,0,12,0,12,0,,,,,,upstairs,w,g,lower,,,,,,,3,w,LoDemNoTar,g,1,0.6329582969592593,,,,,,,,,,,,,,,,,,,,336,2023-11-20_13h44.37.529,leap3,2022.2.5,59.923521312797305,
,,,,,,,,,,,,,,,,,,,,7,0,7,0,13,0,13,0,,,,,,foster,w,g,lower,,,,,,,3,w,LoDemNoTar,g,1,0.8054072518898465,,,,,,,,,,,,,,,,,,,,336,2023-11-20_13h44.37.529,leap3,2022.2.5,59.923521312797305,
,,,,,,,,,,,,,,,,,,,,7,0,7,0,14,0,14,0,,,,,,dariner,nw,h,lower,,,,,,,3,nw,LoDemNoTar,h,1,0.603390842117733,,,,,,,,,,,,,,,,,,,,336,2023-11-20_13h44.37.529,leap3,2022.2.5,59.923521312797305,
,,,,,,,,,,,,,,,,,,,,7,0,7,0,15,0,15,0,,,,,,educate,w,g,lower,,,,,,,3,w,LoDemNoTar,g,1,0.48946266359598667,,,,,,,,,,,,,,,,,,,,336,2023-11-20_13h44.37.529,leap3,2022.2.5,59.923521312797305,
,,,,,,,,,,,,,,,,,,,,7,0,7,0,16,0,16,0,,,,,,martial,w,g,lower,,,,,,,3,w,LoDemNoTar,g,1,0.4441475734965934,,,,,,,,,,,,,,,,,,,,336,2023-11-20_13h44.37.529,leap3,2022.2.5,59.923521312797305,
,,,,,,,,,,,,,,,,,,,,7,0,7,0,17,0,17,0,,,,,,reprint,w,g,lower,,,,,,,3,w,LoDemNoTar,g,1,0.5289413356240402,,,,,,,,,,,,,,,,,,,,336,2023-11-20_13h44.37.529,leap3,2022.2.5,59.923521312797305,
,,,,,,,,,,,,,,,,,,,,7,0,7,0,18,0,18,0,,,,,,thorifies,nw,h,lower,,,,,,,3,nw,LoDemNoTar,h,1,0.5542790509898623,,,,,,,,,,,,,,,,,,,,336,2023-11-20_13h44.37.529,leap3,2022.2.5,59.923521312797305,
,,,,,,,,,,,,,,,,,,,,7,0,7,0,19,0,19,0,,,,,,analysis,w,g,lower,,,,,,,3,w,LoDemNoTar,g,1,0.4823582506760431,,,,,,,,,,,,,,,,,,,,336,2023-11-20_13h44.37.529,leap3,2022.2.5,59.923521312797305,
,,,,,,,,,,,,,,,,,,,,7,0,7,0,20,0,20,0,,,,,,veirs,nw,h,lower,,,,,,,3,nw,LoDemNoTar,h,1,0.5338583746615768,,,,,,,,,,,,,,,,,,,,336,2023-11-20_13h44.37.529,leap3,2022.2.5,59.923521312797305,
,,,,,,,,,,,,,,,,,,,,7,0,7,0,21,0,21,0,,,,,,churnad,nw,h,lower,,,,,,,3,nw,LoDemNoTar,h,1,0.5591626520417776,,,,,,,,,,,,,,,,,,,,336,2023-11-20_13h44.37.529,leap3,2022.2.5,59.923521312797305,
,,,,,,,,,,,,,,,,,,,,7,0,7,0,22,0,22,0,,,,,,naxis,nw,h,lower,,,,,,,3,nw,LoDemNoTar,h,1,0.4863542553339357,,,,,,,,,,,,,,,,,,,,336,2023-11-20_13h44.37.529,leap3,2022.2.5,59.923521312797305,
,,,,,,,,,,,,,,,,,,,,7,0,7,0,23,0,23,0,,,,,,misest,nw,h,lower,,,,,,,3,nw,LoDemNoTar,h,1,0.5531292478262912,,,,,,,,,,,,,,,,,,,,336,2023-11-20_13h44.37.529,leap3,2022.2.5,59.923521312797305,
,,,,,,,,,,,,,,,,,,,,7,0,7,0,24,0,24,0,,,,,,tyena,nw,h,lower,,,,,,,3,nw,LoDemNoTar,h,1,0.4889902279173839,,,,,,,,,,,,,,,,,,,,336,2023-11-20_13h44.37.529,leap3,2022.2.5,59.923521312797305,
,,,,,,,,,,,,,,,,,,,,7,0,7,0,25,0,25,0,,,,,,dounger,nw,h,lower,,,,,,,3,nw,LoDemNoTar,h,1,0.467807761471704,,,,,,,,,,,,,,,,,,,,336,2023-11-20_13h44.37.529,leap3,2022.2.5,59.923521312797305,
,,,,,,,,,,,,,,,,,,,,7,0,7,0,26,0,26,0,,,,,,pretzel,w,g,lower,,,,,,,3,w,LoDemNoTar,h,0,0.3758152317168424,,,,,,,,,,,,,,,,,,,,336,2023-11-20_13h44.37.529,leap3,2022.2.5,59.923521312797305,
,,,,,,,,,,,,,,,,,,,,7,0,7,0,27,0,27,0,,,,,,ilterfere,nw,h,lower,,,,,,,3,nw,LoDemNoTar,h,1,0.7351325273975817,,,,,,,,,,,,,,,,,,,,336,2023-11-20_13h44.37.529,leap3,2022.2.5,59.923521312797305,
,,,,,,,,,,,,,,,,,,,,7,0,7,0,28,0,28,0,,,,,,leather,w,g,lower,,,,,,,3,w,LoDemNoTar,g,1,0.46452454869722715,,,,,,,,,,,,,,,,,,,,336,2023-11-20_13h44.37.529,leap3,2022.2.5,59.923521312797305,
,,,,,,,,,,,,,,,,,,,,7,0,7,0,29,0,29,0,,,,,,trallion,nw,h,lower,,,,,,,3,nw,LoDemNoTar,h,1,0.5487233795611246,,,,,,,,,,,,,,,,,,,,336,2023-11-20_13h44.37.529,leap3,2022.2.5,59.923521312797305,
,,,,,,,,,,,,,,,,,,,,7,0,7,0,,,,,,,,,,,,,,,,,,,,,,,,,,,,NA,,,,,,,,,,,,,,,,,336,2023-11-20_13h44.37.529,leap3,2022.2.5,59.923521312797305,
,,,,,,,,,,,,,,,,,,,,8,0,8,0,0,0,0,0,,,,,,unwose,nw,h,lower,,,,,,,3,nw,LoDemNoTar,h,1,0.5254161113007285,,,,,,,,,,,,,,,,,,,,336,2023-11-20_13h44.37.529,leap3,2022.2.5,59.923521312797305,
,,,,,,,,,,,,,,,,,,,,8,0,8,0,1,0,1,0,,,,,,urgent,w,g,lower,,,,,,,3,w,LoDemNoTar,g,1,1.0067741039893008,,,,,,,,,,,,,,,,,,,,336,2023-11-20_13h44.37.529,leap3,2022.2.5,59.923521312797305,
,,,,,,,,,,,,,,,,,,,,8,0,8,0,2,0,2,0,,,,,,mystery,w,g,lower,,,,,,,3,w,LoDemNoTar,g,1,0.5249009677027061,,,,,,,,,,,,,,,,,,,,336,2023-11-20_13h44.37.529,leap3,2022.2.5,59.923521312797305,
,,,,,,,,,,,,,,,,,,,,8,0,8,0,3,0,3,0,,,,,,widely,w,g,lower,,,,,,,3,w,LoDemNoTar,g,1,0.4543186799674004,,,,,,,,,,,,,,,,,,,,336,2023-11-20_13h44.37.529,leap3,2022.2.5,59.923521312797305,
,,,,,,,,,,,,,,,,,,,,8,0,8,0,4,0,4,0,,,,,,brudent,nw,h,lower,,,,,,,3,nw,LoDemNoTar,g,0,0.4023961117454746,,,,,,,,,,,,,,,,,,,,336,2023-11-20_13h44.37.529,leap3,2022.2.5,59.923521312797305,
,,,,,,,,,,,,,,,,,,,,8,0,8,0,5,0,5,0,,,,,,become,w,g,lower,,,,,,,3,w,LoDemNoTar,g,1,0.44917552070000966,,,,,,,,,,,,,,,,,,,,336,2023-11-20_13h44.37.529,leap3,2022.2.5,59.923521312797305,
,,,,,,,,,,,,,,,,,,,,8,0,8,0,6,0,6,0,,,,,,omners,nw,h,lower,,,,,,,3,nw,LoDemNoTar,h,1,0.7657832405038789,,,,,,,,,,,,,,,,,,,,336,2023-11-20_13h44.37.529,leap3,2022.2.5,59.923521312797305,
,,,,,,,,,,,,,,,,,,,,8,0,8,0,7,0,7,0,,,,,,reses,nw,h,lower,,,,,,,3,nw,LoDemNoTar,h,1,0.5819448446272872,,,,,,,,,,,,,,,,,,,,336,2023-11-20_13h44.37.529,leap3,2022.2.5,59.923521312797305,
,,,,,,,,,,,,,,,,,,,,8,0,8,0,8,0,8,0,,,,,,mogus,nw,h,lower,,,,,,,3,nw,LoDemNoTar,h,1,0.5244378019579017,,,,,,,,,,,,,,,,,,,,336,2023-11-20_13h44.37.529,leap3,2022.2.5,59.923521312797305,
,,,,,,,,,,,,,,,,,,,,8,0,8,0,9,0,9,0,,,,,,ciping,nw,h,lower,,,,,,,3,nw,LoDemNoTar,h,1,0.49375530621364305,,,,,,,,,,,,,,,,,,,,336,2023-11-20_13h44.37.529,leap3,2022.2.5,59.923521312797305,
,,,,,,,,,,,,,,,,,,,,8,0,8,0,10,0,10,0,,,,,,fonducts,nw,h,lower,,,,,,,3,nw,LoDemNoTar,h,1,0.520481194529566,,,,,,,,,,,,,,,,,,,,336,2023-11-20_13h44.37.529,leap3,2022.2.5,59.923521312797305,
,,,,,,,,,,,,,,,,,,,,8,0,8,0,11,0,11,0,,,,,,etber,nw,h,lower,,,,,,,3,nw,LoDemNoTar,h,1,0.530510603402945,,,,,,,,,,,,,,,,,,,,336,2023-11-20_13h44.37.529,leap3,2022.2.5,59.923521312797305,
,,,,,,,,,,,,,,,,,,,,8,0,8,0,12,0,12,0,,,,,,erithets,nw,h,lower,,,,,,,3,nw,LoDemNoTar,h,1,0.43602115010799025,,,,,,,,,,,,,,,,,,,,336,2023-11-20_13h44.37.529,leap3,2022.2.5,59.923521312797305,
,,,,,,,,,,,,,,,,,,,,8,0,8,0,13,0,13,0,,,,,,reason,w,g,lower,,,,,,,3,w,LoDemNoTar,g,1,0.5527471940276882,,,,,,,,,,,,,,,,,,,,336,2023-11-20_13h44.37.529,leap3,2022.2.5,59.923521312797305,
,,,,,,,,,,,,,,,,,,,,8,0,8,0,14,0,14,0,,,,,,zears,nw,h,lower,,,,,,,3,nw,LoDemNoTar,h,1,0.5287407077194075,,,,,,,,,,,,,,,,,,,,336,2023-11-20_13h44.37.529,leap3,2022.2.5,59.923521312797305,
,,,,,,,,,,,,,,,,,,,,8,0,8,0,15,0,15,0,,,,,,undue,w,g,lower,,,,,,,3,w,LoDemNoTar,g,1,0.5621409501291055,,,,,,,,,,,,,,,,,,,,336,2023-11-20_13h44.37.529,leap3,2022.2.5,59.923521312797305,
,,,,,,,,,,,,,,,,,,,,8,0,8,0,16,0,16,0,,,,,,tasher,nw,h,lower,,,,,,,3,nw,LoDemNoTar,h,1,0.49817143762447813,,,,,,,,,,,,,,,,,,,,336,2023-11-20_13h44.37.529,leap3,2022.2.5,59.923521312797305,
,,,,,,,,,,,,,,,,,,,,8,0,8,0,17,0,17,0,,,,,,bulmed,nw,h,lower,,,,,,,3,nw,LoDemNoTar,h,1,0.4369776088860817,,,,,,,,,,,,,,,,,,,,336,2023-11-20_13h44.37.529,leap3,2022.2.5,59.923521312797305,
,,,,,,,,,,,,,,,,,,,,8,0,8,0,18,0,18,0,,,,,,graiking,nw,h,lower,,,,,,,3,nw,LoDemNoTar,h,1,0.49674817134291516,,,,,,,,,,,,,,,,,,,,336,2023-11-20_13h44.37.529,leap3,2022.2.5,59.923521312797305,
,,,,,,,,,,,,,,,,,,,,8,0,8,0,19,0,19,0,,,,,,publish,w,g,lower,,,,,,,3,w,LoDemNoTar,g,1,0.5234508848188852,,,,,,,,,,,,,,,,,,,,336,2023-11-20_13h44.37.529,leap3,2022.2.5,59.923521312797305,
,,,,,,,,,,,,,,,,,,,,8,0,8,0,20,0,20,0,,,,,,earterner,nw,h,lower,,,,,,,3,nw,LoDemNoTar,h,1,0.5568243106263253,,,,,,,,,,,,,,,,,,,,336,2023-11-20_13h44.37.529,leap3,2022.2.5,59.923521312797305,
,,,,,,,,,,,,,,,,,,,,8,0,8,0,21,0,21,0,,,,,,otiates,nw,h,lower,,,,,,,3,nw,LoDemNoTar,h,1,0.4209260521474789,,,,,,,,,,,,,,,,,,,,336,2023-11-20_13h44.37.529,leap3,2022.2.5,59.923521312797305,
,,,,,,,,,,,,,,,,,,,,8,0,8,0,22,0,22,0,,,,,,obviously,w,g,lower,,,,,,,3,w,LoDemNoTar,g,1,0.4982922778635839,,,,,,,,,,,,,,,,,,,,336,2023-11-20_13h44.37.529,leap3,2022.2.5,59.923521312797305,
,,,,,,,,,,,,,,,,,,,,8,0,8,0,23,0,23,0,,,,,,protest,w,g,lower,,,,,,,3,w,LoDemNoTar,g,1,0.525013862281412,,,,,,,,,,,,,,,,,,,,336,2023-11-20_13h44.37.529,leap3,2022.2.5,59.923521312797305,
,,,,,,,,,,,,,,,,,,,,8,0,8,0,24,0,24,0,,,,,,amidst,w,g,lower,,,,,,,3,w,LoDemNoTar,g,1,0.46239246336153883,,,,,,,,,,,,,,,,,,,,336,2023-11-20_13h44.37.529,leap3,2022.2.5,59.923521312797305,
,,,,,,,,,,,,,,,,,,,,8,0,8,0,25,0,25,0,,,,,,surround,w,g,lower,,,,,,,3,w,LoDemNoTar,g,1,0.4665003693935432,,,,,,,,,,,,,,,,,,,,336,2023-11-20_13h44.37.529,leap3,2022.2.5,59.923521312797305,
,,,,,,,,,,,,,,,,,,,,8,0,8,0,26,0,26,0,,,,,,euphoric,w,g,lower,,,,,,,3,w,LoDemNoTar,g,1,0.47044903116147907,,,,,,,,,,,,,,,,,,,,336,2023-11-20_13h44.37.529,leap3,2022.2.5,59.923521312797305,
,,,,,,,,,,,,,,,,,,,,8,0,8,0,27,0,27,0,,,,,,senior,w,g,lower,,,,,,,3,w,LoDemNoTar,g,1,0.3698410888791841,,,,,,,,,,,,,,,,,,,,336,2023-11-20_13h44.37.529,leap3,2022.2.5,59.923521312797305,
,,,,,,,,,,,,,,,,,,,,8,0,8,0,28,0,28,0,,,,,,infancy,w,g,lower,,,,,,,3,w,LoDemNoTar,g,1,0.48792517845686234,,,,,,,,,,,,,,,,,,,,336,2023-11-20_13h44.37.529,leap3,2022.2.5,59.923521312797305,
,,,,,,,,,,,,,,,,,,,,8,0,8,0,29,0,29,0,,,,,,harmful,w,g,lower,,,,,,,3,w,LoDemNoTar,g,1,0.40382633047920535,,,,,,,,,,,,,,,,,,,,336,2023-11-20_13h44.37.529,leap3,2022.2.5,59.923521312797305,
,,,,,,,,,,,,,,,,,,,,8,0,8,0,,,,,,,,,,,,,,,,,,,,,,,,,,,,NA,,,,,,,,,,,,,,,,,336,2023-11-20_13h44.37.529,leap3,2022.2.5,59.923521312797305,
,,,,,,,,,,,,,,,,,,,,9,0,9,0,0,0,0,0,,,,,,calming,w,g,upper,,,,,,,1,w,HiDemTar,g,1,0.5221458102223551,,,,,,,,,,,,,,,,,,,,336,2023-11-20_13h44.37.529,leap3,2022.2.5,59.923521312797305,
,,,,,,,,,,,,,,,,,,,,9,0,9,0,1,0,1,0,,,,,,repayment,w,g,upper,,,,,,,1,w,HiDemTar,g,1,0.41126512324262876,,,,,,,,,,,,,,,,,,,,336,2023-11-20_13h44.37.529,leap3,2022.2.5,59.923521312797305,
,,,,,,,,,,,,,,,,,,,,9,0,9,0,2,0,2,0,,,,,,hustle,w,g,upper,,,,,,,1,w,HiDemTar,g,1,0.37813801288211835,,,,,,,,,,,,,,,,,,,,336,2023-11-20_13h44.37.529,leap3,2022.2.5,59.923521312797305,
,,,,,,,,,,,,,,,,,,,,9,0,9,0,3,0,3,0,,,,,,mounting,w,g,upper,,,,,,,1,w,HiDemTar,g,1,0.3775804924316617,,,,,,,,,,,,,,,,,,,,336,2023-11-20_13h44.37.529,leap3,2022.2.5,59.923521312797305,
,,,,,,,,,,,,,,,,,,,,9,0,9,0,4,0,4,0,,,,,,hodels,nw,h,upper,,,,,,,1,nw,HiDemTar,h,1,0.6880846213607583,,,,,,,,,,,,,,,,,,,,336,2023-11-20_13h44.37.529,leap3,2022.2.5,59.923521312797305,
,,,,,,,,,,,,,,,,,,,,9,0,9,0,5,0,5,0,,,,,,chrayed,nw,h,upper,,,,,,,1,nw,HiDemTar,h,1,0.6986864487953426,,,,,,,,,,,,,,,,,,,,336,2023-11-20_13h44.37.529,leap3,2022.2.5,59.923521312797305,
,,,,,,,,,,,,,,,,,,,,9,0,9,0,6,0,6,0,,,,,,ganter,nw,h,upper,,,,,,,1,nw,HiDemTar,h,1,0.5414269465309189,,,,,,,,,,,,,,,,,,,,336,2023-11-20_13h44.37.529,leap3,2022.2.5,59.923521312797305,
,,,,,,,,,,,,,,,,,,,,9,0,9,0,7,0,7,0,,,,,,mebase,nw,h,upper,,,,,,,1,nw,HiDemTar,h,1,0.5981480310347251,,,,,,,,,,,,,,,,,,,,336,2023-11-20_13h44.37.529,leap3,2022.2.5,59.923521312797305,
,,,,,,,,,,,,,,,,,,,,9,0,9,0,8,0,8,0,,,,,,enunciate,w,g,upper,,,,,,,1,w,HiDemTar,g,1,0.5090262018911744,,,,,,,,,,,,,,,,,,,,336,2023-11-20_13h44.37.529,leap3,2022.2.5,59.923521312797305,
,,,,,,,,,,,,,,,,,,,,9,0,9,0,9,0,9,0,,,,,,pived,nw,h,upper,,,,,,,1,nw,HiDemTar,h,1,0.5429823094054882,,,,,,,,,,,,,,,,,,,,336,2023-11-20_13h44.37.529,leap3,2022.2.5,59.923521312797305,
,,,,,,,,,,,,,,,,,,,,9,0,9,0,10,0,10,0,,,,,,etcess,nw,h,upper,,,,,,,1,nw,HiDemTar,h,1,0.43169871126701764,,,,,,,,,,,,,,,,,,,,336,2023-11-20_13h44.37.529,leap3,2022.2.5,59.923521312797305,
,,,,,,,,,,,,,,,,,,,,9,0,9,0,11,0,11,0,,,,,,handle,w,g,upper,,,,,,,1,w,HiDemTar,g,1,0.4770988861382648,,,,,,,,,,,,,,,,,,,,336,2023-11-20_13h44.37.529,leap3,2022.2.5,59.923521312797305,
,,,,,,,,,,,,,,,,,,,,9,0,9,0,12,0,12,0,,,,,,dorth,nw,h,upper,,,,,,,1,nw,HiDemTar,h,1,0.5125424873476732,,,,,,,,,,,,,,,,,,,,336,2023-11-20_13h44.37.529,leap3,2022.2.5,59.923521312797305,
,,,,,,,,,,,,,,,,,,,,9,0,9,0,13,0,13,0,,,,,,ifling,nw,h,upper,,,,,,,1,nw,HiDemTar,h,1,0.48267640813173784,,,,,,,,,,,,,,,,,,,,336,2023-11-20_13h44.37.529,leap3,2022.2.5,59.923521312797305,
,,,,,,,,,,,,,,,,,,,,9,0,9,0,14,0,14,0,,,,,,violate,w,g,upper,,,,,,,1,w,HiDemTar,g,1,0.46910124864734826,,,,,,,,,,,,,,,,,,,,336,2023-11-20_13h44.37.529,leap3,2022.2.5,59.923521312797305,
,,,,,,,,,,,,,,,,,,,,9,0,9,0,15,0,15,0,,,,,,spider,target,q,upper,,,,,,,1,target,HiDemTar,g,0,0.48109555293194717,1,1,,,,,,,,,,,,,,,,,,336,2023-11-20_13h44.37.529,leap3,2022.2.5,59.923521312797305,
,,,,,,,,,,,,,,,,,,,,9,0,9,0,16,0,16,0,,,,,,triplet,w,g,upper,,,,,,,1,aftertar1,HiDemTar,h,0,0.5404367187002208,,,,,,,,,,,,,,,,,,,,336,2023-11-20_13h44.37.529,leap3,2022.2.5,59.923521312797305,
,,,,,,,,,,,,,,,,,,,,9,0,9,0,17,0,17,0,,,,,,gymnasium,w,g,upper,,,,,,,1,aftertar2,HiDemTar,g,1,0.4451712393129128,,,,,,,,,,,,,,,,,,,,336,2023-11-20_13h44.37.529,leap3,2022.2.5,59.923521312797305,
,,,,,,,,,,,,,,,,,,,,9,0,9,0,18,0,18,0,,,,,,chone,nw,h,upper,,,,,,,1,aftertar3,HiDemTar,g,0,0.4099653457542445,,,,,,,,,,,,,,,,,,,,336,2023-11-20_13h44.37.529,leap3,2022.2.5,59.923521312797305,
,,,,,,,,,,,,,,,,,,,,9,0,9,0,19,0,19,0,,,,,,trises,nw,h,upper,,,,,,,1,nw,HiDemTar,h,1,0.4959493014794134,,,,,,,,,,,,,,,,,,,,336,2023-11-20_13h44.37.529,leap3,2022.2.5,59.923521312797305,
,,,,,,,,,,,,,,,,,,,,9,0,9,0,20,0,20,0,,,,,,doxing,nw,h,upper,,,,,,,1,nw,HiDemTar,h,1,0.46660763579711784,,,,,,,,,,,,,,,,,,,,336,2023-11-20_13h44.37.529,leap3,2022.2.5,59.923521312797305,
,,,,,,,,,,,,,,,,,,,,9,0,9,0,21,0,21,0,,,,,,derived,w,g,upper,,,,,,,1,nw,HiDemTar,g,1,0.5827255056865397,,,,,,,,,,,,,,,,,,,,336,2023-11-20_13h44.37.529,leap3,2022.2.5,59.923521312797305,
,,,,,,,,,,,,,,,,,,,,9,0,9,0,22,0,22,0,,,,,,maiden,w,g,upper,,,,,,,1,w,HiDemTar,g,1,0.44600751999132626,,,,,,,,,,,,,,,,,,,,336,2023-11-20_13h44.37.529,leap3,2022.2.5,59.923521312797305,
,,,,,,,,,,,,,,,,,,,,9,0,9,0,23,0,23,0,,,,,,populace,w,g,upper,,,,,,,1,w,HiDemTar,g,1,0.5698783672651189,,,,,,,,,,,,,,,,,,,,336,2023-11-20_13h44.37.529,leap3,2022.2.5,59.923521312797305,
,,,,,,,,,,,,,,,,,,,,9,0,9,0,24,0,24,0,,,,,,topefuls,nw,h,upper,,,,,,,1,w,HiDemTar,h,1,0.5930853215722891,,,,,,,,,,,,,,,,,,,,336,2023-11-20_13h44.37.529,leap3,2022.2.5,59.923521312797305,
,,,,,,,,,,,,,,,,,,,,9,0,9,0,25,0,25,0,,,,,,brouhuha,nw,h,upper,,,,,,,1,nw,HiDemTar,h,1,0.40812625661783386,,,,,,,,,,,,,,,,,,,,336,2023-11-20_13h44.37.529,leap3,2022.2.5,59.923521312797305,
,,,,,,,,,,,,,,,,,,,,9,0,9,0,26,0,26,0,,,,,,flougy,nw,h,upper,,,,,,,1,nw,HiDemTar,h,1,0.7744291113922372,,,,,,,,,,,,,,,,,,,,336,2023-11-20_13h44.37.529,leap3,2022.2.5,59.923521312797305,
,,,,,,,,,,,,,,,,,,,,9,0,9,0,27,0,27,0,,,,,,garment,w,g,upper,,,,,,,1,nw,HiDemTar,g,1,0.5578228151880467,,,,,,,,,,,,,,,,,,,,336,2023-11-20_13h44.37.529,leap3,2022.2.5,59.923521312797305,
,,,,,,,,,,,,,,,,,,,,9,0,9,0,28,0,28,0,,,,,,buttress,w,g,upper,,,,,,,1,w,HiDemTar,g,1,0.573925025502831,,,,,,,,,,,,,,,,,,,,336,2023-11-20_13h44.37.529,leap3,2022.2.5,59.923521312797305,
,,,,,,,,,,,,,,,,,,,,9,0,9,0,29,0,29,0,,,,,,baults,nw,h,upper,,,,,,,1,w,HiDemTar,h,1,0.6053610346370988,,,,,,,,,,,,,,,,,,,,336,2023-11-20_13h44.37.529,leap3,2022.2.5,59.923521312797305,
,,,,,,,,,,,,,,,,,,,,9,0,9,0,,,,,,,,,,,,,,,,,,,,,,,,,,,,1,,,,,,,,,,,,,,,,,336,2023-11-20_13h44.37.529,leap3,2022.2.5,59.923521312797305,
,,,,,,,,,,,,,,,,,,,,10,0,10,0,0,0,0,0,,,,,,command,w,g,lower,,,,,,,4,w,LoDemTar,g,1,0.5551123520453984,,,,,,,,,,,,,,,,,,,,336,2023-11-20_13h44.37.529,leap3,2022.2.5,59.923521312797305,
,,,,,,,,,,,,,,,,,,,,10,0,10,0,1,0,1,0,,,,,,solidity,w,g,lower,,,,,,,4,w,LoDemTar,g,1,0.4751048566376994,,,,,,,,,,,,,,,,,,,,336,2023-11-20_13h44.37.529,leap3,2022.2.5,59.923521312797305,
,,,,,,,,,,,,,,,,,,,,10,0,10,0,2,0,2,0,,,,,,contund,nw,h,lower,,,,,,,4,nw,LoDemTar,h,1,0.5425158329708211,,,,,,,,,,,,,,,,,,,,336,2023-11-20_13h44.37.529,leap3,2022.2.5,59.923521312797305,
,,,,,,,,,,,,,,,,,,,,10,0,10,0,3,0,3,0,,,,,,hecture,nw,h,lower,,,,,,,4,nw,LoDemTar,h,1,0.6152755625134887,,,,,,,,,,,,,,,,,,,,336,2023-11-20_13h44.37.529,leap3,2022.2.5,59.923521312797305,
,,,,,,,,,,,,,,,,,,,,10,0,10,0,4,0,4,0,,,,,,slending,nw,h,lower,,,,,,,4,nw,LoDemTar,h,1,0.7173594110736303,,,,,,,,,,,,,,,,,,,,336,2023-11-20_13h44.37.529,leap3,2022.2.5,59.923521312797305,
,,,,,,,,,,,,,,,,,,,,10,0,10,0,5,0,5,0,,,,,,duries,nw,h,lower,,,,,,,4,nw,LoDemTar,h,1,0.503414248707486,,,,,,,,,,,,,,,,,,,,336,2023-11-20_13h44.37.529,leap3,2022.2.5,59.923521312797305,
,,,,,,,,,,,,,,,,,,,,10,0,10,0,6,0,6,0,,,,,,pillage,w,g,lower,,,,,,,4,w,LoDemTar,h,0,0.7294659478029644,,,,,,,,,,,,,,,,,,,,336,2023-11-20_13h44.37.529,leap3,2022.2.5,59.923521312797305,
,,,,,,,,,,,,,,,,,,,,10,0,10,0,7,0,7,0,,,,,,figure,w,g,lower,,,,,,,4,w,LoDemTar,g,1,0.44293751574878115,,,,,,,,,,,,,,,,,,,,336,2023-11-20_13h44.37.529,leap3,2022.2.5,59.923521312797305,
,,,,,,,,,,,,,,,,,,,,10,0,10,0,8,0,8,0,,,,,,helpful,w,g,lower,,,,,,,4,w,LoDemTar,g,1,0.4156551001888147,,,,,,,,,,,,,,,,,,,,336,2023-11-20_13h44.37.529,leap3,2022.2.5,59.923521312797305,
,,,,,,,,,,,,,,,,,,,,10,0,10,0,9,0,9,0,,,,,,butterfly,target,q,lower,,,,,,,4,target,LoDemTar,q,1,0.5647885101316206,1,,,,,,,,,,,,,,,,,,,336,2023-11-20_13h44.37.529,leap3,2022.2.5,59.923521312797305,
,,,,,,,,,,,,,,,,,,,,10,0,10,0,10,0,10,0,,,,,,gradielts,nw,h,lower,,,,,,,4,aftertar1,LoDemTar,h,1,0.6048144394681003,,,,,,,,,,,,,,,,,,,,336,2023-11-20_13h44.37.529,leap3,2022.2.5,59.923521312797305,
,,,,,,,,,,,,,,,,,,,,10,0,10,0,11,0,11,0,,,,,,potter,w,g,lower,,,,,,,4,aftertar2,LoDemTar,g,1,0.7628615552421252,,,,,,,,,,,,,,,,,,,,336,2023-11-20_13h44.37.529,leap3,2022.2.5,59.923521312797305,
,,,,,,,,,,,,,,,,,,,,10,0,10,0,12,0,12,0,,,,,,frigs,nw,h,lower,,,,,,,4,aftertar3,LoDemTar,h,1,0.5709258700608189,,,,,,,,,,,,,,,,,,,,336,2023-11-20_13h44.37.529,leap3,2022.2.5,59.923521312797305,
,,,,,,,,,,,,,,,,,,,,10,0,10,0,13,0,13,0,,,,,,jungle,w,g,lower,,,,,,,4,nw,LoDemTar,g,1,0.48225131534127286,,,,,,,,,,,,,,,,,,,,336,2023-11-20_13h44.37.529,leap3,2022.2.5,59.923521312797305,
,,,,,,,,,,,,,,,,,,,,10,0,10,0,14,0,14,0,,,,,,unmarked,w,g,lower,,,,,,,4,w,LoDemTar,g,1,0.5416782280171901,,,,,,,,,,,,,,,,,,,,336,2023-11-20_13h44.37.529,leap3,2022.2.5,59.923521312797305,
,,,,,,,,,,,,,,,,,,,,10,0,10,0,15,0,15,0,,,,,,shamrock,w,g,lower,,,,,,,4,w,LoDemTar,g,1,0.7824737607024872,,,,,,,,,,,,,,,,,,,,336,2023-11-20_13h44.37.529,leap3,2022.2.5,59.923521312797305,
,,,,,,,,,,,,,,,,,,,,10,0,10,0,16,0,16,0,,,,,,gounts,nw,h,lower,,,,,,,4,w,LoDemTar,h,1,0.5257710174300882,,,,,,,,,,,,,,,,,,,,336,2023-11-20_13h44.37.529,leap3,2022.2.5,59.923521312797305,
,,,,,,,,,,,,,,,,,,,,10,0,10,0,17,0,17,0,,,,,,begut,nw,h,lower,,,,,,,4,nw,LoDemTar,h,1,0.42311905420683615,,,,,,,,,,,,,,,,,,,,336,2023-11-20_13h44.37.529,leap3,2022.2.5,59.923521312797305,
,,,,,,,,,,,,,,,,,,,,10,0,10,0,18,0,18,0,,,,,,ringlat,nw,h,lower,,,,,,,4,nw,LoDemTar,h,1,0.4443491946112772,,,,,,,,,,,,,,,,,,,,336,2023-11-20_13h44.37.529,leap3,2022.2.5,59.923521312797305,
,,,,,,,,,,,,,,,,,,,,10,0,10,0,19,0,19,0,,,,,,scarlet,w,g,lower,,,,,,,4,nw,LoDemTar,g,1,0.5203831980616087,,,,,,,,,,,,,,,,,,,,336,2023-11-20_13h44.37.529,leap3,2022.2.5,59.923521312797305,
,,,,,,,,,,,,,,,,,,,,10,0,10,0,20,0,20,0,,,,,,havel,nw,h,lower,,,,,,,4,w,LoDemTar,h,1,0.5776849778558244,,,,,,,,,,,,,,,,,,,,336,2023-11-20_13h44.37.529,leap3,2022.2.5,59.923521312797305,
,,,,,,,,,,,,,,,,,,,,10,0,10,0,21,0,21,0,,,,,,trooper,w,g,lower,,,,,,,4,nw,LoDemTar,h,0,0.4892209831159562,,,,,,,,,,,,,,,,,,,,336,2023-11-20_13h44.37.529,leap3,2022.2.5,59.923521312797305,
,,,,,,,,,,,,,,,,,,,,10,0,10,0,22,0,22,0,,,,,,buzzer,w,g,lower,,,,,,,4,w,LoDemTar,g,1,0.49187086060373986,,,,,,,,,,,,,,,,,,,,336,2023-11-20_13h44.37.529,leap3,2022.2.5,59.923521312797305,
,,,,,,,,,,,,,,,,,,,,10,0,10,0,23,0,23,0,,,,,,welayed,nw,h,lower,,,,,,,4,w,LoDemTar,h,1,0.5186394568409014,,,,,,,,,,,,,,,,,,,,336,2023-11-20_13h44.37.529,leap3,2022.2.5,59.923521312797305,
,,,,,,,,,,,,,,,,,,,,10,0,10,0,24,0,24,0,,,,,,chiffol,nw,h,lower,,,,,,,4,nw,LoDemTar,h,1,0.5447270438326086,,,,,,,,,,,,,,,,,,,,336,2023-11-20_13h44.37.529,leap3,2022.2.5,59.923521312797305,
,,,,,,,,,,,,,,,,,,,,10,0,10,0,25,0,25,0,,,,,,corduroy,w,g,lower,,,,,,,4,nw,LoDemTar,g,1,0.7614584841794567,,,,,,,,,,,,,,,,,,,,336,2023-11-20_13h44.37.529,leap3,2022.2.5,59.923521312797305,
,,,,,,,,,,,,,,,,,,,,10,0,10,0,26,0,26,0,,,,,,bullet,w,g,lower,,,,,,,4,w,LoDemTar,g,1,0.5055099164346757,,,,,,,,,,,,,,,,,,,,336,2023-11-20_13h44.37.529,leap3,2022.2.5,59.923521312797305,
,,,,,,,,,,,,,,,,,,,,10,0,10,0,27,0,27,0,,,,,,bluads,nw,h,lower,,,,,,,4,w,LoDemTar,h,1,0.5155889856796421,,,,,,,,,,,,,,,,,,,,336,2023-11-20_13h44.37.529,leap3,2022.2.5,59.923521312797305,
,,,,,,,,,,,,,,,,,,,,10,0,10,0,28,0,28,0,,,,,,previous,w,g,lower,,,,,,,4,nw,LoDemTar,g,1,0.49278428039360733,,,,,,,,,,,,,,,,,,,,336,2023-11-20_13h44.37.529,leap3,2022.2.5,59.923521312797305,
,,,,,,,,,,,,,,,,,,,,10,0,10,0,29,0,29,0,,,,,,sooled,nw,h,lower,,,,,,,4,w,LoDemTar,h,1,0.6074845121747785,,,,,,,,,,,,,,,,,,,,336,2023-11-20_13h44.37.529,leap3,2022.2.5,59.923521312797305,
,,,,,,,,,,,,,,,,,,,,10,0,10,0,,,,,,,,,,,,,,,,,,,,,,,,,,,,1,,,,,,,,,,,,,,,,,336,2023-11-20_13h44.37.529,leap3,2022.2.5,59.923521312797305,
,,,,,,,,,,,,,,,,,,,,11,0,11,0,0,0,0,0,,,,,,marvel,w,g,lower,,,,,,,3,w,LoDemNoTar,g,1,0.5344662176230486,,,,,,,,,,,,,,,,,,,,336,2023-11-20_13h44.37.529,leap3,2022.2.5,59.923521312797305,
,,,,,,,,,,,,,,,,,,,,11,0,11,0,1,0,1,0,,,,,,shazer,nw,h,lower,,,,,,,3,nw,LoDemNoTar,h,1,0.4878453907913354,,,,,,,,,,,,,,,,,,,,336,2023-11-20_13h44.37.529,leap3,2022.2.5,59.923521312797305,
,,,,,,,,,,,,,,,,,,,,11,0,11,0,2,0,2,0,,,,,,sonnet,w,g,lower,,,,,,,3,w,LoDemNoTar,h,0,0.47460560435865773,,,,,,,,,,,,,,,,,,,,336,2023-11-20_13h44.37.529,leap3,2022.2.5,59.923521312797305,
,,,,,,,,,,,,,,,,,,,,11,0,11,0,3,0,3,0,,,,,,forgery,w,g,lower,,,,,,,3,w,LoDemNoTar,g,1,0.5019737668280868,,,,,,,,,,,,,,,,,,,,336,2023-11-20_13h44.37.529,leap3,2022.2.5,59.923521312797305,
,,,,,,,,,,,,,,,,,,,,11,0,11,0,4,0,4,0,,,,,,fuintets,nw,h,lower,,,,,,,3,nw,LoDemNoTar,h,1,0.5198471971052641,,,,,,,,,,,,,,,,,,,,336,2023-11-20_13h44.37.529,leap3,2022.2.5,59.923521312797305,
,,,,,,,,,,,,,,,,,,,,11,0,11,0,5,0,5,0,,,,,,orange,w,g,lower,,,,,,,3,w,LoDemNoTar,g,1,0.4891435129356978,,,,,,,,,,,,,,,,,,,,336,2023-11-20_13h44.37.529,leap3,2022.2.5,59.923521312797305,
,,,,,,,,,,,,,,,,,,,,11,0,11,0,6,0,6,0,,,,,,describe,w,g,lower,,,,,,,3,w,LoDemNoTar,g,1,0.5078426296749967,,,,,,,,,,,,,,,,,,,,336,2023-11-20_13h44.37.529,leap3,2022.2.5,59.923521312797305,
,,,,,,,,,,,,,,,,,,,,11,0,11,0,7,0,7,0,,,,,,lavilion,nw,h,lower,,,,,,,3,nw,LoDemNoTar,h,1,0.5099270410519239,,,,,,,,,,,,,,,,,,,,336,2023-11-20_13h44.37.529,leap3,2022.2.5,59.923521312797305,
,,,,,,,,,,,,,,,,,,,,11,0,11,0,8,0,8,0,,,,,,budget,w,g,lower,,,,,,,3,w,LoDemNoTar,g,1,0.47194413944998814,,,,,,,,,,,,,,,,,,,,336,2023-11-20_13h44.37.529,leap3,2022.2.5,59.923521312797305,
,,,,,,,,,,,,,,,,,,,,11,0,11,0,9,0,9,0,,,,,,fallacy,w,g,lower,,,,,,,3,w,LoDemNoTar,g,1,0.7073541702484363,,,,,,,,,,,,,,,,,,,,336,2023-11-20_13h44.37.529,leap3,2022.2.5,59.923521312797305,
,,,,,,,,,,,,,,,,,,,,11,0,11,0,10,0,10,0,,,,,,slears,nw,h,lower,,,,,,,3,nw,LoDemNoTar,h,1,0.5574659226404037,,,,,,,,,,,,,,,,,,,,336,2023-11-20_13h44.37.529,leap3,2022.2.5,59.923521312797305,
,,,,,,,,,,,,,,,,,,,,11,0,11,0,11,0,11,0,,,,,,frequency,w,g,lower,,,,,,,3,w,LoDemNoTar,g,1,0.525513445631077,,,,,,,,,,,,,,,,,,,,336,2023-11-20_13h44.37.529,leap3,2022.2.5,59.923521312797305,
,,,,,,,,,,,,,,,,,,,,11,0,11,0,12,0,12,0,,,,,,fallint,nw,h,lower,,,,,,,3,nw,LoDemNoTar,h,1,0.5268314319218916,,,,,,,,,,,,,,,,,,,,336,2023-11-20_13h44.37.529,leap3,2022.2.5,59.923521312797305,
,,,,,,,,,,,,,,,,,,,,11,0,11,0,13,0,13,0,,,,,,number,w,g,lower,,,,,,,3,w,LoDemNoTar,g,1,0.5441648884134338,,,,,,,,,,,,,,,,,,,,336,2023-11-20_13h44.37.529,leap3,2022.2.5,59.923521312797305,
,,,,,,,,,,,,,,,,,,,,11,0,11,0,14,0,14,0,,,,,,dreaded,w,g,lower,,,,,,,3,w,LoDemNoTar,g,1,0.7200685499392421,,,,,,,,,,,,,,,,,,,,336,2023-11-20_13h44.37.529,leap3,2022.2.5,59.923521312797305,
,,,,,,,,,,,,,,,,,,,,11,0,11,0,15,0,15,0,,,,,,houted,nw,h,lower,,,,,,,3,nw,LoDemNoTar,h,1,0.6015090450600837,,,,,,,,,,,,,,,,,,,,336,2023-11-20_13h44.37.529,leap3,2022.2.5,59.923521312797305,
,,,,,,,,,,,,,,,,,,,,11,0,11,0,16,0,16,0,,,,,,offonents,nw,h,lower,,,,,,,3,nw,LoDemNoTar,h,1,0.567666825334527,,,,,,,,,,,,,,,,,,,,336,2023-11-20_13h44.37.529,leap3,2022.2.5,59.923521312797305,
,,,,,,,,,,,,,,,,,,,,11,0,11,0,17,0,17,0,,,,,,latter,w,g,lower,,,,,,,3,w,LoDemNoTar,g,1,0.47229606595647056,,,,,,,,,,,,,,,,,,,,336,2023-11-20_13h44.37.529,leap3,2022.2.5,59.923521312797305,
,,,,,,,,,,,,,,,,,,,,11,0,11,0,18,0,18,0,,,,,,downtrund,nw,h,lower,,,,,,,3,nw,LoDemNoTar,g,0,0.8035939861474617,,,,,,,,,,,,,,,,,,,,336,2023-11-20_13h44.37.529,leap3,2022.2.5,59.923521312797305,
,,,,,,,,,,,,,,,,,,,,11,0,11,0,19,0,19,0,,,,,,laser,w,g,lower,,,,,,,3,w,LoDemNoTar,g,1,0.5936673411397351,,,,,,,,,,,,,,,,,,,,336,2023-11-20_13h44.37.529,leap3,2022.2.5,59.923521312797305,
,,,,,,,,,,,,,,,,,,,,11,0,11,0,20,0,20,0,,,,,,sonkers,nw,h,lower,,,,,,,3,nw,LoDemNoTar,h,1,0.49650152482354315,,,,,,,,,,,,,,,,,,,,336,2023-11-20_13h44.37.529,leap3,2022.2.5,59.923521312797305,
,,,,,,,,,,,,,,,,,,,,11,0,11,0,21,0,21,0,,,,,,medium,w,g,lower,,,,,,,3,w,LoDemNoTar,g,1,0.4752187444264564,,,,,,,,,,,,,,,,,,,,336,2023-11-20_13h44.37.529,leap3,2022.2.5,59.923521312797305,
,,,,,,,,,,,,,,,,,,,,11,0,11,0,22,0,22,0,,,,,,rualify,nw,h,lower,,,,,,,3,nw,LoDemNoTar,h,1,0.5338891640913062,,,,,,,,,,,,,,,,,,,,336,2023-11-20_13h44.37.529,leap3,2022.2.5,59.923521312797305,
,,,,,,,,,,,,,,,,,,,,11,0,11,0,23,0,23,0,,,,,,except,w,g,lower,,,,,,,3,w,LoDemNoTar,g,1,0.5584405902227445,,,,,,,,,,,,,,,,,,,,336,2023-11-20_13h44.37.529,leap3,2022.2.5,59.923521312797305,
,,,,,,,,,,,,,,,,,,,,11,0,11,0,24,0,24,0,,,,,,mosary,nw,h,lower,,,,,,,3,nw,LoDemNoTar,h,1,0.5025094367156271,,,,,,,,,,,,,,,,,,,,336,2023-11-20_13h44.37.529,leap3,2022.2.5,59.923521312797305,
,,,,,,,,,,,,,,,,,,,,11,0,11,0,25,0,25,0,,,,,,record,w,g,lower,,,,,,,3,w,LoDemNoTar,g,1,0.4165877219893446,,,,,,,,,,,,,,,,,,,,336,2023-11-20_13h44.37.529,leap3,2022.2.5,59.923521312797305,
,,,,,,,,,,,,,,,,,,,,11,0,11,0,26,0,26,0,,,,,,ifkling,nw,h,lower,,,,,,,3,nw,LoDemNoTar,h,1,0.45454976623659604,,,,,,,,,,,,,,,,,,,,336,2023-11-20_13h44.37.529,leap3,2022.2.5,59.923521312797305,
,,,,,,,,,,,,,,,,,,,,11,0,11,0,27,0,27,0,,,,,,lutton,nw,h,lower,,,,,,,3,nw,LoDemNoTar,h,1,0.5546561387527618,,,,,,,,,,,,,,,,,,,,336,2023-11-20_13h44.37.529,leap3,2022.2.5,59.923521312797305,
,,,,,,,,,,,,,,,,,,,,11,0,11,0,28,0,28,0,,,,,,butled,nw,h,lower,,,,,,,3,nw,LoDemNoTar,h,1,0.8267231392037502,,,,,,,,,,,,,,,,,,,,336,2023-11-20_13h44.37.529,leap3,2022.2.5,59.923521312797305,
,,,,,,,,,,,,,,,,,,,,11,0,11,0,29,0,29,0,,,,,,ebciting,nw,h,lower,,,,,,,3,nw,LoDemNoTar,h,1,0.5281510735603661,,,,,,,,,,,,,,,,,,,,336,2023-11-20_13h44.37.529,leap3,2022.2.5,59.923521312797305,
,,,,,,,,,,,,,,,,,,,,11,0,11,0,,,,,,,,,,,,,,,,,,,,,,,,,,,,NA,,,,,,,,,,,,,,,,,336,2023-11-20_13h44.37.529,leap3,2022.2.5,59.923521312797305,
,,,,,,,,,,,,,,,,,,,,12,0,12,0,0,0,0,0,,,,,,digested,w,g,lower,,,,,,,3,w,LoDemNoTar,g,1,0.4975708781839785,,,,,,,,,,,,,,,,,,,,336,2023-11-20_13h44.37.529,leap3,2022.2.5,59.923521312797305,
,,,,,,,,,,,,,,,,,,,,12,0,12,0,1,0,1,0,,,,,,parody,w,g,lower,,,,,,,3,w,LoDemNoTar,g,1,0.5962933816481382,,,,,,,,,,,,,,,,,,,,336,2023-11-20_13h44.37.529,leap3,2022.2.5,59.923521312797305,
,,,,,,,,,,,,,,,,,,,,12,0,12,0,2,0,2,0,,,,,,impirt,nw,h,lower,,,,,,,3,nw,LoDemNoTar,h,1,0.6909771725349856,,,,,,,,,,,,,,,,,,,,336,2023-11-20_13h44.37.529,leap3,2022.2.5,59.923521312797305,
,,,,,,,,,,,,,,,,,,,,12,0,12,0,3,0,3,0,,,,,,arrival,w,g,lower,,,,,,,3,w,LoDemNoTar,g,1,0.44576186668018636,,,,,,,,,,,,,,,,,,,,336,2023-11-20_13h44.37.529,leap3,2022.2.5,59.923521312797305,
,,,,,,,,,,,,,,,,,,,,12,0,12,0,4,0,4,0,,,,,,grested,nw,h,lower,,,,,,,3,nw,LoDemNoTar,h,1,0.54641251688372,,,,,,,,,,,,,,,,,,,,336,2023-11-20_13h44.37.529,leap3,2022.2.5,59.923521312797305,
,,,,,,,,,,,,,,,,,,,,12,0,12,0,5,0,5,0,,,,,,blocking,w,g,lower,,,,,,,3,w,LoDemNoTar,g,1,0.4591145476933889,,,,,,,,,,,,,,,,,,,,336,2023-11-20_13h44.37.529,leap3,2022.2.5,59.923521312797305,
,,,,,,,,,,,,,,,,,,,,12,0,12,0,6,0,6,0,,,,,,correct,w,g,lower,,,,,,,3,w,LoDemNoTar,g,1,0.4151829955790163,,,,,,,,,,,,,,,,,,,,336,2023-11-20_13h44.37.529,leap3,2022.2.5,59.923521312797305,
,,,,,,,,,,,,,,,,,,,,12,0,12,0,7,0,7,0,,,,,,senalize,nw,h,lower,,,,,,,3,nw,LoDemNoTar,h,1,0.6293575888703344,,,,,,,,,,,,,,,,,,,,336,2023-11-20_13h44.37.529,leap3,2022.2.5,59.923521312797305,
,,,,,,,,,,,,,,,,,,,,12,0,12,0,8,0,8,0,,,,,,retain,w,g,lower,,,,,,,3,w,LoDemNoTar,g,1,0.5065988028727588,,,,,,,,,,,,,,,,,,,,336,2023-11-20_13h44.37.529,leap3,2022.2.5,59.923521312797305,
,,,,,,,,,,,,,,,,,,,,12,0,12,0,9,0,9,0,,,,,,planofoad,nw,h,lower,,,,,,,3,nw,LoDemNoTar,h,1,0.6278220901440363,,,,,,,,,,,,,,,,,,,,336,2023-11-20_13h44.37.529,leap3,2022.2.5,59.923521312797305,
,,,,,,,,,,,,,,,,,,,,12,0,12,0,10,0,10,0,,,,,,befriend,w,g,lower,,,,,,,3,w,LoDemNoTar,g,1,0.8013543033393944,,,,,,,,,,,,,,,,,,,,336,2023-11-20_13h44.37.529,leap3,2022.2.5,59.923521312797305,
,,,,,,,,,,,,,,,,,,,,12,0,12,0,11,0,11,0,,,,,,traze,nw,h,lower,,,,,,,3,nw,LoDemNoTar,h,1,0.5125544058373634,,,,,,,,,,,,,,,,,,,,336,2023-11-20_13h44.37.529,leap3,2022.2.5,59.923521312797305,
,,,,,,,,,,,,,,,,,,,,12,0,12,0,12,0,12,0,,,,,,mortgage,w,g,lower,,,,,,,3,w,LoDemNoTar,g,1,0.6106637692355434,,,,,,,,,,,,,,,,,,,,336,2023-11-20_13h44.37.529,leap3,2022.2.5,59.923521312797305,
,,,,,,,,,,,,,,,,,,,,12,0,12,0,13,0,13,0,,,,,,cheathe,nw,h,lower,,,,,,,3,nw,LoDemNoTar,h,1,0.68073025123158,,,,,,,,,,,,,,,,,,,,336,2023-11-20_13h44.37.529,leap3,2022.2.5,59.923521312797305,
,,,,,,,,,,,,,,,,,,,,12,0,12,0,14,0,14,0,,,,,,egpended,nw,h,lower,,,,,,,3,nw,LoDemNoTar,h,1,0.5081429093952465,,,,,,,,,,,,,,,,,,,,336,2023-11-20_13h44.37.529,leap3,2022.2.5,59.923521312797305,
,,,,,,,,,,,,,,,,,,,,12,0,12,0,15,0,15,0,,,,,,emission,w,g,lower,,,,,,,3,w,LoDemNoTar,g,1,0.7182135694838507,,,,,,,,,,,,,,,,,,,,336,2023-11-20_13h44.37.529,leap3,2022.2.5,59.923521312797305,
,,,,,,,,,,,,,,,,,,,,12,0,12,0,16,0,16,0,,,,,,spigat,nw,h,lower,,,,,,,3,nw,LoDemNoTar,h,1,0.49628699201457493,,,,,,,,,,,,,,,,,,,,336,2023-11-20_13h44.37.529,leap3,2022.2.5,59.923521312797305,
,,,,,,,,,,,,,,,,,,,,12,0,12,0,17,0,17,0,,,,,,jinds,nw,h,lower,,,,,,,3,nw,LoDemNoTar,h,1,0.4750042116156692,,,,,,,,,,,,,,,,,,,,336,2023-11-20_13h44.37.529,leap3,2022.2.5,59.923521312797305,
,,,,,,,,,,,,,,,,,,,,12,0,12,0,18,0,18,0,,,,,,quittint,nw,h,lower,,,,,,,3,nw,LoDemNoTar,h,1,0.44550859877926996,,,,,,,,,,,,,,,,,,,,336,2023-11-20_13h44.37.529,leap3,2022.2.5,59.923521312797305,
,,,,,,,,,,,,,,,,,,,,12,0,12,0,19,0,19,0,,,,,,release,w,g,lower,,,,,,,3,w,LoDemNoTar,g,1,0.4902304129591357,,,,,,,,,,,,,,,,,,,,336,2023-11-20_13h44.37.529,leap3,2022.2.5,59.923521312797305,
,,,,,,,,,,,,,,,,,,,,12,0,12,0,20,0,20,0,,,,,,causality,w,g,lower,,,,,,,3,w,LoDemNoTar,g,1,0.5169344507103233,,,,,,,,,,,,,,,,,,,,336,2023-11-20_13h44.37.529,leap3,2022.2.5,59.923521312797305,
,,,,,,,,,,,,,,,,,,,,12,0,12,0,21,0,21,0,,,,,,dazid,nw,h,lower,,,,,,,3,nw,LoDemNoTar,h,1,0.5190321048539772,,,,,,,,,,,,,,,,,,,,336,2023-11-20_13h44.37.529,leap3,2022.2.5,59.923521312797305,
,,,,,,,,,,,,,,,,,,,,12,0,12,0,22,0,22,0,,,,,,bellicove,nw,h,lower,,,,,,,3,nw,LoDemNoTar,h,1,0.42456350891552574,,,,,,,,,,,,,,,,,,,,336,2023-11-20_13h44.37.529,leap3,2022.2.5,59.923521312797305,
,,,,,,,,,,,,,,,,,,,,12,0,12,0,23,0,23,0,,,,,,pakened,nw,h,lower,,,,,,,3,nw,LoDemNoTar,h,1,0.4857483987871092,,,,,,,,,,,,,,,,,,,,336,2023-11-20_13h44.37.529,leap3,2022.2.5,59.923521312797305,
,,,,,,,,,,,,,,,,,,,,12,0,12,0,24,0,24,0,,,,,,standard,w,g,lower,,,,,,,3,w,LoDemNoTar,g,1,0.5124564093694062,,,,,,,,,,,,,,,,,,,,336,2023-11-20_13h44.37.529,leap3,2022.2.5,59.923521312797305,
,,,,,,,,,,,,,,,,,,,,12,0,12,0,25,0,25,0,,,,,,handbook,w,g,lower,,,,,,,3,w,LoDemNoTar,g,1,0.6265531020872004,,,,,,,,,,,,,,,,,,,,336,2023-11-20_13h44.37.529,leap3,2022.2.5,59.923521312797305,
,,,,,,,,,,,,,,,,,,,,12,0,12,0,26,0,26,0,,,,,,ipiocy,nw,h,lower,,,,,,,3,nw,LoDemNoTar,h,1,0.5437897870651796,,,,,,,,,,,,,,,,,,,,336,2023-11-20_13h44.37.529,leap3,2022.2.5,59.923521312797305,
,,,,,,,,,,,,,,,,,,,,12,0,12,0,27,0,27,0,,,,,,bengths,nw,h,lower,,,,,,,3,nw,LoDemNoTar,h,1,0.4806711222809099,,,,,,,,,,,,,,,,,,,,336,2023-11-20_13h44.37.529,leap3,2022.2.5,59.923521312797305,
,,,,,,,,,,,,,,,,,,,,12,0,12,0,28,0,28,0,,,,,,provide,w,g,lower,,,,,,,3,w,LoDemNoTar,g,1,0.5551795590818074,,,,,,,,,,,,,,,,,,,,336,2023-11-20_13h44.37.529,leap3,2022.2.5,59.923521312797305,
,,,,,,,,,,,,,,,,,,,,12,0,12,0,29,0,29,0,,,,,,forgive,w,g,lower,,,,,,,3,w,LoDemNoTar,g,1,0.5392329512669676,,,,,,,,,,,,,,,,,,,,336,2023-11-20_13h44.37.529,leap3,2022.2.5,59.923521312797305,
,,,,,,,,,,,,,,,,,,,,12,0,12,0,,,,,,,,,,,,,,,,,,,,,,,,,,,,NA,,,,,,,,,,,,,,,,,336,2023-11-20_13h44.37.529,leap3,2022.2.5,59.923521312797305,
,,,,,,,,,,,,,,,,,,,,13,0,13,0,0,0,0,0,,,,,,defeat,w,g,upper,,,,,,,1,w,HiDemTar,g,1,0.5728477264838148,,,,,,,,,,,,,,,,,,,,336,2023-11-20_13h44.37.529,leap3,2022.2.5,59.923521312797305,
,,,,,,,,,,,,,,,,,,,,13,0,13,0,1,0,1,0,,,,,,derisury,nw,h,upper,,,,,,,1,nw,HiDemTar,h,1,0.4602219740063447,,,,,,,,,,,,,,,,,,,,336,2023-11-20_13h44.37.529,leap3,2022.2.5,59.923521312797305,
,,,,,,,,,,,,,,,,,,,,13,0,13,0,2,0,2,0,,,,,,digar,nw,h,upper,,,,,,,1,nw,HiDemTar,h,1,0.48031125011220865,,,,,,,,,,,,,,,,,,,,336,2023-11-20_13h44.37.529,leap3,2022.2.5,59.923521312797305,
,,,,,,,,,,,,,,,,,,,,13,0,13,0,3,0,3,0,,,,,,congraks,nw,h,upper,,,,,,,1,nw,HiDemTar,h,1,0.5316610687041248,,,,,,,,,,,,,,,,,,,,336,2023-11-20_13h44.37.529,leap3,2022.2.5,59.923521312797305,
,,,,,,,,,,,,,,,,,,,,13,0,13,0,4,0,4,0,,,,,,burning,w,g,upper,,,,,,,1,w,HiDemTar,g,1,0.46812393251093454,,,,,,,,,,,,,,,,,,,,336,2023-11-20_13h44.37.529,leap3,2022.2.5,59.923521312797305,
,,,,,,,,,,,,,,,,,,,,13,0,13,0,5,0,5,0,,,,,,probable,w,g,upper,,,,,,,1,w,HiDemTar,g,1,0.4715001757176651,,,,,,,,,,,,,,,,,,,,336,2023-11-20_13h44.37.529,leap3,2022.2.5,59.923521312797305,
,,,,,,,,,,,,,,,,,,,,13,0,13,0,6,0,6,0,,,,,,rarren,nw,h,upper,,,,,,,1,nw,HiDemTar,h,1,0.6596851784852333,,,,,,,,,,,,,,,,,,,,336,2023-11-20_13h44.37.529,leap3,2022.2.5,59.923521312797305,
,,,,,,,,,,,,,,,,,,,,13,0,13,0,7,0,7,0,,,,,,gettle,nw,h,upper,,,,,,,1,nw,HiDemTar,h,1,0.5515609732574376,,,,,,,,,,,,,,,,,,,,336,2023-11-20_13h44.37.529,leap3,2022.2.5,59.923521312797305,
,,,,,,,,,,,,,,,,,,,,13,0,13,0,8,0,8,0,,,,,,ragtam,nw,h,upper,,,,,,,1,nw,HiDemTar,h,1,0.47236360406532185,,,,,,,,,,,,,,,,,,,,336,2023-11-20_13h44.37.529,leap3,2022.2.5,59.923521312797305,
,,,,,,,,,,,,,,,,,,,,13,0,13,0,9,0,9,0,,,,,,sunhess,nw,h,upper,,,,,,,1,nw,HiDemTar,h,1,0.4757908319188573,,,,,,,,,,,,,,,,,,,,336,2023-11-20_13h44.37.529,leap3,2022.2.5,59.923521312797305,
,,,,,,,,,,,,,,,,,,,,13,0,13,0,10,0,10,0,,,,,,harfing,nw,h,upper,,,,,,,1,nw,HiDemTar,h,1,0.43923516942959395,,,,,,,,,,,,,,,,,,,,336,2023-11-20_13h44.37.529,leap3,2022.2.5,59.923521312797305,
,,,,,,,,,,,,,,,,,,,,13,0,13,0,11,0,11,0,,,,,,combat,w,g,upper,,,,,,,1,w,HiDemTar,g,1,0.5960248845658498,,,,,,,,,,,,,,,,,,,,336,2023-11-20_13h44.37.529,leap3,2022.2.5,59.923521312797305,
,,,,,,,,,,,,,,,,,,,,13,0,13,0,12,0,12,0,,,,,,ements,nw,h,upper,,,,,,,1,nw,HiDemTar,h,1,0.49871439103299053,,,,,,,,,,,,,,,,,,,,336,2023-11-20_13h44.37.529,leap3,2022.2.5,59.923521312797305,
,,,,,,,,,,,,,,,,,,,,13,0,13,0,13,0,13,0,,,,,,whirling,w,g,upper,,,,,,,1,w,HiDemTar,g,1,0.701438295582193,,,,,,,,,,,,,,,,,,,,336,2023-11-20_13h44.37.529,leap3,2022.2.5,59.923521312797305,
,,,,,,,,,,,,,,,,,,,,13,0,13,0,14,0,14,0,,,,,,ladybug,target,q,upper,,,,,,,1,target,HiDemTar,g,0,0.6386305047308269,,,,,,,,,,,,,,,,,,,,336,2023-11-20_13h44.37.529,leap3,2022.2.5,59.923521312797305,
,,,,,,,,,,,,,,,,,,,,13,0,13,0,15,0,15,0,,,,,,efficient,w,g,upper,,,,,,,1,aftertar1,HiDemTar,g,1,0.5872952531826741,,,,,,,,,,,,,,,,,,,,336,2023-11-20_13h44.37.529,leap3,2022.2.5,59.923521312797305,
,,,,,,,,,,,,,,,,,,,,13,0,13,0,16,0,16,0,,,,,,glattery,nw,h,upper,,,,,,,1,aftertar2,HiDemTar,h,1,0.6259985612578021,,,,,,,,,,,,,,,,,,,,336,2023-11-20_13h44.37.529,leap3,2022.2.5,59.923521312797305,
,,,,,,,,,,,,,,,,,,,,13,0,13,0,17,0,17,0,,,,,,outflow,w,g,upper,,,,,,,1,aftertar3,HiDemTar,g,1,0.655408758255362,,,,,,,,,,,,,,,,,,,,336,2023-11-20_13h44.37.529,leap3,2022.2.5,59.923521312797305,
,,,,,,,,,,,,,,,,,,,,13,0,13,0,18,0,18,0,,,,,,aefated,nw,h,upper,,,,,,,1,w,HiDemTar,h,1,0.6835052728583833,,,,,,,,,,,,,,,,,,,,336,2023-11-20_13h44.37.529,leap3,2022.2.5,59.923521312797305,
,,,,,,,,,,,,,,,,,,,,13,0,13,0,19,0,19,0,,,,,,tablet,w,g,upper,,,,,,,1,nw,HiDemTar,g,1,0.6469029296167719,,,,,,,,,,,,,,,,,,,,336,2023-11-20_13h44.37.529,leap3,2022.2.5,59.923521312797305,
,,,,,,,,,,,,,,,,,,,,13,0,13,0,20,0,20,0,,,,,,enabled,w,g,upper,,,,,,,1,w,HiDemTar,g,1,0.7636554590681044,,,,,,,,,,,,,,,,,,,,336,2023-11-20_13h44.37.529,leap3,2022.2.5,59.923521312797305,
,,,,,,,,,,,,,,,,,,,,13,0,13,0,21,0,21,0,,,,,,organize,w,g,upper,,,,,,,1,w,HiDemTar,g,1,0.4356824663664156,,,,,,,,,,,,,,,,,,,,336,2023-11-20_13h44.37.529,leap3,2022.2.5,59.923521312797305,
,,,,,,,,,,,,,,,,,,,,13,0,13,0,22,0,22,0,,,,,,nelvet,nw,h,upper,,,,,,,1,w,HiDemTar,h,1,0.464412316254311,,,,,,,,,,,,,,,,,,,,336,2023-11-20_13h44.37.529,leap3,2022.2.5,59.923521312797305,
,,,,,,,,,,,,,,,,,,,,13,0,13,0,23,0,23,0,,,,,,shests,nw,h,upper,,,,,,,1,nw,HiDemTar,h,1,0.48358022691354563,,,,,,,,,,,,,,,,,,,,336,2023-11-20_13h44.37.529,leap3,2022.2.5,59.923521312797305,
,,,,,,,,,,,,,,,,,,,,13,0,13,0,24,0,24,0,,,,,,haurded,nw,h,upper,,,,,,,1,nw,HiDemTar,h,1,0.5029653189376404,,,,,,,,,,,,,,,,,,,,336,2023-11-20_13h44.37.529,leap3,2022.2.5,59.923521312797305,
,,,,,,,,,,,,,,,,,,,,13,0,13,0,25,0,25,0,,,,,,telecast,w,g,upper,,,,,,,1,nw,HiDemTar,g,1,0.6409685150792939,,,,,,,,,,,,,,,,,,,,336,2023-11-20_13h44.37.529,leap3,2022.2.5,59.923521312797305,
,,,,,,,,,,,,,,,,,,,,13,0,13,0,26,0,26,0,,,,,,destroy,w,g,upper,,,,,,,1,w,HiDemTar,g,1,0.4616740433029918,,,,,,,,,,,,,,,,,,,,336,2023-11-20_13h44.37.529,leap3,2022.2.5,59.923521312797305,
,,,,,,,,,,,,,,,,,,,,13,0,13,0,27,0,27,0,,,,,,footstep,w,g,upper,,,,,,,1,w,HiDemTar,g,1,0.5377567139184976,,,,,,,,,,,,,,,,,,,,336,2023-11-20_13h44.37.529,leap3,2022.2.5,59.923521312797305,
,,,,,,,,,,,,,,,,,,,,13,0,13,0,28,0,28,0,,,,,,bookend,w,g,upper,,,,,,,1,w,HiDemTar,g,1,0.5304708751045837,,,,,,,,,,,,,,,,,,,,336,2023-11-20_13h44.37.529,leap3,2022.2.5,59.923521312797305,
,,,,,,,,,,,,,,,,,,,,13,0,13,0,29,0,29,0,,,,,,egect,nw,h,upper,,,,,,,1,w,HiDemTar,h,1,0.5239249758433289,,,,,,,,,,,,,,,,,,,,336,2023-11-20_13h44.37.529,leap3,2022.2.5,59.923521312797305,
,,,,,,,,,,,,,,,,,,,,13,0,13,0,,,,,,,,,,,,,,,,,,,,,,,,,,,,0,,,,,,,,,,,,,,,,,336,2023-11-20_13h44.37.529,leap3,2022.2.5,59.923521312797305,
,,,,,,,,,,,,,,,,,,,,14,0,14,0,0,0,0,0,,,,,,practice,w,g,upper,,,,,,,2,w,HiDemNoTar,g,1,0.46106355178926606,,,,,,,,,,,,,,,,,,,,336,2023-11-20_13h44.37.529,leap3,2022.2.5,59.923521312797305,
,,,,,,,,,,,,,,,,,,,,14,0,14,0,1,0,1,0,,,,,,grieving,w,g,upper,,,,,,,2,w,HiDemNoTar,g,1,0.4325932601132081,,,,,,,,,,,,,,,,,,,,336,2023-11-20_13h44.37.529,leap3,2022.2.5,59.923521312797305,
,,,,,,,,,,,,,,,,,,,,14,0,14,0,2,0,2,0,,,,,,disperse,w,g,upper,,,,,,,2,w,HiDemNoTar,g,1,0.4705990054862923,,,,,,,,,,,,,,,,,,,,336,2023-11-20_13h44.37.529,leap3,2022.2.5,59.923521312797305,
,,,,,,,,,,,,,,,,,,,,14,0,14,0,3,0,3,0,,,,,,happen,w,g,upper,,,,,,,2,w,HiDemNoTar,g,1,0.44196417244529584,,,,,,,,,,,,,,,,,,,,336,2023-11-20_13h44.37.529,leap3,2022.2.5,59.923521312797305,
,,,,,,,,,,,,,,,,,,,,14,0,14,0,4,0,4,0,,,,,,warden,w,g,upper,,,,,,,2,w,HiDemNoTar,g,1,0.3661847611710982,,,,,,,,,,,,,,,,,,,,336,2023-11-20_13h44.37.529,leap3,2022.2.5,59.923521312797305,
,,,,,,,,,,,,,,,,,,,,14,0,14,0,5,0,5,0,,,,,,standard,w,g,upper,,,,,,,2,w,HiDemNoTar,g,1,0.35137934872182086,,,,,,,,,,,,,,,,,,,,336,2023-11-20_13h44.37.529,leap3,2022.2.5,59.923521312797305,
,,,,,,,,,,,,,,,,,,,,14,0,14,0,6,0,6,0,,,,,,huests,nw,h,upper,,,,,,,2,nw,HiDemNoTar,h,1,0.5196664333470835,,,,,,,,,,,,,,,,,,,,336,2023-11-20_13h44.37.529,leap3,2022.2.5,59.923521312797305,
,,,,,,,,,,,,,,,,,,,,14,0,14,0,7,0,7,0,,,,,,serfume,nw,h,upper,,,,,,,2,nw,HiDemNoTar,h,1,0.5049566998823138,,,,,,,,,,,,,,,,,,,,336,2023-11-20_13h44.37.529,leap3,2022.2.5,59.923521312797305,
,,,,,,,,,,,,,,,,,,,,14,0,14,0,8,0,8,0,,,,,,arpired,nw,h,upper,,,,,,,2,nw,HiDemNoTar,h,1,0.6430598789083888,,,,,,,,,,,,,,,,,,,,336,2023-11-20_13h44.37.529,leap3,2022.2.5,59.923521312797305,
,,,,,,,,,,,,,,,,,,,,14,0,14,0,9,0,9,0,,,,,,peags,nw,h,upper,,,,,,,2,nw,HiDemNoTar,h,1,0.4308243576379027,,,,,,,,,,,,,,,,,,,,336,2023-11-20_13h44.37.529,leap3,2022.2.5,59.923521312797305,
,,,,,,,,,,,,,,,,,,,,14,0,14,0,10,0,10,0,,,,,,sprea,nw,h,upper,,,,,,,2,nw,HiDemNoTar,h,1,0.40418256088560156,,,,,,,,,,,,,,,,,,,,336,2023-11-20_13h44.37.529,leap3,2022.2.5,59.923521312797305,
,,,,,,,,,,,,,,,,,,,,14,0,14,0,11,0,11,0,,,,,,poars,nw,h,upper,,,,,,,2,nw,HiDemNoTar,h,1,0.46630901142452785,,,,,,,,,,,,,,,,,,,,336,2023-11-20_13h44.37.529,leap3,2022.2.5,59.923521312797305,
,,,,,,,,,,,,,,,,,,,,14,0,14,0,12,0,12,0,,,,,,wimpid,nw,h,upper,,,,,,,2,nw,HiDemNoTar,h,1,0.4382806970661477,,,,,,,,,,,,,,,,,,,,336,2023-11-20_13h44.37.529,leap3,2022.2.5,59.923521312797305,
,,,,,,,,,,,,,,,,,,,,14,0,14,0,13,0,13,0,,,,,,prawls,nw,h,upper,,,,,,,2,nw,HiDemNoTar,g,0,0.6510068628176668,,,,,,,,,,,,,,,,,,,,336,2023-11-20_13h44.37.529,leap3,2022.2.5,59.923521312797305,
,,,,,,,,,,,,,,,,,,,,14,0,14,0,14,0,14,0,,,,,,pracking,nw,h,upper,,,,,,,2,nw,HiDemNoTar,g,0,0.4310819294387329,,,,,,,,,,,,,,,,,,,,336,2023-11-20_13h44.37.529,leap3,2022.2.5,59.923521312797305,
,,,,,,,,,,,,,,,,,,,,14,0,14,0,15,0,15,0,,,,,,deeper,w,g,upper,,,,,,,2,w,HiDemNoTar,g,1,0.45255176390674023,,,,,,,,,,,,,,,,,,,,336,2023-11-20_13h44.37.529,leap3,2022.2.5,59.923521312797305,
,,,,,,,,,,,,,,,,,,,,14,0,14,0,16,0,16,0,,,,,,selongs,nw,h,upper,,,,,,,2,nw,HiDemNoTar,h,1,0.521060565544758,,,,,,,,,,,,,,,,,,,,336,2023-11-20_13h44.37.529,leap3,2022.2.5,59.923521312797305,
,,,,,,,,,,,,,,,,,,,,14,0,14,0,17,0,17,0,,,,,,gallon,w,g,upper,,,,,,,2,w,HiDemNoTar,g,1,0.5866298041892151,,,,,,,,,,,,,,,,,,,,336,2023-11-20_13h44.37.529,leap3,2022.2.5,59.923521312797305,
,,,,,,,,,,,,,,,,,,,,14,0,14,0,18,0,18,0,,,,,,draze,nw,h,upper,,,,,,,2,nw,HiDemNoTar,h,1,0.7133720142137463,,,,,,,,,,,,,,,,,,,,336,2023-11-20_13h44.37.529,leap3,2022.2.5,59.923521312797305,
,,,,,,,,,,,,,,,,,,,,14,0,14,0,19,0,19,0,,,,,,posing,w,g,upper,,,,,,,2,w,HiDemNoTar,h,0,0.4904648099163751,,,,,,,,,,,,,,,,,,,,336,2023-11-20_13h44.37.529,leap3,2022.2.5,59.923521312797305,
,,,,,,,,,,,,,,,,,,,,14,0,14,0,20,0,20,0,,,,,,affluent,w,g,upper,,,,,,,2,w,HiDemNoTar,g,1,0.5411422270608455,,,,,,,,,,,,,,,,,,,,336,2023-11-20_13h44.37.529,leap3,2022.2.5,59.923521312797305,
,,,,,,,,,,,,,,,,,,,,14,0,14,0,21,0,21,0,,,,,,audience,w,g,upper,,,,,,,2,w,HiDemNoTar,g,1,0.48581626796294586,,,,,,,,,,,,,,,,,,,,336,2023-11-20_13h44.37.529,leap3,2022.2.5,59.923521312797305,
,,,,,,,,,,,,,,,,,,,,14,0,14,0,22,0,22,0,,,,,,vented,w,g,upper,,,,,,,2,w,HiDemNoTar,g,1,0.6085445955977775,,,,,,,,,,,,,,,,,,,,336,2023-11-20_13h44.37.529,leap3,2022.2.5,59.923521312797305,
,,,,,,,,,,,,,,,,,,,,14,0,14,0,23,0,23,0,,,,,,legalosm,nw,h,upper,,,,,,,2,nw,HiDemNoTar,h,1,0.4306088316207024,,,,,,,,,,,,,,,,,,,,336,2023-11-20_13h44.37.529,leap3,2022.2.5,59.923521312797305,
,,,,,,,,,,,,,,,,,,,,14,0,14,0,24,0,24,0,,,,,,design,w,g,upper,,,,,,,2,w,HiDemNoTar,g,1,0.5240229723131051,,,,,,,,,,,,,,,,,,,,336,2023-11-20_13h44.37.529,leap3,2022.2.5,59.923521312797305,
,,,,,,,,,,,,,,,,,,,,14,0,14,0,25,0,25,0,,,,,,blueberry,w,g,upper,,,,,,,2,w,HiDemNoTar,g,1,0.8936649905481318,,,,,,,,,,,,,,,,,,,,336,2023-11-20_13h44.37.529,leap3,2022.2.5,59.923521312797305,
,,,,,,,,,,,,,,,,,,,,14,0,14,0,26,0,26,0,,,,,,nameplate,w,g,upper,,,,,,,2,w,HiDemNoTar,g,1,0.5842957666718576,,,,,,,,,,,,,,,,,,,,336,2023-11-20_13h44.37.529,leap3,2022.2.5,59.923521312797305,
,,,,,,,,,,,,,,,,,,,,14,0,14,0,27,0,27,0,,,,,,lecked,nw,h,upper,,,,,,,2,nw,HiDemNoTar,h,1,0.5820703198351111,,,,,,,,,,,,,,,,,,,,336,2023-11-20_13h44.37.529,leap3,2022.2.5,59.923521312797305,
,,,,,,,,,,,,,,,,,,,,14,0,14,0,28,0,28,0,,,,,,moozy,nw,h,upper,,,,,,,2,nw,HiDemNoTar,h,1,0.4134627602688852,,,,,,,,,,,,,,,,,,,,336,2023-11-20_13h44.37.529,leap3,2022.2.5,59.923521312797305,
,,,,,,,,,,,,,,,,,,,,14,0,14,0,29,0,29,0,,,,,,temelity,nw,h,upper,,,,,,,2,nw,HiDemNoTar,h,1,0.4754001703204267,,,,,,,,,,,,,,,,,,,,336,2023-11-20_13h44.37.529,leap3,2022.2.5,59.923521312797305,
,,,,,,,,,,,,,,,,,,,,14,0,14,0,,,,,,,,,,,,,,,,,,,,,,,,,,,,NA,,,,,,,,,,,,,,,,,336,2023-11-20_13h44.37.529,leap3,2022.2.5,59.923521312797305,
,,,,,,,,,,,,,,,,,,,,15,0,15,0,0,0,0,0,,,,,,volder,nw,h,upper,,,,,,,1,nw,HiDemTar,h,1,0.5518589354924188,,,,,,,,,,,,,,,,,,,,336,2023-11-20_13h44.37.529,leap3,2022.2.5,59.923521312797305,
,,,,,,,,,,,,,,,,,,,,15,0,15,0,1,0,1,0,,,,,,atabaster,nw,h,upper,,,,,,,1,nw,HiDemTar,h,1,0.6238515778131841,,,,,,,,,,,,,,,,,,,,336,2023-11-20_13h44.37.529,leap3,2022.2.5,59.923521312797305,
,,,,,,,,,,,,,,,,,,,,15,0,15,0,2,0,2,0,,,,,,gigoho,nw,h,upper,,,,,,,1,nw,HiDemTar,h,1,0.4931818944442057,,,,,,,,,,,,,,,,,,,,336,2023-11-20_13h44.37.529,leap3,2022.2.5,59.923521312797305,
,,,,,,,,,,,,,,,,,,,,15,0,15,0,3,0,3,0,,,,,,aqueduct,w,g,upper,,,,,,,1,w,HiDemTar,h,0,0.4399754400510574,,,,,,,,,,,,,,,,,,,,336,2023-11-20_13h44.37.529,leap3,2022.2.5,59.923521312797305,
,,,,,,,,,,,,,,,,,,,,15,0,15,0,4,0,4,0,,,,,,aligning,w,g,upper,,,,,,,1,w,HiDemTar,g,1,0.6517809024935559,,,,,,,,,,,,,,,,,,,,336,2023-11-20_13h44.37.529,leap3,2022.2.5,59.923521312797305,
,,,,,,,,,,,,,,,,,,,,15,0,15,0,5,0,5,0,,,,,,noils,nw,h,upper,,,,,,,1,nw,HiDemTar,h,1,0.4557919376911741,,,,,,,,,,,,,,,,,,,,336,2023-11-20_13h44.37.529,leap3,2022.2.5,59.923521312797305,
,,,,,,,,,,,,,,,,,,,,15,0,15,0,6,0,6,0,,,,,,permute,w,g,upper,,,,,,,1,w,HiDemTar,h,0,0.5877478247130057,,,,,,,,,,,,,,,,,,,,336,2023-11-20_13h44.37.529,leap3,2022.2.5,59.923521312797305,
,,,,,,,,,,,,,,,,,,,,15,0,15,0,7,0,7,0,,,,,,snocks,nw,h,upper,,,,,,,1,nw,HiDemTar,h,1,0.530600323143517,,,,,,,,,,,,,,,,,,,,336,2023-11-20_13h44.37.529,leap3,2022.2.5,59.923521312797305,
,,,,,,,,,,,,,,,,,,,,15,0,15,0,8,0,8,0,,,,,,vaporize,w,g,upper,,,,,,,1,w,HiDemTar,g,1,0.6119628845845,,,,,,,,,,,,,,,,,,,,336,2023-11-20_13h44.37.529,leap3,2022.2.5,59.923521312797305,
,,,,,,,,,,,,,,,,,,,,15,0,15,0,9,0,9,0,,,,,,unsmilung,nw,h,upper,,,,,,,1,nw,HiDemTar,h,1,0.6020126012390392,,,,,,,,,,,,,,,,,,,,336,2023-11-20_13h44.37.529,leap3,2022.2.5,59.923521312797305,
,,,,,,,,,,,,,,,,,,,,15,0,15,0,10,0,10,0,,,,,,roodies,nw,h,upper,,,,,,,1,nw,HiDemTar,h,1,1.1441810445885494,,,,,,,,,,,,,,,,,,,,336,2023-11-20_13h44.37.529,leap3,2022.2.5,59.923521312797305,
,,,,,,,,,,,,,,,,,,,,15,0,15,0,11,0,11,0,,,,,,measure,w,g,upper,,,,,,,1,w,HiDemTar,g,1,0.5688719170448167,,,,,,,,,,,,,,,,,,,,336,2023-11-20_13h44.37.529,leap3,2022.2.5,59.923521312797305,
,,,,,,,,,,,,,,,,,,,,15,0,15,0,12,0,12,0,,,,,,guffy,nw,h,upper,,,,,,,1,nw,HiDemTar,h,1,0.5522684680327075,,,,,,,,,,,,,,,,,,,,336,2023-11-20_13h44.37.529,leap3,2022.2.5,59.923521312797305,
,,,,,,,,,,,,,,,,,,,,15,0,15,0,13,0,13,0,,,,,,failure,w,g,upper,,,,,,,1,w,HiDemTar,g,1,0.5195565183912549,,,,,,,,,,,,,,,,,,,,336,2023-11-20_13h44.37.529,leap3,2022.2.5,59.923521312797305,
,,,,,,,,,,,,,,,,,,,,15,0,15,0,14,0,14,0,,,,,,detrabe,nw,h,upper,,,,,,,1,nw,HiDemTar,h,1,0.5768331369290536,,,,,,,,,,,,,,,,,,,,336,2023-11-20_13h44.37.529,leap3,2022.2.5,59.923521312797305,
,,,,,,,,,,,,,,,,,,,,15,0,15,0,15,0,15,0,,,,,,listless,w,g,upper,,,,,,,1,w,HiDemTar,g,1,0.6241657624377694,,,,,,,,,,,,,,,,,,,,336,2023-11-20_13h44.37.529,leap3,2022.2.5,59.923521312797305,
,,,,,,,,,,,,,,,,,,,,15,0,15,0,16,0,16,0,,,,,,prama,nw,h,upper,,,,,,,1,nw,HiDemTar,h,1,0.5815459062996524,,,,,,,,,,,,,,,,,,,,336,2023-11-20_13h44.37.529,leap3,2022.2.5,59.923521312797305,
,,,,,,,,,,,,,,,,,,,,15,0,15,0,17,0,17,0,,,,,,filny,nw,h,upper,,,,,,,1,nw,HiDemTar,h,1,0.48496111634449335,,,,,,,,,,,,,,,,,,,,336,2023-11-20_13h44.37.529,leap3,2022.2.5,59.923521312797305,
,,,,,,,,,,,,,,,,,,,,15,0,15,0,18,0,18,0,,,,,,ausht,nw,h,upper,,,,,,,1,nw,HiDemTar,h,1,0.39972041086366517,,,,,,,,,,,,,,,,,,,,336,2023-11-20_13h44.37.529,leap3,2022.2.5,59.923521312797305,
,,,,,,,,,,,,,,,,,,,,15,0,15,0,19,0,19,0,,,,,,target,w,g,upper,,,,,,,1,w,HiDemTar,g,1,0.614396904986279,,,,,,,,,,,,,,,,,,,,336,2023-11-20_13h44.37.529,leap3,2022.2.5,59.923521312797305,
,,,,,,,,,,,,,,,,,,,,15,0,15,0,20,0,20,0,,,,,,overflow,w,g,upper,,,,,,,1,w,HiDemTar,g,1,0.47653176467974845,,,,,,,,,,,,,,,,,,,,336,2023-11-20_13h44.37.529,leap3,2022.2.5,59.923521312797305,
,,,,,,,,,,,,,,,,,,,,15,0,15,0,21,0,21,0,,,,,,system,w,g,upper,,,,,,,1,w,HiDemTar,g,1,0.42383912961122405,,,,,,,,,,,,,,,,,,,,336,2023-11-20_13h44.37.529,leap3,2022.2.5,59.923521312797305,
,,,,,,,,,,,,,,,,,,,,15,0,15,0,22,0,22,0,,,,,,buaint,nw,h,upper,,,,,,,1,nw,HiDemTar,h,1,0.5732850688327744,,,,,,,,,,,,,,,,,,,,336,2023-11-20_13h44.37.529,leap3,2022.2.5,59.923521312797305,
,,,,,,,,,,,,,,,,,,,,15,0,15,0,23,0,23,0,,,,,,ready,w,g,upper,,,,,,,1,w,HiDemTar,g,1,0.5317640312096046,,,,,,,,,,,,,,,,,,,,336,2023-11-20_13h44.37.529,leap3,2022.2.5,59.923521312797305,
,,,,,,,,,,,,,,,,,,,,15,0,15,0,24,0,24,0,,,,,,paterways,nw,h,upper,,,,,,,1,nw,HiDemTar,h,1,0.5971134399369475,,,,,,,,,,,,,,,,,,,,336,2023-11-20_13h44.37.529,leap3,2022.2.5,59.923521312797305,
,,,,,,,,,,,,,,,,,,,,15,0,15,0,25,0,25,0,,,,,,melodic,w,g,upper,,,,,,,1,w,HiDemTar,g,1,0.515862448799453,,,,,,,,,,,,,,,,,,,,336,2023-11-20_13h44.37.529,leap3,2022.2.5,59.923521312797305,
,,,,,,,,,,,,,,,,,,,,15,0,15,0,26,0,26,0,,,,,,squirrel,target,q,upper,,,,,,,1,target,HiDemTar,g,0,0.4618260040442692,1,1,,,,,,,,,,,,,,,,,,336,2023-11-20_13h44.37.529,leap3,2022.2.5,59.923521312797305,
,,,,,,,,,,,,,,,,,,,,15,0,15,0,27,0,27,0,,,,,,landing,w,g,upper,,,,,,,1,aftertar1,HiDemTar,g,1,0.8337924587940506,,,,,,,,,,,,,,,,,,,,336,2023-11-20_13h44.37.529,leap3,2022.2.5,59.923521312797305,
,,,,,,,,,,,,,,,,,,,,15,0,15,0,28,0,28,0,,,,,,dishwater,w,g,upper,,,,,,,1,aftertar2,HiDemTar,g,1,0.5838726602960378,,,,,,,,,,,,,,,,,,,,336,2023-11-20_13h44.37.529,leap3,2022.2.5,59.923521312797305,
,,,,,,,,,,,,,,,,,,,,15,0,15,0,29,0,29,0,,,,,,tinion,nw,h,upper,,,,,,,1,aftertar3,HiDemTar,h,1,0.6074093594761507,,,,,,,,,,,,,,,,,,,,336,2023-11-20_13h44.37.529,leap3,2022.2.5,59.923521312797305,
,,,,,,,,,,,,,,,,,,,,15,0,15,0,,,,,,,,,,,,,,,,,,,,,,,,,,,,1,,,,,,,,,,,,,,,,,336,2023-11-20_13h44.37.529,leap3,2022.2.5,59.923521312797305,
,,,,,,,,,,,,,,,,,,,,16,0,16,0,0,0,0,0,,,,,,minister,w,g,upper,,,,,,,1,w,HiDemTar,g,1,0.5010414760963613,,,,,,,,,,,,,,,,,,,,336,2023-11-20_13h44.37.529,leap3,2022.2.5,59.923521312797305,
,,,,,,,,,,,,,,,,,,,,16,0,16,0,1,0,1,0,,,,,,function,w,g,upper,,,,,,,1,w,HiDemTar,g,1,0.3830149925524893,,,,,,,,,,,,,,,,,,,,336,2023-11-20_13h44.37.529,leap3,2022.2.5,59.923521312797305,
