demoRace_loop.thisRepN,demoRace_loop.thisTrialN,demoRace_loop.thisN,demoRace_loop.thisIndex,LDTunderstand.thisRepN,LDTunderstand.thisTrialN,LDTunderstand.thisN,LDTunderstand.thisIndex,pracBlocks.thisRepN,pracBlocks.thisTrialN,pracBlocks.thisN,pracBlocks.thisIndex,pracTrial.thisRepN,pracTrial.thisTrialN,pracTrial.thisN,pracTrial.thisIndex,PMunderstand.thisRepN,PMunderstand.thisTrialN,PMunderstand.thisN,PMunderstand.thisIndex,LDT_block.thisRepN,LDT_block.thisTrialN,LDT_block.thisN,LDT_block.thisIndex,LDT_trial.thisRepN,LDT_trial.thisTrialN,LDT_trial.thisN,LDT_trial.thisIndex,ageTextbox.text,genderTextbox.text,race,raceResp,LDTunderstand,stim,word_type,corr_key,stim_location,LDTpracKey.keys,LDTpracKey.corr,LDTpracKey.rt,PMunderstand,cueTextbox.text,intentionTextbox.text,block_type,role,block_desc,LDTResp.keys,LDTResp.corr,LDTResp.rt,PM_accuracy,pressedQ,pressedQ_blank,postQ1,Q2Textbox.text,Q3Textbox.text,Q4,Q5,Q6Key.keys,Q6Key.rt,postQ7_correct,postQ7,Q8Textbox.text,education,medTextbox.text,health,healthLimit,psych,participant,date,expName,psychopyVersion,frameRate,
0,0,0,0,,,,,,,,,,,,,,,,,,,,,,,,,"
22 ",Female,American Indian or Alaska Native,n,,,,,,,,,,,,,,,,,,,,,,,,,,,,,,,,,,,,337,2023-11-20_13h36.10.656,leap3,2022.2.5,60.03416591635884,
1,0,1,0,,,,,,,,,,,,,,,,,,,,,,,,,,,Asian,n,,,,,,,,,,,,,,,,,,,,,,,,,,,,,,,,,,,,337,2023-11-20_13h36.10.656,leap3,2022.2.5,60.03416591635884,
2,0,2,0,,,,,,,,,,,,,,,,,,,,,,,,,,,Black or African American,n,,,,,,,,,,,,,,,,,,,,,,,,,,,,,,,,,,,,337,2023-11-20_13h36.10.656,leap3,2022.2.5,60.03416591635884,
3,0,3,0,,,,,,,,,,,,,,,,,,,,,,,,,,,Native Hawaiian or other Pacific Islander,n,,,,,,,,,,,,,,,,,,,,,,,,,,,,,,,,,,,,337,2023-11-20_13h36.10.656,leap3,2022.2.5,60.03416591635884,
4,0,4,0,,,,,,,,,,,,,,,,,,,,,,,,,,,White,y,,,,,,,,,,,,,,,,,,,,,,,,,,,,,,,,,,,,337,2023-11-20_13h36.10.656,leap3,2022.2.5,60.03416591635884,
,,,,0,0,0,0,,,,,,,,,,,,,,,,,,,,,,,,,y,,,,,,,,,,,,,,,,,,,,,,,,,,,,,,,,,,,337,2023-11-20_13h36.10.656,leap3,2022.2.5,60.03416591635884,
,,,,,,,,0,0,0,0,0,0,0,0,,,,,,,,,,,,,,,,,,umpire,w,g,lower,g,1,0.5883593158087024,,,,,,,,,,,,,,,,,,,,,,,,,,,,337,2023-11-20_13h36.10.656,leap3,2022.2.5,60.03416591635884,
,,,,,,,,0,0,0,0,1,0,1,0,,,,,,,,,,,,,,,,,,revival,w,g,lower,g,1,0.4899708611173992,,,,,,,,,,,,,,,,,,,,,,,,,,,,337,2023-11-20_13h36.10.656,leap3,2022.2.5,60.03416591635884,
,,,,,,,,0,0,0,0,2,0,2,0,,,,,,,,,,,,,,,,,,grutch,nw,h,lower,h,1,0.47610469184883186,,,,,,,,,,,,,,,,,,,,,,,,,,,,337,2023-11-20_13h36.10.656,leap3,2022.2.5,60.03416591635884,
,,,,,,,,0,0,0,0,3,0,3,0,,,,,,,,,,,,,,,,,,alolition,nw,h,lower,g,0,0.7563173177009048,,,,,,,,,,,,,,,,,,,,,,,,,,,,337,2023-11-20_13h36.10.656,leap3,2022.2.5,60.03416591635884,
,,,,,,,,0,0,0,0,4,0,4,0,,,,,,,,,,,,,,,,,,crinklo,nw,h,lower,h,1,0.6949831156421169,,,,,,,,,,,,,,,,,,,,,,,,,,,,337,2023-11-20_13h36.10.656,leap3,2022.2.5,60.03416591635884,
,,,,,,,,0,0,0,0,5,0,5,0,,,,,,,,,,,,,,,,,,grocus,nw,h,lower,h,1,0.7143360939567174,,,,,,,,,,,,,,,,,,,,,,,,,,,,337,2023-11-20_13h36.10.656,leap3,2022.2.5,60.03416591635884,
,,,,,,,,0,0,0,0,6,0,6,0,,,,,,,,,,,,,,,,,,treeps,nw,h,lower,g,0,0.6455713758637103,,,,,,,,,,,,,,,,,,,,,,,,,,,,337,2023-11-20_13h36.10.656,leap3,2022.2.5,60.03416591635884,
,,,,,,,,0,0,0,0,7,0,7,0,,,,,,,,,,,,,,,,,,hiring,w,g,lower,g,1,0.5062223836216617,,,,,,,,,,,,,,,,,,,,,,,,,,,,337,2023-11-20_13h36.10.656,leap3,2022.2.5,60.03416591635884,
,,,,,,,,0,0,0,0,8,0,8,0,,,,,,,,,,,,,,,,,,trotch,nw,h,lower,h,1,0.611358358687994,,,,,,,,,,,,,,,,,,,,,,,,,,,,337,2023-11-20_13h36.10.656,leap3,2022.2.5,60.03416591635884,
,,,,,,,,0,0,0,0,9,0,9,0,,,,,,,,,,,,,,,,,,infinity,w,g,lower,g,1,0.5526909186437479,,,,,,,,,,,,,,,,,,,,,,,,,,,,337,2023-11-20_13h36.10.656,leap3,2022.2.5,60.03416591635884,
,,,,,,,,0,0,0,0,10,0,10,0,,,,,,,,,,,,,,,,,,tricycle,w,g,lower,g,1,0.70548860195413,,,,,,,,,,,,,,,,,,,,,,,,,,,,337,2023-11-20_13h36.10.656,leap3,2022.2.5,60.03416591635884,
,,,,,,,,0,0,0,0,11,0,11,0,,,,,,,,,,,,,,,,,,summary,w,g,lower,g,1,0.5955822514852116,,,,,,,,,,,,,,,,,,,,,,,,,,,,337,2023-11-20_13h36.10.656,leap3,2022.2.5,60.03416591635884,
,,,,,,,,0,0,0,0,12,0,12,0,,,,,,,,,,,,,,,,,,lumbigo,nw,h,lower,h,1,0.586322909458886,,,,,,,,,,,,,,,,,,,,,,,,,,,,337,2023-11-20_13h36.10.656,leap3,2022.2.5,60.03416591635884,
,,,,,,,,0,0,0,0,13,0,13,0,,,,,,,,,,,,,,,,,,slumber,w,g,lower,g,1,0.5130311517896189,,,,,,,,,,,,,,,,,,,,,,,,,,,,337,2023-11-20_13h36.10.656,leap3,2022.2.5,60.03416591635884,
,,,,,,,,0,0,0,0,,,,,,,,,,,,,,,,,,,,,,,,,,,,,,,,,,,,,,,,,,,,,,,,,,,,,,,,337,2023-11-20_13h36.10.656,leap3,2022.2.5,60.03416591635884,
,,,,,,,,1,0,1,0,0,0,0,0,,,,,,,,,,,,,,,,,,unscrew,w,g,upper,g,1,0.4748896680634971,,,,,,,,,,,,,,,,,,,,,,,,,,,,337,2023-11-20_13h36.10.656,leap3,2022.2.5,60.03416591635884,
,,,,,,,,1,0,1,0,1,0,1,0,,,,,,,,,,,,,,,,,,sponsor,w,g,upper,g,1,0.4463114478448915,,,,,,,,,,,,,,,,,,,,,,,,,,,,337,2023-11-20_13h36.10.656,leap3,2022.2.5,60.03416591635884,
,,,,,,,,1,0,1,0,2,0,2,0,,,,,,,,,,,,,,,,,,lurshing,nw,h,upper,h,1,0.5149692306017641,,,,,,,,,,,,,,,,,,,,,,,,,,,,337,2023-11-20_13h36.10.656,leap3,2022.2.5,60.03416591635884,
,,,,,,,,1,0,1,0,3,0,3,0,,,,,,,,,,,,,,,,,,hasking,nw,h,upper,h,1,0.6689951804637531,,,,,,,,,,,,,,,,,,,,,,,,,,,,337,2023-11-20_13h36.10.656,leap3,2022.2.5,60.03416591635884,
,,,,,,,,1,0,1,0,4,0,4,0,,,,,,,,,,,,,,,,,,turative,nw,h,upper,h,1,0.767413431379282,,,,,,,,,,,,,,,,,,,,,,,,,,,,337,2023-11-20_13h36.10.656,leap3,2022.2.5,60.03416591635884,
,,,,,,,,1,0,1,0,5,0,5,0,,,,,,,,,,,,,,,,,,latador,nw,h,upper,h,1,0.7098030951356122,,,,,,,,,,,,,,,,,,,,,,,,,,,,337,2023-11-20_13h36.10.656,leap3,2022.2.5,60.03416591635884,
,,,,,,,,1,0,1,0,6,0,6,0,,,,,,,,,,,,,,,,,,raestro,nw,h,upper,h,1,0.593728595306402,,,,,,,,,,,,,,,,,,,,,,,,,,,,337,2023-11-20_13h36.10.656,leap3,2022.2.5,60.03416591635884,
,,,,,,,,1,0,1,0,7,0,7,0,,,,,,,,,,,,,,,,,,reputable,w,g,upper,g,1,0.5605326225640965,,,,,,,,,,,,,,,,,,,,,,,,,,,,337,2023-11-20_13h36.10.656,leap3,2022.2.5,60.03416591635884,
,,,,,,,,1,0,1,0,8,0,8,0,,,,,,,,,,,,,,,,,,julled,nw,h,upper,h,1,0.6167379013295431,,,,,,,,,,,,,,,,,,,,,,,,,,,,337,2023-11-20_13h36.10.656,leap3,2022.2.5,60.03416591635884,
,,,,,,,,1,0,1,0,9,0,9,0,,,,,,,,,,,,,,,,,,overshoot,w,g,upper,g,1,0.5177521978885125,,,,,,,,,,,,,,,,,,,,,,,,,,,,337,2023-11-20_13h36.10.656,leap3,2022.2.5,60.03416591635884,
,,,,,,,,1,0,1,0,10,0,10,0,,,,,,,,,,,,,,,,,,picture,w,g,upper,g,1,0.45518112148010914,,,,,,,,,,,,,,,,,,,,,,,,,,,,337,2023-11-20_13h36.10.656,leap3,2022.2.5,60.03416591635884,
,,,,,,,,1,0,1,0,11,0,11,0,,,,,,,,,,,,,,,,,,grimace,w,g,upper,g,1,0.5713483206714045,,,,,,,,,,,,,,,,,,,,,,,,,,,,337,2023-11-20_13h36.10.656,leap3,2022.2.5,60.03416591635884,
,,,,,,,,1,0,1,0,12,0,12,0,,,,,,,,,,,,,,,,,,curlecs,nw,h,upper,h,1,0.5306685297614422,,,,,,,,,,,,,,,,,,,,,,,,,,,,337,2023-11-20_13h36.10.656,leap3,2022.2.5,60.03416591635884,
,,,,,,,,1,0,1,0,13,0,13,0,,,,,,,,,,,,,,,,,,busted,w,g,upper,g,1,0.428135089294301,,,,,,,,,,,,,,,,,,,,,,,,,,,,337,2023-11-20_13h36.10.656,leap3,2022.2.5,60.03416591635884,
,,,,,,,,1,0,1,0,,,,,,,,,,,,,,,,,,,,,,,,,,,,,,,,,,,,,,,,,,,,,,,,,,,,,,,,337,2023-11-20_13h36.10.656,leap3,2022.2.5,60.03416591635884,
,,,,,,,,,,,,,,,,0,0,0,0,,,,,,,,,,,,,,,,,,,,,y,,,,,,,,,,,,,,,,,,,,,,,,,,,337,2023-11-20_13h36.10.656,leap3,2022.2.5,60.03416591635884,
,,,,,,,,,,,,,,,,,,,,0,0,0,0,0,0,0,0,,,,,,chrik,nw,h,upper,,,,,animal,"
q ",3,nw,LoDemNoTar,h,1,0.7340621872049269,,,,,,,,,,,,,,,,,,,337,2023-11-20_13h36.10.656,leap3,2022.2.5,60.03416591635884,
,,,,,,,,,,,,,,,,,,,,0,0,0,0,1,0,1,0,,,,,,puggers,nw,h,upper,,,,,,,3,nw,LoDemNoTar,h,1,0.6875022770964279,,,,,,,,,,,,,,,,,,,337,2023-11-20_13h36.10.656,leap3,2022.2.5,60.03416591635884,
,,,,,,,,,,,,,,,,,,,,0,0,0,0,2,0,2,0,,,,,,reloant,nw,h,upper,,,,,,,3,nw,LoDemNoTar,h,1,0.7229286627120928,,,,,,,,,,,,,,,,,,,337,2023-11-20_13h36.10.656,leap3,2022.2.5,60.03416591635884,
,,,,,,,,,,,,,,,,,,,,0,0,0,0,3,0,3,0,,,,,,lecked,nw,h,upper,,,,,,,3,nw,LoDemNoTar,h,1,0.5960513764725874,,,,,,,,,,,,,,,,,,,337,2023-11-20_13h36.10.656,leap3,2022.2.5,60.03416591635884,
,,,,,,,,,,,,,,,,,,,,0,0,0,0,4,0,4,0,,,,,,brank,nw,h,upper,,,,,,,3,nw,LoDemNoTar,h,1,0.6593703380940497,,,,,,,,,,,,,,,,,,,337,2023-11-20_13h36.10.656,leap3,2022.2.5,60.03416591635884,
,,,,,,,,,,,,,,,,,,,,0,0,0,0,5,0,5,0,,,,,,blueberry,w,g,upper,,,,,,,3,w,LoDemNoTar,g,1,0.48812448846001644,,,,,,,,,,,,,,,,,,,337,2023-11-20_13h36.10.656,leap3,2022.2.5,60.03416591635884,
,,,,,,,,,,,,,,,,,,,,0,0,0,0,6,0,6,0,,,,,,unversed,w,g,upper,,,,,,,3,w,LoDemNoTar,h,0,0.8195462285129906,,,,,,,,,,,,,,,,,,,337,2023-11-20_13h36.10.656,leap3,2022.2.5,60.03416591635884,
,,,,,,,,,,,,,,,,,,,,0,0,0,0,7,0,7,0,,,,,,ergonomic,w,g,upper,,,,,,,3,w,LoDemNoTar,g,1,0.8496761698443152,,,,,,,,,,,,,,,,,,,337,2023-11-20_13h36.10.656,leap3,2022.2.5,60.03416591635884,
,,,,,,,,,,,,,,,,,,,,0,0,0,0,8,0,8,0,,,,,,trecious,nw,h,upper,,,,,,,3,nw,LoDemNoTar,h,1,0.8950478727679183,,,,,,,,,,,,,,,,,,,337,2023-11-20_13h36.10.656,leap3,2022.2.5,60.03416591635884,
,,,,,,,,,,,,,,,,,,,,0,0,0,0,9,0,9,0,,,,,,planofoad,nw,h,upper,,,,,,,3,nw,LoDemNoTar,h,1,0.7864532182766197,,,,,,,,,,,,,,,,,,,337,2023-11-20_13h36.10.656,leap3,2022.2.5,60.03416591635884,
,,,,,,,,,,,,,,,,,,,,0,0,0,0,10,0,10,0,,,,,,sporidic,nw,h,upper,,,,,,,3,nw,LoDemNoTar,g,0,0.9699545857574776,,,,,,,,,,,,,,,,,,,337,2023-11-20_13h36.10.656,leap3,2022.2.5,60.03416591635884,
,,,,,,,,,,,,,,,,,,,,0,0,0,0,11,0,11,0,,,,,,accessory,w,g,upper,,,,,,,3,w,LoDemNoTar,g,1,0.7930289137616455,,,,,,,,,,,,,,,,,,,337,2023-11-20_13h36.10.656,leap3,2022.2.5,60.03416591635884,
,,,,,,,,,,,,,,,,,,,,0,0,0,0,12,0,12,0,,,,,,pimorous,nw,h,upper,,,,,,,3,nw,LoDemNoTar,h,1,0.5843563586990967,,,,,,,,,,,,,,,,,,,337,2023-11-20_13h36.10.656,leap3,2022.2.5,60.03416591635884,
,,,,,,,,,,,,,,,,,,,,0,0,0,0,13,0,13,0,,,,,,capobly,nw,h,upper,,,,,,,3,nw,LoDemNoTar,h,1,0.6877552139285399,,,,,,,,,,,,,,,,,,,337,2023-11-20_13h36.10.656,leap3,2022.2.5,60.03416591635884,
,,,,,,,,,,,,,,,,,,,,0,0,0,0,14,0,14,0,,,,,,submit,w,g,upper,,,,,,,3,w,LoDemNoTar,g,1,0.5552113480935077,,,,,,,,,,,,,,,,,,,337,2023-11-20_13h36.10.656,leap3,2022.2.5,60.03416591635884,
,,,,,,,,,,,,,,,,,,,,0,0,0,0,15,0,15,0,,,,,,listless,w,g,upper,,,,,,,3,w,LoDemNoTar,g,1,0.8519638576804027,,,,,,,,,,,,,,,,,,,337,2023-11-20_13h36.10.656,leap3,2022.2.5,60.03416591635884,
,,,,,,,,,,,,,,,,,,,,0,0,0,0,16,0,16,0,,,,,,decant,w,g,upper,,,,,,,3,w,LoDemNoTar,h,0,0.8006239711644412,,,,,,,,,,,,,,,,,,,337,2023-11-20_13h36.10.656,leap3,2022.2.5,60.03416591635884,
,,,,,,,,,,,,,,,,,,,,0,0,0,0,17,0,17,0,,,,,,ephically,nw,h,upper,,,,,,,3,nw,LoDemNoTar,h,1,0.7674044925120143,,,,,,,,,,,,,,,,,,,337,2023-11-20_13h36.10.656,leap3,2022.2.5,60.03416591635884,
,,,,,,,,,,,,,,,,,,,,0,0,0,0,18,0,18,0,,,,,,outfit,w,g,upper,,,,,,,3,w,LoDemNoTar,g,1,0.6154308403197319,,,,,,,,,,,,,,,,,,,337,2023-11-20_13h36.10.656,leap3,2022.2.5,60.03416591635884,
,,,,,,,,,,,,,,,,,,,,0,0,0,0,19,0,19,0,,,,,,provide,w,g,upper,,,,,,,3,w,LoDemNoTar,g,1,0.6462060354269852,,,,,,,,,,,,,,,,,,,337,2023-11-20_13h36.10.656,leap3,2022.2.5,60.03416591635884,
,,,,,,,,,,,,,,,,,,,,0,0,0,0,20,0,20,0,,,,,,awful,w,g,upper,,,,,,,3,w,LoDemNoTar,g,1,0.739600974107816,,,,,,,,,,,,,,,,,,,337,2023-11-20_13h36.10.656,leap3,2022.2.5,60.03416591635884,
,,,,,,,,,,,,,,,,,,,,0,0,0,0,21,0,21,0,,,,,,togglo,nw,h,upper,,,,,,,3,nw,LoDemNoTar,h,1,0.587943492955219,,,,,,,,,,,,,,,,,,,337,2023-11-20_13h36.10.656,leap3,2022.2.5,60.03416591635884,
,,,,,,,,,,,,,,,,,,,,0,0,0,0,22,0,22,0,,,,,,staircase,w,g,upper,,,,,,,3,w,LoDemNoTar,g,1,0.6033468162931968,,,,,,,,,,,,,,,,,,,337,2023-11-20_13h36.10.656,leap3,2022.2.5,60.03416591635884,
,,,,,,,,,,,,,,,,,,,,0,0,0,0,23,0,23,0,,,,,,plartly,nw,h,upper,,,,,,,3,nw,LoDemNoTar,h,1,0.8341357838771728,,,,,,,,,,,,,,,,,,,337,2023-11-20_13h36.10.656,leap3,2022.2.5,60.03416591635884,
,,,,,,,,,,,,,,,,,,,,0,0,0,0,24,0,24,0,,,,,,preight,nw,h,upper,,,,,,,3,nw,LoDemNoTar,h,1,0.712226852393087,,,,,,,,,,,,,,,,,,,337,2023-11-20_13h36.10.656,leap3,2022.2.5,60.03416591635884,
,,,,,,,,,,,,,,,,,,,,0,0,0,0,25,0,25,0,,,,,,attract,w,g,upper,,,,,,,3,w,LoDemNoTar,g,1,0.6336628184876645,,,,,,,,,,,,,,,,,,,337,2023-11-20_13h36.10.656,leap3,2022.2.5,60.03416591635884,
,,,,,,,,,,,,,,,,,,,,0,0,0,0,26,0,26,0,,,,,,ascending,w,g,upper,,,,,,,3,w,LoDemNoTar,g,1,0.6970645473970762,,,,,,,,,,,,,,,,,,,337,2023-11-20_13h36.10.656,leap3,2022.2.5,60.03416591635884,
,,,,,,,,,,,,,,,,,,,,0,0,0,0,27,0,27,0,,,,,,assent,w,g,upper,,,,,,,3,w,LoDemNoTar,g,1,0.9084800103787529,,,,,,,,,,,,,,,,,,,337,2023-11-20_13h36.10.656,leap3,2022.2.5,60.03416591635884,
,,,,,,,,,,,,,,,,,,,,0,0,0,0,28,0,28,0,,,,,,roodies,nw,h,upper,,,,,,,3,nw,LoDemNoTar,h,1,0.663326614453581,,,,,,,,,,,,,,,,,,,337,2023-11-20_13h36.10.656,leap3,2022.2.5,60.03416591635884,
,,,,,,,,,,,,,,,,,,,,0,0,0,0,29,0,29,0,,,,,,twenties,w,g,upper,,,,,,,3,w,LoDemNoTar,g,1,0.6520808575187402,,,,,,,,,,,,,,,,,,,337,2023-11-20_13h36.10.656,leap3,2022.2.5,60.03416591635884,
,,,,,,,,,,,,,,,,,,,,0,0,0,0,,,,,,,,,,,,,,,,,,,,,,,,,,NA,,,,,,,,,,,,,,,,,,337,2023-11-20_13h36.10.656,leap3,2022.2.5,60.03416591635884,
,,,,,,,,,,,,,,,,,,,,1,0,1,0,0,0,0,0,,,,,,halter,w,g,upper,,,,,,,3,w,LoDemNoTar,g,1,0.7440958999764007,,,,,,,,,,,,,,,,,,,337,2023-11-20_13h36.10.656,leap3,2022.2.5,60.03416591635884,
,,,,,,,,,,,,,,,,,,,,1,0,1,0,1,0,1,0,,,,,,seeming,w,g,upper,,,,,,,3,w,LoDemNoTar,g,1,0.5614387588316276,,,,,,,,,,,,,,,,,,,337,2023-11-20_13h36.10.656,leap3,2022.2.5,60.03416591635884,
,,,,,,,,,,,,,,,,,,,,1,0,1,0,2,0,2,0,,,,,,armada,w,g,upper,,,,,,,3,w,LoDemNoTar,g,1,0.8181438195879309,,,,,,,,,,,,,,,,,,,337,2023-11-20_13h36.10.656,leap3,2022.2.5,60.03416591635884,
,,,,,,,,,,,,,,,,,,,,1,0,1,0,3,0,3,0,,,,,,clypaper,nw,h,upper,,,,,,,3,nw,LoDemNoTar,h,1,0.624214104906514,,,,,,,,,,,,,,,,,,,337,2023-11-20_13h36.10.656,leap3,2022.2.5,60.03416591635884,
,,,,,,,,,,,,,,,,,,,,1,0,1,0,4,0,4,0,,,,,,meteoroid,w,g,upper,,,,,,,3,w,LoDemNoTar,h,0,1.0542964384935658,,,,,,,,,,,,,,,,,,,337,2023-11-20_13h36.10.656,leap3,2022.2.5,60.03416591635884,
,,,,,,,,,,,,,,,,,,,,1,0,1,0,5,0,5,0,,,,,,border,w,g,upper,,,,,,,3,w,LoDemNoTar,g,1,0.8179961627461125,,,,,,,,,,,,,,,,,,,337,2023-11-20_13h36.10.656,leap3,2022.2.5,60.03416591635884,
,,,,,,,,,,,,,,,,,,,,1,0,1,0,6,0,6,0,,,,,,dislokes,nw,h,upper,,,,,,,3,nw,LoDemNoTar,h,1,0.5761802749361777,,,,,,,,,,,,,,,,,,,337,2023-11-20_13h36.10.656,leap3,2022.2.5,60.03416591635884,
,,,,,,,,,,,,,,,,,,,,1,0,1,0,7,0,7,0,,,,,,sengry,nw,h,upper,,,,,,,3,nw,LoDemNoTar,h,1,0.7041100300079961,,,,,,,,,,,,,,,,,,,337,2023-11-20_13h36.10.656,leap3,2022.2.5,60.03416591635884,
,,,,,,,,,,,,,,,,,,,,1,0,1,0,8,0,8,0,,,,,,tyena,nw,h,upper,,,,,,,3,nw,LoDemNoTar,h,1,0.7229789852231079,,,,,,,,,,,,,,,,,,,337,2023-11-20_13h36.10.656,leap3,2022.2.5,60.03416591635884,
,,,,,,,,,,,,,,,,,,,,1,0,1,0,9,0,9,0,,,,,,acroad,nw,h,upper,,,,,,,3,nw,LoDemNoTar,h,1,0.7009784469050828,,,,,,,,,,,,,,,,,,,337,2023-11-20_13h36.10.656,leap3,2022.2.5,60.03416591635884,
,,,,,,,,,,,,,,,,,,,,1,0,1,0,10,0,10,0,,,,,,pigned,nw,h,upper,,,,,,,3,nw,LoDemNoTar,h,1,0.6077454010387555,,,,,,,,,,,,,,,,,,,337,2023-11-20_13h36.10.656,leap3,2022.2.5,60.03416591635884,
,,,,,,,,,,,,,,,,,,,,1,0,1,0,11,0,11,0,,,,,,forbid,w,g,upper,,,,,,,3,w,LoDemNoTar,g,1,0.5744802348435769,,,,,,,,,,,,,,,,,,,337,2023-11-20_13h36.10.656,leap3,2022.2.5,60.03416591635884,
,,,,,,,,,,,,,,,,,,,,1,0,1,0,12,0,12,0,,,,,,smallash,nw,h,upper,,,,,,,3,nw,LoDemNoTar,h,1,0.7665291456760315,,,,,,,,,,,,,,,,,,,337,2023-11-20_13h36.10.656,leap3,2022.2.5,60.03416591635884,
,,,,,,,,,,,,,,,,,,,,1,0,1,0,13,0,13,0,,,,,,hustle,w,g,upper,,,,,,,3,w,LoDemNoTar,g,1,0.5112629114519223,,,,,,,,,,,,,,,,,,,337,2023-11-20_13h36.10.656,leap3,2022.2.5,60.03416591635884,
,,,,,,,,,,,,,,,,,,,,1,0,1,0,14,0,14,0,,,,,,frequency,w,g,upper,,,,,,,3,w,LoDemNoTar,g,1,0.7113819639189387,,,,,,,,,,,,,,,,,,,337,2023-11-20_13h36.10.656,leap3,2022.2.5,60.03416591635884,
,,,,,,,,,,,,,,,,,,,,1,0,1,0,15,0,15,0,,,,,,carnival,w,g,upper,,,,,,,3,w,LoDemNoTar,g,1,0.5876889007772661,,,,,,,,,,,,,,,,,,,337,2023-11-20_13h36.10.656,leap3,2022.2.5,60.03416591635884,
,,,,,,,,,,,,,,,,,,,,1,0,1,0,16,0,16,0,,,,,,ipiocy,nw,h,upper,,,,,,,3,nw,LoDemNoTar,h,1,0.5790850756707187,,,,,,,,,,,,,,,,,,,337,2023-11-20_13h36.10.656,leap3,2022.2.5,60.03416591635884,
,,,,,,,,,,,,,,,,,,,,1,0,1,0,17,0,17,0,,,,,,fonducts,nw,h,upper,,,,,,,3,nw,LoDemNoTar,h,1,0.6170815511086403,,,,,,,,,,,,,,,,,,,337,2023-11-20_13h36.10.656,leap3,2022.2.5,60.03416591635884,
,,,,,,,,,,,,,,,,,,,,1,0,1,0,18,0,18,0,,,,,,rualify,nw,h,upper,,,,,,,3,nw,LoDemNoTar,h,1,0.6093795583701649,,,,,,,,,,,,,,,,,,,337,2023-11-20_13h36.10.656,leap3,2022.2.5,60.03416591635884,
,,,,,,,,,,,,,,,,,,,,1,0,1,0,19,0,19,0,,,,,,noblin,nw,h,upper,,,,,,,3,nw,LoDemNoTar,h,1,0.680104536908857,,,,,,,,,,,,,,,,,,,337,2023-11-20_13h36.10.656,leap3,2022.2.5,60.03416591635884,
,,,,,,,,,,,,,,,,,,,,1,0,1,0,20,0,20,0,,,,,,pollute,w,g,upper,,,,,,,3,w,LoDemNoTar,g,1,0.9962020791504074,,,,,,,,,,,,,,,,,,,337,2023-11-20_13h36.10.656,leap3,2022.2.5,60.03416591635884,
,,,,,,,,,,,,,,,,,,,,1,0,1,0,21,0,21,0,,,,,,germeated,nw,h,upper,,,,,,,3,nw,LoDemNoTar,g,0,1.1955606657766111,,,,,,,,,,,,,,,,,,,337,2023-11-20_13h36.10.656,leap3,2022.2.5,60.03416591635884,
,,,,,,,,,,,,,,,,,,,,1,0,1,0,22,0,22,0,,,,,,surround,w,g,upper,,,,,,,3,w,LoDemNoTar,g,1,0.6270871230021839,,,,,,,,,,,,,,,,,,,337,2023-11-20_13h36.10.656,leap3,2022.2.5,60.03416591635884,
,,,,,,,,,,,,,,,,,,,,1,0,1,0,23,0,23,0,,,,,,flougy,nw,h,upper,,,,,,,3,nw,LoDemNoTar,h,1,0.6640794657041624,,,,,,,,,,,,,,,,,,,337,2023-11-20_13h36.10.656,leap3,2022.2.5,60.03416591635884,
,,,,,,,,,,,,,,,,,,,,1,0,1,0,24,0,24,0,,,,,,humanize,w,g,upper,,,,,,,3,w,LoDemNoTar,g,1,0.7240466832367929,,,,,,,,,,,,,,,,,,,337,2023-11-20_13h36.10.656,leap3,2022.2.5,60.03416591635884,
,,,,,,,,,,,,,,,,,,,,1,0,1,0,25,0,25,0,,,,,,unamufed,nw,h,upper,,,,,,,3,nw,LoDemNoTar,h,1,0.6628949002802074,,,,,,,,,,,,,,,,,,,337,2023-11-20_13h36.10.656,leap3,2022.2.5,60.03416591635884,
,,,,,,,,,,,,,,,,,,,,1,0,1,0,26,0,26,0,,,,,,maximized,w,g,upper,,,,,,,3,w,LoDemNoTar,g,1,0.6733603272250548,,,,,,,,,,,,,,,,,,,337,2023-11-20_13h36.10.656,leap3,2022.2.5,60.03416591635884,
,,,,,,,,,,,,,,,,,,,,1,0,1,0,27,0,27,0,,,,,,atabaster,nw,h,upper,,,,,,,3,nw,LoDemNoTar,h,1,0.7277132740882735,,,,,,,,,,,,,,,,,,,337,2023-11-20_13h36.10.656,leap3,2022.2.5,60.03416591635884,
,,,,,,,,,,,,,,,,,,,,1,0,1,0,28,0,28,0,,,,,,digested,w,g,upper,,,,,,,3,w,LoDemNoTar,g,1,0.6097871044958083,,,,,,,,,,,,,,,,,,,337,2023-11-20_13h36.10.656,leap3,2022.2.5,60.03416591635884,
,,,,,,,,,,,,,,,,,,,,1,0,1,0,29,0,29,0,,,,,,overflow,w,g,upper,,,,,,,3,w,LoDemNoTar,g,1,0.6245110739350821,,,,,,,,,,,,,,,,,,,337,2023-11-20_13h36.10.656,leap3,2022.2.5,60.03416591635884,
,,,,,,,,,,,,,,,,,,,,1,0,1,0,,,,,,,,,,,,,,,,,,,,,,,,,,NA,,,,,,,,,,,,,,,,,,337,2023-11-20_13h36.10.656,leap3,2022.2.5,60.03416591635884,
,,,,,,,,,,,,,,,,,,,,2,0,2,0,0,0,0,0,,,,,,churnad,nw,h,upper,,,,,,,3,nw,LoDemNoTar,h,1,0.5339133385145942,,,,,,,,,,,,,,,,,,,337,2023-11-20_13h36.10.656,leap3,2022.2.5,60.03416591635884,
,,,,,,,,,,,,,,,,,,,,2,0,2,0,1,0,1,0,,,,,,beggarlan,nw,h,upper,,,,,,,3,nw,LoDemNoTar,h,1,0.6073318956687217,,,,,,,,,,,,,,,,,,,337,2023-11-20_13h36.10.656,leap3,2022.2.5,60.03416591635884,
,,,,,,,,,,,,,,,,,,,,2,0,2,0,2,0,2,0,,,,,,single,w,g,upper,,,,,,,3,w,LoDemNoTar,g,1,0.5500324333579556,,,,,,,,,,,,,,,,,,,337,2023-11-20_13h36.10.656,leap3,2022.2.5,60.03416591635884,
,,,,,,,,,,,,,,,,,,,,2,0,2,0,3,0,3,0,,,,,,mixture,w,g,upper,,,,,,,3,w,LoDemNoTar,g,1,0.5514272276927841,,,,,,,,,,,,,,,,,,,337,2023-11-20_13h36.10.656,leap3,2022.2.5,60.03416591635884,
,,,,,,,,,,,,,,,,,,,,2,0,2,0,4,0,4,0,,,,,,olgies,nw,h,upper,,,,,,,3,nw,LoDemNoTar,h,1,0.6561526770119599,,,,,,,,,,,,,,,,,,,337,2023-11-20_13h36.10.656,leap3,2022.2.5,60.03416591635884,
,,,,,,,,,,,,,,,,,,,,2,0,2,0,5,0,5,0,,,,,,huffle,nw,h,upper,,,,,,,3,nw,LoDemNoTar,h,1,0.7169161158535644,,,,,,,,,,,,,,,,,,,337,2023-11-20_13h36.10.656,leap3,2022.2.5,60.03416591635884,
,,,,,,,,,,,,,,,,,,,,2,0,2,0,6,0,6,0,,,,,,donastic,nw,h,upper,,,,,,,3,nw,LoDemNoTar,h,1,0.6796036292821555,,,,,,,,,,,,,,,,,,,337,2023-11-20_13h36.10.656,leap3,2022.2.5,60.03416591635884,
,,,,,,,,,,,,,,,,,,,,2,0,2,0,7,0,7,0,,,,,,maroon,w,g,upper,,,,,,,3,w,LoDemNoTar,g,1,0.7146410086447759,,,,,,,,,,,,,,,,,,,337,2023-11-20_13h36.10.656,leap3,2022.2.5,60.03416591635884,
,,,,,,,,,,,,,,,,,,,,2,0,2,0,8,0,8,0,,,,,,ilterfere,nw,h,upper,,,,,,,3,nw,LoDemNoTar,h,1,0.805391698013409,,,,,,,,,,,,,,,,,,,337,2023-11-20_13h36.10.656,leap3,2022.2.5,60.03416591635884,
,,,,,,,,,,,,,,,,,,,,2,0,2,0,9,0,9,0,,,,,,remain,w,g,upper,,,,,,,3,w,LoDemNoTar,g,1,0.548036417444564,,,,,,,,,,,,,,,,,,,337,2023-11-20_13h36.10.656,leap3,2022.2.5,60.03416591635884,
,,,,,,,,,,,,,,,,,,,,2,0,2,0,10,0,10,0,,,,,,thesis,w,g,upper,,,,,,,3,w,LoDemNoTar,g,1,0.6055130017507508,,,,,,,,,,,,,,,,,,,337,2023-11-20_13h36.10.656,leap3,2022.2.5,60.03416591635884,
,,,,,,,,,,,,,,,,,,,,2,0,2,0,11,0,11,0,,,,,,gremieres,nw,h,upper,,,,,,,3,nw,LoDemNoTar,h,1,0.6433840019803938,,,,,,,,,,,,,,,,,,,337,2023-11-20_13h36.10.656,leap3,2022.2.5,60.03416591635884,
,,,,,,,,,,,,,,,,,,,,2,0,2,0,12,0,12,0,,,,,,volume,w,g,upper,,,,,,,3,w,LoDemNoTar,g,1,0.5296445328758637,,,,,,,,,,,,,,,,,,,337,2023-11-20_13h36.10.656,leap3,2022.2.5,60.03416591635884,
,,,,,,,,,,,,,,,,,,,,2,0,2,0,13,0,13,0,,,,,,eaglot,nw,h,upper,,,,,,,3,nw,LoDemNoTar,h,1,0.6517646864790549,,,,,,,,,,,,,,,,,,,337,2023-11-20_13h36.10.656,leap3,2022.2.5,60.03416591635884,
,,,,,,,,,,,,,,,,,,,,2,0,2,0,14,0,14,0,,,,,,bellicove,nw,h,upper,,,,,,,3,nw,LoDemNoTar,h,1,0.6884766136095095,,,,,,,,,,,,,,,,,,,337,2023-11-20_13h36.10.656,leap3,2022.2.5,60.03416591635884,
,,,,,,,,,,,,,,,,,,,,2,0,2,0,15,0,15,0,,,,,,prohibit,w,g,upper,,,,,,,3,w,LoDemNoTar,g,1,0.6519235996715906,,,,,,,,,,,,,,,,,,,337,2023-11-20_13h36.10.656,leap3,2022.2.5,60.03416591635884,
,,,,,,,,,,,,,,,,,,,,2,0,2,0,16,0,16,0,,,,,,arrested,w,g,upper,,,,,,,3,w,LoDemNoTar,g,1,0.5597360701858634,,,,,,,,,,,,,,,,,,,337,2023-11-20_13h36.10.656,leap3,2022.2.5,60.03416591635884,
,,,,,,,,,,,,,,,,,,,,2,0,2,0,17,0,17,0,,,,,,opert,nw,h,upper,,,,,,,3,nw,LoDemNoTar,h,1,0.6803915738628348,,,,,,,,,,,,,,,,,,,337,2023-11-20_13h36.10.656,leap3,2022.2.5,60.03416591635884,
,,,,,,,,,,,,,,,,,,,,2,0,2,0,18,0,18,0,,,,,,martial,w,g,upper,,,,,,,3,w,LoDemNoTar,g,1,0.9325004015900049,,,,,,,,,,,,,,,,,,,337,2023-11-20_13h36.10.656,leap3,2022.2.5,60.03416591635884,
,,,,,,,,,,,,,,,,,,,,2,0,2,0,19,0,19,0,,,,,,ufionize,nw,h,upper,,,,,,,3,nw,LoDemNoTar,h,1,0.7185181594772985,,,,,,,,,,,,,,,,,,,337,2023-11-20_13h36.10.656,leap3,2022.2.5,60.03416591635884,
,,,,,,,,,,,,,,,,,,,,2,0,2,0,20,0,20,0,,,,,,demon,w,g,upper,,,,,,,3,w,LoDemNoTar,g,1,0.760594068998671,,,,,,,,,,,,,,,,,,,337,2023-11-20_13h36.10.656,leap3,2022.2.5,60.03416591635884,
,,,,,,,,,,,,,,,,,,,,2,0,2,0,21,0,21,0,,,,,,blocking,w,g,upper,,,,,,,3,w,LoDemNoTar,g,1,0.7533804032582339,,,,,,,,,,,,,,,,,,,337,2023-11-20_13h36.10.656,leap3,2022.2.5,60.03416591635884,
,,,,,,,,,,,,,,,,,,,,2,0,2,0,22,0,22,0,,,,,,crudios,nw,h,upper,,,,,,,3,nw,LoDemNoTar,h,1,0.6340968501449424,,,,,,,,,,,,,,,,,,,337,2023-11-20_13h36.10.656,leap3,2022.2.5,60.03416591635884,
,,,,,,,,,,,,,,,,,,,,2,0,2,0,23,0,23,0,,,,,,potent,w,g,upper,,,,,,,3,w,LoDemNoTar,g,1,0.6555027882677678,,,,,,,,,,,,,,,,,,,337,2023-11-20_13h36.10.656,leap3,2022.2.5,60.03416591635884,
,,,,,,,,,,,,,,,,,,,,2,0,2,0,24,0,24,0,,,,,,vintnel,nw,h,upper,,,,,,,3,nw,LoDemNoTar,h,1,0.5322659384169128,,,,,,,,,,,,,,,,,,,337,2023-11-20_13h36.10.656,leap3,2022.2.5,60.03416591635884,
,,,,,,,,,,,,,,,,,,,,2,0,2,0,25,0,25,0,,,,,,baladroit,nw,h,upper,,,,,,,3,nw,LoDemNoTar,h,1,0.6063022706075571,,,,,,,,,,,,,,,,,,,337,2023-11-20_13h36.10.656,leap3,2022.2.5,60.03416591635884,
,,,,,,,,,,,,,,,,,,,,2,0,2,0,26,0,26,0,,,,,,shurk,nw,h,upper,,,,,,,3,nw,LoDemNoTar,h,1,0.6680327624408164,,,,,,,,,,,,,,,,,,,337,2023-11-20_13h36.10.656,leap3,2022.2.5,60.03416591635884,
,,,,,,,,,,,,,,,,,,,,2,0,2,0,27,0,27,0,,,,,,caloric,w,g,upper,,,,,,,3,w,LoDemNoTar,g,1,0.7281151920378761,,,,,,,,,,,,,,,,,,,337,2023-11-20_13h36.10.656,leap3,2022.2.5,60.03416591635884,
,,,,,,,,,,,,,,,,,,,,2,0,2,0,28,0,28,0,,,,,,burrowing,w,g,upper,,,,,,,3,w,LoDemNoTar,g,1,0.6902047945795857,,,,,,,,,,,,,,,,,,,337,2023-11-20_13h36.10.656,leap3,2022.2.5,60.03416591635884,
,,,,,,,,,,,,,,,,,,,,2,0,2,0,29,0,29,0,,,,,,stretches,w,g,upper,,,,,,,3,w,LoDemNoTar,g,1,0.9176989619691085,,,,,,,,,,,,,,,,,,,337,2023-11-20_13h36.10.656,leap3,2022.2.5,60.03416591635884,
,,,,,,,,,,,,,,,,,,,,2,0,2,0,,,,,,,,,,,,,,,,,,,,,,,,,,NA,,,,,,,,,,,,,,,,,,337,2023-11-20_13h36.10.656,leap3,2022.2.5,60.03416591635884,
,,,,,,,,,,,,,,,,,,,,3,0,3,0,0,0,0,0,,,,,,rillains,nw,h,lower,,,,,,,2,nw,HiDemNoTar,h,1,0.6710276139847338,,,,,,,,,,,,,,,,,,,337,2023-11-20_13h36.10.656,leap3,2022.2.5,60.03416591635884,
,,,,,,,,,,,,,,,,,,,,3,0,3,0,1,0,1,0,,,,,,latirizes,nw,h,lower,,,,,,,2,nw,HiDemNoTar,h,1,0.8189251427847921,,,,,,,,,,,,,,,,,,,337,2023-11-20_13h36.10.656,leap3,2022.2.5,60.03416591635884,
,,,,,,,,,,,,,,,,,,,,3,0,3,0,2,0,2,0,,,,,,pallir,nw,h,lower,,,,,,,2,nw,HiDemNoTar,h,1,0.5769519971281625,,,,,,,,,,,,,,,,,,,337,2023-11-20_13h36.10.656,leap3,2022.2.5,60.03416591635884,
,,,,,,,,,,,,,,,,,,,,3,0,3,0,3,0,3,0,,,,,,infusion,w,g,lower,,,,,,,2,w,HiDemNoTar,g,1,0.5929846829230883,,,,,,,,,,,,,,,,,,,337,2023-11-20_13h36.10.656,leap3,2022.2.5,60.03416591635884,
,,,,,,,,,,,,,,,,,,,,3,0,3,0,4,0,4,0,,,,,,column,w,g,lower,,,,,,,2,w,HiDemNoTar,g,1,0.5763328978150639,,,,,,,,,,,,,,,,,,,337,2023-11-20_13h36.10.656,leap3,2022.2.5,60.03416591635884,
,,,,,,,,,,,,,,,,,,,,3,0,3,0,5,0,5,0,,,,,,hubris,w,g,lower,,,,,,,2,w,HiDemNoTar,g,1,0.6884822417850955,,,,,,,,,,,,,,,,,,,337,2023-11-20_13h36.10.656,leap3,2022.2.5,60.03416591635884,
,,,,,,,,,,,,,,,,,,,,3,0,3,0,6,0,6,0,,,,,,satisfies,w,g,lower,,,,,,,2,w,HiDemNoTar,g,1,0.5957322258109343,,,,,,,,,,,,,,,,,,,337,2023-11-20_13h36.10.656,leap3,2022.2.5,60.03416591635884,
,,,,,,,,,,,,,,,,,,,,3,0,3,0,7,0,7,0,,,,,,glaims,nw,h,lower,,,,,,,2,nw,HiDemNoTar,h,1,0.6194145954182204,,,,,,,,,,,,,,,,,,,337,2023-11-20_13h36.10.656,leap3,2022.2.5,60.03416591635884,
,,,,,,,,,,,,,,,,,,,,3,0,3,0,8,0,8,0,,,,,,bamps,nw,h,lower,,,,,,,2,nw,HiDemNoTar,h,1,0.5774148318018888,,,,,,,,,,,,,,,,,,,337,2023-11-20_13h36.10.656,leap3,2022.2.5,60.03416591635884,
,,,,,,,,,,,,,,,,,,,,3,0,3,0,9,0,9,0,,,,,,peahem,nw,h,lower,,,,,,,2,nw,HiDemNoTar,h,1,0.7214802351750222,,,,,,,,,,,,,,,,,,,337,2023-11-20_13h36.10.656,leap3,2022.2.5,60.03416591635884,
,,,,,,,,,,,,,,,,,,,,3,0,3,0,10,0,10,0,,,,,,epic,w,g,lower,,,,,,,2,w,HiDemNoTar,g,1,0.5145557252317303,,,,,,,,,,,,,,,,,,,337,2023-11-20_13h36.10.656,leap3,2022.2.5,60.03416591635884,
,,,,,,,,,,,,,,,,,,,,3,0,3,0,11,0,11,0,,,,,,kickoff,w,g,lower,,,,,,,2,w,HiDemNoTar,g,1,0.5414011295119963,,,,,,,,,,,,,,,,,,,337,2023-11-20_13h36.10.656,leap3,2022.2.5,60.03416591635884,
,,,,,,,,,,,,,,,,,,,,3,0,3,0,12,0,12,0,,,,,,aefated,nw,h,lower,,,,,,,2,nw,HiDemNoTar,h,1,0.5587157150612256,,,,,,,,,,,,,,,,,,,337,2023-11-20_13h36.10.656,leap3,2022.2.5,60.03416591635884,
,,,,,,,,,,,,,,,,,,,,3,0,3,0,13,0,13,0,,,,,,walsams,nw,h,lower,,,,,,,2,nw,HiDemNoTar,h,1,0.6154735482400611,,,,,,,,,,,,,,,,,,,337,2023-11-20_13h36.10.656,leap3,2022.2.5,60.03416591635884,
,,,,,,,,,,,,,,,,,,,,3,0,3,0,14,0,14,0,,,,,,splum,nw,h,lower,,,,,,,2,nw,HiDemNoTar,h,1,0.5822289083321266,,,,,,,,,,,,,,,,,,,337,2023-11-20_13h36.10.656,leap3,2022.2.5,60.03416591635884,
,,,,,,,,,,,,,,,,,,,,3,0,3,0,15,0,15,0,,,,,,wienegs,nw,h,lower,,,,,,,2,nw,HiDemNoTar,h,1,0.5823593495783825,,,,,,,,,,,,,,,,,,,337,2023-11-20_13h36.10.656,leap3,2022.2.5,60.03416591635884,
,,,,,,,,,,,,,,,,,,,,3,0,3,0,16,0,16,0,,,,,,result,w,g,lower,,,,,,,2,w,HiDemNoTar,g,1,0.5824659538448032,,,,,,,,,,,,,,,,,,,337,2023-11-20_13h36.10.656,leap3,2022.2.5,60.03416591635884,
,,,,,,,,,,,,,,,,,,,,3,0,3,0,17,0,17,0,,,,,,deficit,w,g,lower,,,,,,,2,w,HiDemNoTar,g,1,0.7664639250529035,,,,,,,,,,,,,,,,,,,337,2023-11-20_13h36.10.656,leap3,2022.2.5,60.03416591635884,
,,,,,,,,,,,,,,,,,,,,3,0,3,0,18,0,18,0,,,,,,fuack,nw,h,lower,,,,,,,2,nw,HiDemNoTar,h,1,0.9992621513169979,,,,,,,,,,,,,,,,,,,337,2023-11-20_13h36.10.656,leap3,2022.2.5,60.03416591635884,
,,,,,,,,,,,,,,,,,,,,3,0,3,0,19,0,19,0,,,,,,planar,w,g,lower,,,,,,,2,w,HiDemNoTar,g,1,0.725616944221656,,,,,,,,,,,,,,,,,,,337,2023-11-20_13h36.10.656,leap3,2022.2.5,60.03416591635884,
,,,,,,,,,,,,,,,,,,,,3,0,3,0,20,0,20,0,,,,,,drobate,nw,h,lower,,,,,,,2,nw,HiDemNoTar,h,1,0.5596572757281137,,,,,,,,,,,,,,,,,,,337,2023-11-20_13h36.10.656,leap3,2022.2.5,60.03416591635884,
,,,,,,,,,,,,,,,,,,,,3,0,3,0,21,0,21,0,,,,,,outflow,w,g,lower,,,,,,,2,w,HiDemNoTar,g,1,0.5604548213136695,,,,,,,,,,,,,,,,,,,337,2023-11-20_13h36.10.656,leap3,2022.2.5,60.03416591635884,
,,,,,,,,,,,,,,,,,,,,3,0,3,0,22,0,22,0,,,,,,efficient,w,g,lower,,,,,,,2,w,HiDemNoTar,g,1,0.6172609905884201,,,,,,,,,,,,,,,,,,,337,2023-11-20_13h36.10.656,leap3,2022.2.5,60.03416591635884,
,,,,,,,,,,,,,,,,,,,,3,0,3,0,23,0,23,0,,,,,,igiom,nw,h,lower,,,,,,,2,nw,HiDemNoTar,h,1,0.5512401736223183,,,,,,,,,,,,,,,,,,,337,2023-11-20_13h36.10.656,leap3,2022.2.5,60.03416591635884,
,,,,,,,,,,,,,,,,,,,,3,0,3,0,24,0,24,0,,,,,,micron,w,g,lower,,,,,,,2,w,HiDemNoTar,g,1,0.8479701705068692,,,,,,,,,,,,,,,,,,,337,2023-11-20_13h36.10.656,leap3,2022.2.5,60.03416591635884,
,,,,,,,,,,,,,,,,,,,,3,0,3,0,25,0,25,0,,,,,,egect,nw,h,lower,,,,,,,2,nw,HiDemNoTar,h,1,0.7814060690634506,,,,,,,,,,,,,,,,,,,337,2023-11-20_13h36.10.656,leap3,2022.2.5,60.03416591635884,
,,,,,,,,,,,,,,,,,,,,3,0,3,0,26,0,26,0,,,,,,finish,w,g,lower,,,,,,,2,w,HiDemNoTar,g,1,0.5334071337815658,,,,,,,,,,,,,,,,,,,337,2023-11-20_13h36.10.656,leap3,2022.2.5,60.03416591635884,
,,,,,,,,,,,,,,,,,,,,3,0,3,0,27,0,27,0,,,,,,angry,w,g,lower,,,,,,,2,w,HiDemNoTar,g,1,0.5354547964834637,,,,,,,,,,,,,,,,,,,337,2023-11-20_13h36.10.656,leap3,2022.2.5,60.03416591635884,
,,,,,,,,,,,,,,,,,,,,3,0,3,0,28,0,28,0,,,,,,eyesight,w,g,lower,,,,,,,2,w,HiDemNoTar,g,1,0.6969423828800245,,,,,,,,,,,,,,,,,,,337,2023-11-20_13h36.10.656,leap3,2022.2.5,60.03416591635884,
,,,,,,,,,,,,,,,,,,,,3,0,3,0,29,0,29,0,,,,,,hasks,nw,h,lower,,,,,,,2,nw,HiDemNoTar,h,1,0.619215622858519,,,,,,,,,,,,,,,,,,,337,2023-11-20_13h36.10.656,leap3,2022.2.5,60.03416591635884,
,,,,,,,,,,,,,,,,,,,,3,0,3,0,,,,,,,,,,,,,,,,,,,,,,,,,,NA,,,,,,,,,,,,,,,,,,337,2023-11-20_13h36.10.656,leap3,2022.2.5,60.03416591635884,
,,,,,,,,,,,,,,,,,,,,4,0,4,0,0,0,0,0,,,,,,amms,nw,h,lower,,,,,,,1,nw,HiDemTar,h,1,0.5301772231409814,,,,,,,,,,,,,,,,,,,337,2023-11-20_13h36.10.656,leap3,2022.2.5,60.03416591635884,
,,,,,,,,,,,,,,,,,,,,4,0,4,0,1,0,1,0,,,,,,reason,w,g,lower,,,,,,,1,w,HiDemTar,g,1,0.5163448229259302,,,,,,,,,,,,,,,,,,,337,2023-11-20_13h36.10.656,leap3,2022.2.5,60.03416591635884,
,,,,,,,,,,,,,,,,,,,,4,0,4,0,2,0,2,0,,,,,,pircus,nw,h,lower,,,,,,,1,nw,HiDemTar,h,1,0.607005461485187,,,,,,,,,,,,,,,,,,,337,2023-11-20_13h36.10.656,leap3,2022.2.5,60.03416591635884,
,,,,,,,,,,,,,,,,,,,,4,0,4,0,3,0,3,0,,,,,,grefab,nw,h,lower,,,,,,,1,nw,HiDemTar,h,1,0.5657264354117615,,,,,,,,,,,,,,,,,,,337,2023-11-20_13h36.10.656,leap3,2022.2.5,60.03416591635884,
,,,,,,,,,,,,,,,,,,,,4,0,4,0,4,0,4,0,,,,,,dazid,nw,h,lower,,,,,,,1,nw,HiDemTar,h,1,0.5654854170693397,,,,,,,,,,,,,,,,,,,337,2023-11-20_13h36.10.656,leap3,2022.2.5,60.03416591635884,
,,,,,,,,,,,,,,,,,,,,4,0,4,0,5,0,5,0,,,,,,triplet,w,g,lower,,,,,,,1,w,HiDemTar,g,1,0.550261533210687,,,,,,,,,,,,,,,,,,,337,2023-11-20_13h36.10.656,leap3,2022.2.5,60.03416591635884,
,,,,,,,,,,,,,,,,,,,,4,0,4,0,6,0,6,0,,,,,,aviation,w,g,lower,,,,,,,1,w,HiDemTar,g,1,0.5596205270517203,,,,,,,,,,,,,,,,,,,337,2023-11-20_13h36.10.656,leap3,2022.2.5,60.03416591635884,
,,,,,,,,,,,,,,,,,,,,4,0,4,0,7,0,7,0,,,,,,leuter,nw,h,lower,,,,,,,1,nw,HiDemTar,h,1,1.0323919102293075,,,,,,,,,,,,,,,,,,,337,2023-11-20_13h36.10.656,leap3,2022.2.5,60.03416591635884,
,,,,,,,,,,,,,,,,,,,,4,0,4,0,8,0,8,0,,,,,,pretzel,w,g,lower,,,,,,,1,w,HiDemTar,g,1,0.6464391081094618,,,,,,,,,,,,,,,,,,,337,2023-11-20_13h36.10.656,leap3,2022.2.5,60.03416591635884,
,,,,,,,,,,,,,,,,,,,,4,0,4,0,9,0,9,0,,,,,,fetching,w,g,lower,,,,,,,1,w,HiDemTar,g,1,0.7718775678172278,,,,,,,,,,,,,,,,,,,337,2023-11-20_13h36.10.656,leap3,2022.2.5,60.03416591635884,
,,,,,,,,,,,,,,,,,,,,4,0,4,0,10,0,10,0,,,,,,zears,nw,h,lower,,,,,,,1,nw,HiDemTar,h,1,0.6040238527075417,,,,,,,,,,,,,,,,,,,337,2023-11-20_13h36.10.656,leap3,2022.2.5,60.03416591635884,
,,,,,,,,,,,,,,,,,,,,4,0,4,0,11,0,11,0,,,,,,trophy,w,g,lower,,,,,,,1,w,HiDemTar,g,1,0.6586717821846833,,,,,,,,,,,,,,,,,,,337,2023-11-20_13h36.10.656,leap3,2022.2.5,60.03416591635884,
,,,,,,,,,,,,,,,,,,,,4,0,4,0,12,0,12,0,,,,,,sustain,w,g,lower,,,,,,,1,w,HiDemTar,g,1,0.6074580330155186,,,,,,,,,,,,,,,,,,,337,2023-11-20_13h36.10.656,leap3,2022.2.5,60.03416591635884,
,,,,,,,,,,,,,,,,,,,,4,0,4,0,13,0,13,0,,,,,,razelle,nw,h,lower,,,,,,,1,nw,HiDemTar,h,1,0.5971892611464682,,,,,,,,,,,,,,,,,,,337,2023-11-20_13h36.10.656,leap3,2022.2.5,60.03416591635884,
,,,,,,,,,,,,,,,,,,,,4,0,4,0,14,0,14,0,,,,,,pariah,w,g,lower,,,,,,,1,w,HiDemTar,g,1,0.8845324543808601,,,,,,,,,,,,,,,,,,,337,2023-11-20_13h36.10.656,leap3,2022.2.5,60.03416591635884,
,,,,,,,,,,,,,,,,,,,,4,0,4,0,15,0,15,0,,,,,,ofsters,nw,h,lower,,,,,,,1,nw,HiDemTar,h,1,0.8079770170170377,,,,,,,,,,,,,,,,,,,337,2023-11-20_13h36.10.656,leap3,2022.2.5,60.03416591635884,
,,,,,,,,,,,,,,,,,,,,4,0,4,0,16,0,16,0,,,,,,emotion,w,g,lower,,,,,,,1,w,HiDemTar,g,1,0.878724839327333,,,,,,,,,,,,,,,,,,,337,2023-11-20_13h36.10.656,leap3,2022.2.5,60.03416591635884,
,,,,,,,,,,,,,,,,,,,,4,0,4,0,17,0,17,0,,,,,,incidonts,nw,h,lower,,,,,,,1,nw,HiDemTar,h,1,0.9308281713060751,,,,,,,,,,,,,,,,,,,337,2023-11-20_13h36.10.656,leap3,2022.2.5,60.03416591635884,
,,,,,,,,,,,,,,,,,,,,4,0,4,0,18,0,18,0,,,,,,hangar,w,g,lower,,,,,,,1,w,HiDemTar,g,1,0.9489393092339924,,,,,,,,,,,,,,,,,,,337,2023-11-20_13h36.10.656,leap3,2022.2.5,60.03416591635884,
,,,,,,,,,,,,,,,,,,,,4,0,4,0,19,0,19,0,,,,,,brother,w,g,lower,,,,,,,1,w,HiDemTar,g,1,0.6143479131251297,,,,,,,,,,,,,,,,,,,337,2023-11-20_13h36.10.656,leap3,2022.2.5,60.03416591635884,
,,,,,,,,,,,,,,,,,,,,4,0,4,0,20,0,20,0,,,,,,relaying,w,g,lower,,,,,,,1,w,HiDemTar,g,1,0.5570749363469076,,,,,,,,,,,,,,,,,,,337,2023-11-20_13h36.10.656,leap3,2022.2.5,60.03416591635884,
,,,,,,,,,,,,,,,,,,,,4,0,4,0,21,0,21,0,,,,,,asthmatic,w,g,lower,,,,,,,1,w,HiDemTar,g,1,0.7017183864581966,,,,,,,,,,,,,,,,,,,337,2023-11-20_13h36.10.656,leap3,2022.2.5,60.03416591635884,
,,,,,,,,,,,,,,,,,,,,4,0,4,0,22,0,22,0,,,,,,lizard,target,q,lower,,,,,,,1,target,HiDemTar,q,1,0.7996218248431433,,1,,,,,,,,,,,,,,,,,337,2023-11-20_13h36.10.656,leap3,2022.2.5,60.03416591635884,
,,,,,,,,,,,,,,,,,,,,4,0,4,0,23,0,23,0,,,,,,pranny,nw,h,lower,,,,,,,1,aftertar1,HiDemTar,h,1,0.8789271225782613,,,,,,,,,,,,,,,,,,,337,2023-11-20_13h36.10.656,leap3,2022.2.5,60.03416591635884,
,,,,,,,,,,,,,,,,,,,,4,0,4,0,24,0,24,0,,,,,,brimitive,nw,h,lower,,,,,,,1,aftertar2,HiDemTar,h,1,0.7309481507668352,,,,,,,,,,,,,,,,,,,337,2023-11-20_13h36.10.656,leap3,2022.2.5,60.03416591635884,
,,,,,,,,,,,,,,,,,,,,4,0,4,0,25,0,25,0,,,,,,topefuls,nw,h,lower,,,,,,,1,aftertar3,HiDemTar,h,1,0.6850139613547981,,,,,,,,,,,,,,,,,,,337,2023-11-20_13h36.10.656,leap3,2022.2.5,60.03416591635884,
,,,,,,,,,,,,,,,,,,,,4,0,4,0,26,0,26,0,,,,,,retain,w,g,lower,,,,,,,1,nw,HiDemTar,g,1,0.6084353491505681,,,,,,,,,,,,,,,,,,,337,2023-11-20_13h36.10.656,leap3,2022.2.5,60.03416591635884,
,,,,,,,,,,,,,,,,,,,,4,0,4,0,27,0,27,0,,,,,,plogging,nw,h,lower,,,,,,,1,w,HiDemTar,h,1,0.6065648084450004,,,,,,,,,,,,,,,,,,,337,2023-11-20_13h36.10.656,leap3,2022.2.5,60.03416591635884,
,,,,,,,,,,,,,,,,,,,,4,0,4,0,28,0,28,0,,,,,,gumdrep,nw,h,lower,,,,,,,1,nw,HiDemTar,h,1,0.5979338356678454,,,,,,,,,,,,,,,,,,,337,2023-11-20_13h36.10.656,leap3,2022.2.5,60.03416591635884,
,,,,,,,,,,,,,,,,,,,,4,0,4,0,29,0,29,0,,,,,,tenpince,nw,h,lower,,,,,,,1,nw,HiDemTar,h,1,0.6533217046981008,,,,,,,,,,,,,,,,,,,337,2023-11-20_13h36.10.656,leap3,2022.2.5,60.03416591635884,
,,,,,,,,,,,,,,,,,,,,4,0,4,0,,,,,,,,,,,,,,,,,,,,,,,,,,1,,,,,,,,,,,,,,,,,,337,2023-11-20_13h36.10.656,leap3,2022.2.5,60.03416591635884,
,,,,,,,,,,,,,,,,,,,,5,0,5,0,0,0,0,0,,,,,,smabled,nw,h,lower,,,,,,,1,nw,HiDemTar,h,1,0.5853578428823312,,,,,,,,,,,,,,,,,,,337,2023-11-20_13h36.10.656,leap3,2022.2.5,60.03416591635884,
,,,,,,,,,,,,,,,,,,,,5,0,5,0,1,0,1,0,,,,,,ringlat,nw,h,lower,,,,,,,1,nw,HiDemTar,h,1,0.6088164097432127,,,,,,,,,,,,,,,,,,,337,2023-11-20_13h36.10.656,leap3,2022.2.5,60.03416591635884,
,,,,,,,,,,,,,,,,,,,,5,0,5,0,2,0,2,0,,,,,,recipus,nw,h,lower,,,,,,,1,nw,HiDemTar,h,1,0.6636010707802598,,,,,,,,,,,,,,,,,,,337,2023-11-20_13h36.10.656,leap3,2022.2.5,60.03416591635884,
,,,,,,,,,,,,,,,,,,,,5,0,5,0,3,0,3,0,,,,,,previous,w,g,lower,,,,,,,1,w,HiDemTar,g,1,0.6523695498185589,,,,,,,,,,,,,,,,,,,337,2023-11-20_13h36.10.656,leap3,2022.2.5,60.03416591635884,
,,,,,,,,,,,,,,,,,,,,5,0,5,0,4,0,4,0,,,,,,binder,w,g,lower,,,,,,,1,w,HiDemTar,g,1,0.5930419578862711,,,,,,,,,,,,,,,,,,,337,2023-11-20_13h36.10.656,leap3,2022.2.5,60.03416591635884,
,,,,,,,,,,,,,,,,,,,,5,0,5,0,5,0,5,0,,,,,,stooping,w,g,lower,,,,,,,1,w,HiDemTar,g,1,0.9844785894301822,,,,,,,,,,,,,,,,,,,337,2023-11-20_13h36.10.656,leap3,2022.2.5,60.03416591635884,
,,,,,,,,,,,,,,,,,,,,5,0,5,0,6,0,6,0,,,,,,divider,w,g,lower,,,,,,,1,w,HiDemTar,g,1,0.5830208257425511,,,,,,,,,,,,,,,,,,,337,2023-11-20_13h36.10.656,leap3,2022.2.5,60.03416591635884,
,,,,,,,,,,,,,,,,,,,,5,0,5,0,7,0,7,0,,,,,,chyme,nw,h,lower,,,,,,,1,nw,HiDemTar,g,0,0.7429669541706971,,,,,,,,,,,,,,,,,,,337,2023-11-20_13h36.10.656,leap3,2022.2.5,60.03416591635884,
,,,,,,,,,,,,,,,,,,,,5,0,5,0,8,0,8,0,,,,,,elpired,nw,h,lower,,,,,,,1,nw,HiDemTar,h,1,0.6403775630160453,,,,,,,,,,,,,,,,,,,337,2023-11-20_13h36.10.656,leap3,2022.2.5,60.03416591635884,
,,,,,,,,,,,,,,,,,,,,5,0,5,0,9,0,9,0,,,,,,yellep,nw,h,lower,,,,,,,1,nw,HiDemTar,h,1,0.5737535380567351,,,,,,,,,,,,,,,,,,,337,2023-11-20_13h36.10.656,leap3,2022.2.5,60.03416591635884,
,,,,,,,,,,,,,,,,,,,,5,0,5,0,10,0,10,0,,,,,,fisco,nw,h,lower,,,,,,,1,nw,HiDemTar,g,0,0.7258784888508671,,,,,,,,,,,,,,,,,,,337,2023-11-20_13h36.10.656,leap3,2022.2.5,60.03416591635884,
,,,,,,,,,,,,,,,,,,,,5,0,5,0,11,0,11,0,,,,,,rodeo,w,g,lower,,,,,,,1,w,HiDemTar,g,1,0.5838859094351392,,,,,,,,,,,,,,,,,,,337,2023-11-20_13h36.10.656,leap3,2022.2.5,60.03416591635884,
,,,,,,,,,,,,,,,,,,,,5,0,5,0,12,0,12,0,,,,,,organize,w,g,lower,,,,,,,1,w,HiDemTar,g,1,1.007329313329592,,,,,,,,,,,,,,,,,,,337,2023-11-20_13h36.10.656,leap3,2022.2.5,60.03416591635884,
,,,,,,,,,,,,,,,,,,,,5,0,5,0,13,0,13,0,,,,,,formation,w,g,lower,,,,,,,1,w,HiDemTar,g,1,0.6060913795586202,,,,,,,,,,,,,,,,,,,337,2023-11-20_13h36.10.656,leap3,2022.2.5,60.03416591635884,
,,,,,,,,,,,,,,,,,,,,5,0,5,0,14,0,14,0,,,,,,casino,w,g,lower,,,,,,,1,w,HiDemTar,g,1,0.5568537821536665,,,,,,,,,,,,,,,,,,,337,2023-11-20_13h36.10.656,leap3,2022.2.5,60.03416591635884,
,,,,,,,,,,,,,,,,,,,,5,0,5,0,15,0,15,0,,,,,,halents,nw,h,lower,,,,,,,1,nw,HiDemTar,h,1,0.6525201862823451,,,,,,,,,,,,,,,,,,,337,2023-11-20_13h36.10.656,leap3,2022.2.5,60.03416591635884,
,,,,,,,,,,,,,,,,,,,,5,0,5,0,16,0,16,0,,,,,,gund,nw,h,lower,,,,,,,1,nw,HiDemTar,h,1,0.5692261674107613,,,,,,,,,,,,,,,,,,,337,2023-11-20_13h36.10.656,leap3,2022.2.5,60.03416591635884,
,,,,,,,,,,,,,,,,,,,,5,0,5,0,17,0,17,0,,,,,,cherry,w,g,lower,,,,,,,1,w,HiDemTar,g,1,0.5453673379456632,,,,,,,,,,,,,,,,,,,337,2023-11-20_13h36.10.656,leap3,2022.2.5,60.03416591635884,
,,,,,,,,,,,,,,,,,,,,5,0,5,0,18,0,18,0,,,,,,acting,w,g,lower,,,,,,,1,w,HiDemTar,g,1,0.9387307919500927,,,,,,,,,,,,,,,,,,,337,2023-11-20_13h36.10.656,leap3,2022.2.5,60.03416591635884,
,,,,,,,,,,,,,,,,,,,,5,0,5,0,19,0,19,0,,,,,,baults,nw,h,lower,,,,,,,1,nw,HiDemTar,h,1,0.5560307442433441,,,,,,,,,,,,,,,,,,,337,2023-11-20_13h36.10.656,leap3,2022.2.5,60.03416591635884,
,,,,,,,,,,,,,,,,,,,,5,0,5,0,20,0,20,0,,,,,,derisury,nw,h,lower,,,,,,,1,nw,HiDemTar,h,1,0.6528294048698626,,,,,,,,,,,,,,,,,,,337,2023-11-20_13h36.10.656,leap3,2022.2.5,60.03416591635884,
,,,,,,,,,,,,,,,,,,,,5,0,5,0,21,0,21,0,,,,,,fudden,nw,h,lower,,,,,,,1,nw,HiDemTar,h,1,0.7373894321763146,,,,,,,,,,,,,,,,,,,337,2023-11-20_13h36.10.656,leap3,2022.2.5,60.03416591635884,
,,,,,,,,,,,,,,,,,,,,5,0,5,0,22,0,22,0,,,,,,enunciate,w,g,lower,,,,,,,1,w,HiDemTar,g,1,0.6988049779256471,,,,,,,,,,,,,,,,,,,337,2023-11-20_13h36.10.656,leap3,2022.2.5,60.03416591635884,
,,,,,,,,,,,,,,,,,,,,5,0,5,0,23,0,23,0,,,,,,jungle,w,g,lower,,,,,,,1,w,HiDemTar,g,1,0.7104523217412861,,,,,,,,,,,,,,,,,,,337,2023-11-20_13h36.10.656,leap3,2022.2.5,60.03416591635884,
,,,,,,,,,,,,,,,,,,,,5,0,5,0,24,0,24,0,,,,,,rabbit,target,q,lower,,,,,,,1,target,HiDemTar,q,1,0.6081049421372882,,1,,,,,,,,,,,,,,,,,337,2023-11-20_13h36.10.656,leap3,2022.2.5,60.03416591635884,
,,,,,,,,,,,,,,,,,,,,5,0,5,0,25,0,25,0,,,,,,huntry,nw,h,lower,,,,,,,1,aftertar1,HiDemTar,h,1,0.7269087760505499,,,,,,,,,,,,,,,,,,,337,2023-11-20_13h36.10.656,leap3,2022.2.5,60.03416591635884,
,,,,,,,,,,,,,,,,,,,,5,0,5,0,26,0,26,0,,,,,,harder,w,g,lower,,,,,,,1,aftertar2,HiDemTar,g,1,0.6490303863574809,,,,,,,,,,,,,,,,,,,337,2023-11-20_13h36.10.656,leap3,2022.2.5,60.03416591635884,
,,,,,,,,,,,,,,,,,,,,5,0,5,0,27,0,27,0,,,,,,kettle,w,g,lower,,,,,,,1,aftertar3,HiDemTar,g,1,0.774390713745106,,,,,,,,,,,,,,,,,,,337,2023-11-20_13h36.10.656,leap3,2022.2.5,60.03416591635884,
,,,,,,,,,,,,,,,,,,,,5,0,5,0,28,0,28,0,,,,,,stranded,w,g,lower,,,,,,,1,w,HiDemTar,g,1,0.7104245119326151,,,,,,,,,,,,,,,,,,,337,2023-11-20_13h36.10.656,leap3,2022.2.5,60.03416591635884,
,,,,,,,,,,,,,,,,,,,,5,0,5,0,29,0,29,0,,,,,,reddar,nw,h,lower,,,,,,,1,w,HiDemTar,h,1,0.8812085201006994,,,,,,,,,,,,,,,,,,,337,2023-11-20_13h36.10.656,leap3,2022.2.5,60.03416591635884,
,,,,,,,,,,,,,,,,,,,,5,0,5,0,,,,,,,,,,,,,,,,,,,,,,,,,,1,,,,,,,,,,,,,,,,,,337,2023-11-20_13h36.10.656,leap3,2022.2.5,60.03416591635884,
,,,,,,,,,,,,,,,,,,,,6,0,6,0,0,0,0,0,,,,,,gontracts,nw,h,lower,,,,,,,1,nw,HiDemTar,h,1,0.5965827424606687,,,,,,,,,,,,,,,,,,,337,2023-11-20_13h36.10.656,leap3,2022.2.5,60.03416591635884,
,,,,,,,,,,,,,,,,,,,,6,0,6,0,1,0,1,0,,,,,,dariner,nw,h,lower,,,,,,,1,nw,HiDemTar,h,1,0.6360263211595338,,,,,,,,,,,,,,,,,,,337,2023-11-20_13h36.10.656,leap3,2022.2.5,60.03416591635884,
,,,,,,,,,,,,,,,,,,,,6,0,6,0,2,0,2,0,,,,,,whirling,w,g,lower,,,,,,,1,w,HiDemTar,g,1,0.5613771799694405,,,,,,,,,,,,,,,,,,,337,2023-11-20_13h36.10.656,leap3,2022.2.5,60.03416591635884,
,,,,,,,,,,,,,,,,,,,,6,0,6,0,3,0,3,0,,,,,,image,w,g,lower,,,,,,,1,w,HiDemTar,g,1,0.6100655336517775,,,,,,,,,,,,,,,,,,,337,2023-11-20_13h36.10.656,leap3,2022.2.5,60.03416591635884,
,,,,,,,,,,,,,,,,,,,,6,0,6,0,4,0,4,0,,,,,,labitable,nw,h,lower,,,,,,,1,nw,HiDemTar,h,1,0.6488651828512957,,,,,,,,,,,,,,,,,,,337,2023-11-20_13h36.10.656,leap3,2022.2.5,60.03416591635884,
,,,,,,,,,,,,,,,,,,,,6,0,6,0,5,0,5,0,,,,,,permute,w,g,lower,,,,,,,1,w,HiDemTar,h,0,0.7663252070783528,,,,,,,,,,,,,,,,,,,337,2023-11-20_13h36.10.656,leap3,2022.2.5,60.03416591635884,
,,,,,,,,,,,,,,,,,,,,6,0,6,0,6,0,6,0,,,,,,guffy,nw,h,lower,,,,,,,1,nw,HiDemTar,h,1,0.6469976217676958,,,,,,,,,,,,,,,,,,,337,2023-11-20_13h36.10.656,leap3,2022.2.5,60.03416591635884,
,,,,,,,,,,,,,,,,,,,,6,0,6,0,7,0,7,0,,,,,,insertion,w,g,lower,,,,,,,1,w,HiDemTar,g,1,0.5803977648561158,,,,,,,,,,,,,,,,,,,337,2023-11-20_13h36.10.656,leap3,2022.2.5,60.03416591635884,
,,,,,,,,,,,,,,,,,,,,6,0,6,0,8,0,8,0,,,,,,culer,nw,h,lower,,,,,,,1,nw,HiDemTar,h,1,0.6034957974111421,,,,,,,,,,,,,,,,,,,337,2023-11-20_13h36.10.656,leap3,2022.2.5,60.03416591635884,
,,,,,,,,,,,,,,,,,,,,6,0,6,0,9,0,9,0,,,,,,century,w,g,lower,,,,,,,1,w,HiDemTar,g,1,0.5141236799890976,,,,,,,,,,,,,,,,,,,337,2023-11-20_13h36.10.656,leap3,2022.2.5,60.03416591635884,
,,,,,,,,,,,,,,,,,,,,6,0,6,0,10,0,10,0,,,,,,sefine,nw,h,lower,,,,,,,1,nw,HiDemTar,h,1,0.5809076113491756,,,,,,,,,,,,,,,,,,,337,2023-11-20_13h36.10.656,leap3,2022.2.5,60.03416591635884,
,,,,,,,,,,,,,,,,,,,,6,0,6,0,11,0,11,0,,,,,,gigglod,nw,h,lower,,,,,,,1,nw,HiDemTar,h,1,0.5809956757429973,,,,,,,,,,,,,,,,,,,337,2023-11-20_13h36.10.656,leap3,2022.2.5,60.03416591635884,
,,,,,,,,,,,,,,,,,,,,6,0,6,0,12,0,12,0,,,,,,porcupine,target,q,lower,,,,,,,1,target,HiDemTar,g,0,0.5649633210173306,,,,,,,,,,,,,,,,,,,337,2023-11-20_13h36.10.656,leap3,2022.2.5,60.03416591635884,
,,,,,,,,,,,,,,,,,,,,6,0,6,0,13,0,13,0,,,,,,trises,nw,h,lower,,,,,,,1,aftertar1,HiDemTar,h,1,0.645630306172734,,,,,,,,,,,,,,,,,,,337,2023-11-20_13h36.10.656,leap3,2022.2.5,60.03416591635884,
,,,,,,,,,,,,,,,,,,,,6,0,6,0,14,0,14,0,,,,,,sprea,nw,h,lower,,,,,,,1,aftertar2,HiDemTar,h,1,0.6270947375928699,,,,,,,,,,,,,,,,,,,337,2023-11-20_13h36.10.656,leap3,2022.2.5,60.03416591635884,
,,,,,,,,,,,,,,,,,,,,6,0,6,0,15,0,15,0,,,,,,ounside,nw,h,lower,,,,,,,1,aftertar3,HiDemTar,h,1,0.6647949061398322,,,,,,,,,,,,,,,,,,,337,2023-11-20_13h36.10.656,leap3,2022.2.5,60.03416591635884,
,,,,,,,,,,,,,,,,,,,,6,0,6,0,16,0,16,0,,,,,,bullet,w,g,lower,,,,,,,1,nw,HiDemTar,g,1,0.6939329642937082,,,,,,,,,,,,,,,,,,,337,2023-11-20_13h36.10.656,leap3,2022.2.5,60.03416591635884,
,,,,,,,,,,,,,,,,,,,,6,0,6,0,17,0,17,0,,,,,,equitable,w,g,lower,,,,,,,1,w,HiDemTar,h,0,0.6333804165014953,,,,,,,,,,,,,,,,,,,337,2023-11-20_13h36.10.656,leap3,2022.2.5,60.03416591635884,
,,,,,,,,,,,,,,,,,,,,6,0,6,0,18,0,18,0,,,,,,splinging,nw,h,lower,,,,,,,1,w,HiDemTar,h,1,0.6783598024808271,,,,,,,,,,,,,,,,,,,337,2023-11-20_13h36.10.656,leap3,2022.2.5,60.03416591635884,
,,,,,,,,,,,,,,,,,,,,6,0,6,0,19,0,19,0,,,,,,personify,w,g,lower,,,,,,,1,nw,HiDemTar,g,1,0.7944187420594062,,,,,,,,,,,,,,,,,,,337,2023-11-20_13h36.10.656,leap3,2022.2.5,60.03416591635884,
,,,,,,,,,,,,,,,,,,,,6,0,6,0,20,0,20,0,,,,,,oppose,w,g,lower,,,,,,,1,w,HiDemTar,g,1,0.6419286219907008,,,,,,,,,,,,,,,,,,,337,2023-11-20_13h36.10.656,leap3,2022.2.5,60.03416591635884,
,,,,,,,,,,,,,,,,,,,,6,0,6,0,21,0,21,0,,,,,,nogwhell,nw,h,lower,,,,,,,1,w,HiDemTar,h,1,0.575311880551908,,,,,,,,,,,,,,,,,,,337,2023-11-20_13h36.10.656,leap3,2022.2.5,60.03416591635884,
,,,,,,,,,,,,,,,,,,,,6,0,6,0,22,0,22,0,,,,,,vented,w,g,lower,,,,,,,1,nw,HiDemTar,g,1,0.5513550546183978,,,,,,,,,,,,,,,,,,,337,2023-11-20_13h36.10.656,leap3,2022.2.5,60.03416591635884,
,,,,,,,,,,,,,,,,,,,,6,0,6,0,23,0,23,0,,,,,,maiden,w,g,lower,,,,,,,1,w,HiDemTar,g,1,0.6960948458527128,,,,,,,,,,,,,,,,,,,337,2023-11-20_13h36.10.656,leap3,2022.2.5,60.03416591635884,
,,,,,,,,,,,,,,,,,,,,6,0,6,0,24,0,24,0,,,,,,begut,nw,h,lower,,,,,,,1,w,HiDemTar,h,1,0.5555076549840123,,,,,,,,,,,,,,,,,,,337,2023-11-20_13h36.10.656,leap3,2022.2.5,60.03416591635884,
,,,,,,,,,,,,,,,,,,,,6,0,6,0,25,0,25,0,,,,,,regards,w,g,lower,,,,,,,1,nw,HiDemTar,g,1,0.5882388066374915,,,,,,,,,,,,,,,,,,,337,2023-11-20_13h36.10.656,leap3,2022.2.5,60.03416591635884,
,,,,,,,,,,,,,,,,,,,,6,0,6,0,26,0,26,0,,,,,,haurded,nw,h,lower,,,,,,,1,w,HiDemTar,h,1,0.5876584424154316,,,,,,,,,,,,,,,,,,,337,2023-11-20_13h36.10.656,leap3,2022.2.5,60.03416591635884,
,,,,,,,,,,,,,,,,,,,,6,0,6,0,27,0,27,0,,,,,,suddenly,w,g,lower,,,,,,,1,nw,HiDemTar,g,1,0.5461529650419834,,,,,,,,,,,,,,,,,,,337,2023-11-20_13h36.10.656,leap3,2022.2.5,60.03416591635884,
,,,,,,,,,,,,,,,,,,,,6,0,6,0,28,0,28,0,,,,,,duplex,w,g,lower,,,,,,,1,w,HiDemTar,g,1,0.6354433083838558,,,,,,,,,,,,,,,,,,,337,2023-11-20_13h36.10.656,leap3,2022.2.5,60.03416591635884,
,,,,,,,,,,,,,,,,,,,,6,0,6,0,29,0,29,0,,,,,,sheerio,nw,h,lower,,,,,,,1,w,HiDemTar,h,1,0.6248573722673427,,,,,,,,,,,,,,,,,,,337,2023-11-20_13h36.10.656,leap3,2022.2.5,60.03416591635884,
,,,,,,,,,,,,,,,,,,,,6,0,6,0,,,,,,,,,,,,,,,,,,,,,,,,,,0,,,,,,,,,,,,,,,,,,337,2023-11-20_13h36.10.656,leap3,2022.2.5,60.03416591635884,
,,,,,,,,,,,,,,,,,,,,7,0,7,0,0,0,0,0,,,,,,minimum,w,g,upper,,,,,,,4,w,LoDemTar,g,1,0.5112261627759835,,,,,,,,,,,,,,,,,,,337,2023-11-20_13h36.10.656,leap3,2022.2.5,60.03416591635884,
,,,,,,,,,,,,,,,,,,,,7,0,7,0,1,0,1,0,,,,,,batire,nw,h,upper,,,,,,,4,nw,LoDemTar,h,1,0.63396078072401,,,,,,,,,,,,,,,,,,,337,2023-11-20_13h36.10.656,leap3,2022.2.5,60.03416591635884,
,,,,,,,,,,,,,,,,,,,,7,0,7,0,2,0,2,0,,,,,,portify,nw,h,upper,,,,,,,4,nw,LoDemTar,h,1,0.423431589860229,,,,,,,,,,,,,,,,,,,337,2023-11-20_13h36.10.656,leap3,2022.2.5,60.03416591635884,
,,,,,,,,,,,,,,,,,,,,7,0,7,0,3,0,3,0,,,,,,bypassed,w,g,upper,,,,,,,4,w,LoDemTar,g,1,0.628453776459537,,,,,,,,,,,,,,,,,,,337,2023-11-20_13h36.10.656,leap3,2022.2.5,60.03416591635884,
,,,,,,,,,,,,,,,,,,,,7,0,7,0,4,0,4,0,,,,,,inside,w,g,upper,,,,,,,4,w,LoDemTar,g,1,0.5144408442361055,,,,,,,,,,,,,,,,,,,337,2023-11-20_13h36.10.656,leap3,2022.2.5,60.03416591635884,
,,,,,,,,,,,,,,,,,,,,7,0,7,0,5,0,5,0,,,,,,rootsie,nw,h,upper,,,,,,,4,nw,LoDemTar,h,1,0.5891879818950656,,,,,,,,,,,,,,,,,,,337,2023-11-20_13h36.10.656,leap3,2022.2.5,60.03416591635884,
,,,,,,,,,,,,,,,,,,,,7,0,7,0,6,0,6,0,,,,,,slutches,nw,h,upper,,,,,,,4,nw,LoDemTar,h,1,0.6766352632707822,,,,,,,,,,,,,,,,,,,337,2023-11-20_13h36.10.656,leap3,2022.2.5,60.03416591635884,
,,,,,,,,,,,,,,,,,,,,7,0,7,0,7,0,7,0,,,,,,scrobby,nw,h,upper,,,,,,,4,nw,LoDemTar,h,1,0.6320736865609433,,,,,,,,,,,,,,,,,,,337,2023-11-20_13h36.10.656,leap3,2022.2.5,60.03416591635884,
,,,,,,,,,,,,,,,,,,,,7,0,7,0,8,0,8,0,,,,,,rander,nw,h,upper,,,,,,,4,nw,LoDemTar,h,1,0.6220111707730211,,,,,,,,,,,,,,,,,,,337,2023-11-20_13h36.10.656,leap3,2022.2.5,60.03416591635884,
,,,,,,,,,,,,,,,,,,,,7,0,7,0,9,0,9,0,,,,,,cookbook,w,g,upper,,,,,,,4,w,LoDemTar,g,1,0.532075242585961,,,,,,,,,,,,,,,,,,,337,2023-11-20_13h36.10.656,leap3,2022.2.5,60.03416591635884,
,,,,,,,,,,,,,,,,,,,,7,0,7,0,10,0,10,0,,,,,,confined,w,g,upper,,,,,,,4,w,LoDemTar,g,1,0.8779481510978258,,,,,,,,,,,,,,,,,,,337,2023-11-20_13h36.10.656,leap3,2022.2.5,60.03416591635884,
,,,,,,,,,,,,,,,,,,,,7,0,7,0,11,0,11,0,,,,,,brouhuha,nw,h,upper,,,,,,,4,nw,LoDemTar,h,1,0.5696161668711284,,,,,,,,,,,,,,,,,,,337,2023-11-20_13h36.10.656,leap3,2022.2.5,60.03416591635884,
,,,,,,,,,,,,,,,,,,,,7,0,7,0,12,0,12,0,,,,,,infested,w,g,upper,,,,,,,4,w,LoDemTar,g,1,0.5608024439225119,,,,,,,,,,,,,,,,,,,337,2023-11-20_13h36.10.656,leap3,2022.2.5,60.03416591635884,
,,,,,,,,,,,,,,,,,,,,7,0,7,0,13,0,13,0,,,,,,violate,w,g,upper,,,,,,,4,w,LoDemTar,g,1,0.657499797388482,,,,,,,,,,,,,,,,,,,337,2023-11-20_13h36.10.656,leap3,2022.2.5,60.03416591635884,
,,,,,,,,,,,,,,,,,,,,7,0,7,0,14,0,14,0,,,,,,ladybug,target,q,upper,,,,,,,4,target,LoDemTar,q,1,0.6855092408054588,,1,,,,,,,,,,,,,,,,,337,2023-11-20_13h36.10.656,leap3,2022.2.5,60.03416591635884,
,,,,,,,,,,,,,,,,,,,,7,0,7,0,15,0,15,0,,,,,,schinter,nw,h,upper,,,,,,,4,aftertar1,LoDemTar,h,1,0.5610620021375325,,,,,,,,,,,,,,,,,,,337,2023-11-20_13h36.10.656,leap3,2022.2.5,60.03416591635884,
,,,,,,,,,,,,,,,,,,,,7,0,7,0,16,0,16,0,,,,,,apology,w,g,upper,,,,,,,4,aftertar2,LoDemTar,g,1,0.5850794137259072,,,,,,,,,,,,,,,,,,,337,2023-11-20_13h36.10.656,leap3,2022.2.5,60.03416591635884,
,,,,,,,,,,,,,,,,,,,,7,0,7,0,17,0,17,0,,,,,,lasprey,nw,h,upper,,,,,,,4,aftertar3,LoDemTar,h,1,0.6006015908897098,,,,,,,,,,,,,,,,,,,337,2023-11-20_13h36.10.656,leap3,2022.2.5,60.03416591635884,
,,,,,,,,,,,,,,,,,,,,7,0,7,0,18,0,18,0,,,,,,vivid,w,g,upper,,,,,,,4,nw,LoDemTar,g,1,1.1592235089256064,,,,,,,,,,,,,,,,,,,337,2023-11-20_13h36.10.656,leap3,2022.2.5,60.03416591635884,
,,,,,,,,,,,,,,,,,,,,7,0,7,0,19,0,19,0,,,,,,gonesty,nw,h,upper,,,,,,,4,w,LoDemTar,h,1,0.5592894579008316,,,,,,,,,,,,,,,,,,,337,2023-11-20_13h36.10.656,leap3,2022.2.5,60.03416591635884,
,,,,,,,,,,,,,,,,,,,,7,0,7,0,20,0,20,0,,,,,,sampling,w,g,upper,,,,,,,4,nw,LoDemTar,g,1,1.0393324439191929,,,,,,,,,,,,,,,,,,,337,2023-11-20_13h36.10.656,leap3,2022.2.5,60.03416591635884,
,,,,,,,,,,,,,,,,,,,,7,0,7,0,21,0,21,0,,,,,,postal,w,g,upper,,,,,,,4,w,LoDemTar,g,1,0.7311623525079085,,,,,,,,,,,,,,,,,,,337,2023-11-20_13h36.10.656,leap3,2022.2.5,60.03416591635884,
,,,,,,,,,,,,,,,,,,,,7,0,7,0,22,0,22,0,,,,,,cavern,w,g,upper,,,,,,,4,w,LoDemTar,g,1,0.4925532004986053,,,,,,,,,,,,,,,,,,,337,2023-11-20_13h36.10.656,leap3,2022.2.5,60.03416591635884,
,,,,,,,,,,,,,,,,,,,,7,0,7,0,23,0,23,0,,,,,,emergence,w,g,upper,,,,,,,4,w,LoDemTar,g,1,0.6073001130298508,,,,,,,,,,,,,,,,,,,337,2023-11-20_13h36.10.656,leap3,2022.2.5,60.03416591635884,
,,,,,,,,,,,,,,,,,,,,7,0,7,0,24,0,24,0,,,,,,argue,w,g,upper,,,,,,,4,w,LoDemTar,g,1,0.4293560723244809,,,,,,,,,,,,,,,,,,,337,2023-11-20_13h36.10.656,leap3,2022.2.5,60.03416591635884,
,,,,,,,,,,,,,,,,,,,,7,0,7,0,25,0,25,0,,,,,,asclibed,nw,h,upper,,,,,,,4,w,LoDemTar,h,1,0.6507062584018968,,,,,,,,,,,,,,,,,,,337,2023-11-20_13h36.10.656,leap3,2022.2.5,60.03416591635884,
,,,,,,,,,,,,,,,,,,,,7,0,7,0,26,0,26,0,,,,,,tritical,nw,h,upper,,,,,,,4,nw,LoDemTar,h,1,0.6794390879140337,,,,,,,,,,,,,,,,,,,337,2023-11-20_13h36.10.656,leap3,2022.2.5,60.03416591635884,
,,,,,,,,,,,,,,,,,,,,7,0,7,0,27,0,27,0,,,,,,elbalm,nw,h,upper,,,,,,,4,nw,LoDemTar,g,0,0.6348996928372799,,,,,,,,,,,,,,,,,,,337,2023-11-20_13h36.10.656,leap3,2022.2.5,60.03416591635884,
,,,,,,,,,,,,,,,,,,,,7,0,7,0,28,0,28,0,,,,,,metrol,nw,h,upper,,,,,,,4,nw,LoDemTar,g,0,0.8802960935195188,,,,,,,,,,,,,,,,,,,337,2023-11-20_13h36.10.656,leap3,2022.2.5,60.03416591635884,
,,,,,,,,,,,,,,,,,,,,7,0,7,0,29,0,29,0,,,,,,ebuating,nw,h,upper,,,,,,,4,nw,LoDemTar,h,1,1.011713662101556,,,,,,,,,,,,,,,,,,,337,2023-11-20_13h36.10.656,leap3,2022.2.5,60.03416591635884,
,,,,,,,,,,,,,,,,,,,,7,0,7,0,,,,,,,,,,,,,,,,,,,,,,,,,,1,,,,,,,,,,,,,,,,,,337,2023-11-20_13h36.10.656,leap3,2022.2.5,60.03416591635884,
,,,,,,,,,,,,,,,,,,,,8,0,8,0,0,0,0,0,,,,,,cassette,w,g,upper,,,,,,,3,w,LoDemNoTar,g,1,0.6737440363717724,,,,,,,,,,,,,,,,,,,337,2023-11-20_13h36.10.656,leap3,2022.2.5,60.03416591635884,
,,,,,,,,,,,,,,,,,,,,8,0,8,0,1,0,1,0,,,,,,amidst,w,g,upper,,,,,,,3,w,LoDemNoTar,g,1,0.6530899562922059,,,,,,,,,,,,,,,,,,,337,2023-11-20_13h36.10.656,leap3,2022.2.5,60.03416591635884,
,,,,,,,,,,,,,,,,,,,,8,0,8,0,2,0,2,0,,,,,,gallon,w,g,upper,,,,,,,3,w,LoDemNoTar,g,1,0.5771599085555863,,,,,,,,,,,,,,,,,,,337,2023-11-20_13h36.10.656,leap3,2022.2.5,60.03416591635884,
,,,,,,,,,,,,,,,,,,,,8,0,8,0,3,0,3,0,,,,,,mantos,nw,h,upper,,,,,,,3,nw,LoDemNoTar,h,1,0.5772353923216542,,,,,,,,,,,,,,,,,,,337,2023-11-20_13h36.10.656,leap3,2022.2.5,60.03416591635884,
,,,,,,,,,,,,,,,,,,,,8,0,8,0,4,0,4,0,,,,,,ebince,nw,h,upper,,,,,,,3,nw,LoDemNoTar,h,1,0.6406569853802466,,,,,,,,,,,,,,,,,,,337,2023-11-20_13h36.10.656,leap3,2022.2.5,60.03416591635884,
,,,,,,,,,,,,,,,,,,,,8,0,8,0,5,0,5,0,,,,,,gaining,w,g,upper,,,,,,,3,w,LoDemNoTar,g,1,1.0684029639655819,,,,,,,,,,,,,,,,,,,337,2023-11-20_13h36.10.656,leap3,2022.2.5,60.03416591635884,
,,,,,,,,,,,,,,,,,,,,8,0,8,0,6,0,6,0,,,,,,gairs,nw,h,upper,,,,,,,3,nw,LoDemNoTar,h,1,1.4805400252703294,,,,,,,,,,,,,,,,,,,337,2023-11-20_13h36.10.656,leap3,2022.2.5,60.03416591635884,
,,,,,,,,,,,,,,,,,,,,8,0,8,0,7,0,7,0,,,,,,machinery,w,g,upper,,,,,,,3,w,LoDemNoTar,g,1,0.6040228595002191,,,,,,,,,,,,,,,,,,,337,2023-11-20_13h36.10.656,leap3,2022.2.5,60.03416591635884,
,,,,,,,,,,,,,,,,,,,,8,0,8,0,8,0,8,0,,,,,,rumblos,nw,h,upper,,,,,,,3,nw,LoDemNoTar,h,1,0.5620879854373015,,,,,,,,,,,,,,,,,,,337,2023-11-20_13h36.10.656,leap3,2022.2.5,60.03416591635884,
,,,,,,,,,,,,,,,,,,,,8,0,8,0,9,0,9,0,,,,,,melodic,w,g,upper,,,,,,,3,w,LoDemNoTar,g,1,0.6821657734453765,,,,,,,,,,,,,,,,,,,337,2023-11-20_13h36.10.656,leap3,2022.2.5,60.03416591635884,
,,,,,,,,,,,,,,,,,,,,8,0,8,0,10,0,10,0,,,,,,punctual,w,g,upper,,,,,,,3,w,LoDemNoTar,g,1,0.6782174427453356,,,,,,,,,,,,,,,,,,,337,2023-11-20_13h36.10.656,leap3,2022.2.5,60.03416591635884,
,,,,,,,,,,,,,,,,,,,,8,0,8,0,11,0,11,0,,,,,,edasion,nw,h,upper,,,,,,,3,nw,LoDemNoTar,h,1,0.7696123926830296,,,,,,,,,,,,,,,,,,,337,2023-11-20_13h36.10.656,leap3,2022.2.5,60.03416591635884,
,,,,,,,,,,,,,,,,,,,,8,0,8,0,12,0,12,0,,,,,,serfume,nw,h,upper,,,,,,,3,nw,LoDemNoTar,h,1,0.5370098282874096,,,,,,,,,,,,,,,,,,,337,2023-11-20_13h36.10.656,leap3,2022.2.5,60.03416591635884,
,,,,,,,,,,,,,,,,,,,,8,0,8,0,13,0,13,0,,,,,,trocess,nw,h,upper,,,,,,,3,nw,LoDemNoTar,h,1,0.5617655240839667,,,,,,,,,,,,,,,,,,,337,2023-11-20_13h36.10.656,leap3,2022.2.5,60.03416591635884,
,,,,,,,,,,,,,,,,,,,,8,0,8,0,14,0,14,0,,,,,,saucer,w,g,upper,,,,,,,3,w,LoDemNoTar,g,1,0.6088614351483557,,,,,,,,,,,,,,,,,,,337,2023-11-20_13h36.10.656,leap3,2022.2.5,60.03416591635884,
,,,,,,,,,,,,,,,,,,,,8,0,8,0,15,0,15,0,,,,,,defensa,nw,h,upper,,,,,,,3,nw,LoDemNoTar,h,1,0.5349399839528814,,,,,,,,,,,,,,,,,,,337,2023-11-20_13h36.10.656,leap3,2022.2.5,60.03416591635884,
,,,,,,,,,,,,,,,,,,,,8,0,8,0,16,0,16,0,,,,,,handed,w,g,upper,,,,,,,3,w,LoDemNoTar,g,1,0.5523949428225023,,,,,,,,,,,,,,,,,,,337,2023-11-20_13h36.10.656,leap3,2022.2.5,60.03416591635884,
,,,,,,,,,,,,,,,,,,,,8,0,8,0,17,0,17,0,,,,,,gepealed,nw,h,upper,,,,,,,3,nw,LoDemNoTar,h,1,0.5210327621098259,,,,,,,,,,,,,,,,,,,337,2023-11-20_13h36.10.656,leap3,2022.2.5,60.03416591635884,
,,,,,,,,,,,,,,,,,,,,8,0,8,0,18,0,18,0,,,,,,clarms,nw,h,upper,,,,,,,3,nw,LoDemNoTar,h,1,0.5624352769773395,,,,,,,,,,,,,,,,,,,337,2023-11-20_13h36.10.656,leap3,2022.2.5,60.03416591635884,
,,,,,,,,,,,,,,,,,,,,8,0,8,0,19,0,19,0,,,,,,sullen,w,g,upper,,,,,,,3,w,LoDemNoTar,g,1,0.8185238869737077,,,,,,,,,,,,,,,,,,,337,2023-11-20_13h36.10.656,leap3,2022.2.5,60.03416591635884,
,,,,,,,,,,,,,,,,,,,,8,0,8,0,20,0,20,0,,,,,,tipoff,w,g,upper,,,,,,,3,w,LoDemNoTar,g,1,0.7445905172889979,,,,,,,,,,,,,,,,,,,337,2023-11-20_13h36.10.656,leap3,2022.2.5,60.03416591635884,
,,,,,,,,,,,,,,,,,,,,8,0,8,0,21,0,21,0,,,,,,dialect,w,g,upper,,,,,,,3,w,LoDemNoTar,g,1,0.6005770917727205,,,,,,,,,,,,,,,,,,,337,2023-11-20_13h36.10.656,leap3,2022.2.5,60.03416591635884,
,,,,,,,,,,,,,,,,,,,,8,0,8,0,22,0,22,0,,,,,,ciping,nw,h,upper,,,,,,,3,nw,LoDemNoTar,h,1,0.5520297735488384,,,,,,,,,,,,,,,,,,,337,2023-11-20_13h36.10.656,leap3,2022.2.5,60.03416591635884,
,,,,,,,,,,,,,,,,,,,,8,0,8,0,23,0,23,0,,,,,,midday,w,g,upper,,,,,,,3,w,LoDemNoTar,g,1,0.7838731963797727,,,,,,,,,,,,,,,,,,,337,2023-11-20_13h36.10.656,leap3,2022.2.5,60.03416591635884,
,,,,,,,,,,,,,,,,,,,,8,0,8,0,24,0,24,0,,,,,,upstairs,w,g,upper,,,,,,,3,w,LoDemNoTar,g,1,0.5272389844221834,,,,,,,,,,,,,,,,,,,337,2023-11-20_13h36.10.656,leap3,2022.2.5,60.03416591635884,
,,,,,,,,,,,,,,,,,,,,8,0,8,0,25,0,25,0,,,,,,solidity,w,g,upper,,,,,,,3,w,LoDemNoTar,g,1,0.7446342184171044,,,,,,,,,,,,,,,,,,,337,2023-11-20_13h36.10.656,leap3,2022.2.5,60.03416591635884,
,,,,,,,,,,,,,,,,,,,,8,0,8,0,26,0,26,0,,,,,,paterways,nw,h,upper,,,,,,,3,nw,LoDemNoTar,h,1,0.7052800283890974,,,,,,,,,,,,,,,,,,,337,2023-11-20_13h36.10.656,leap3,2022.2.5,60.03416591635884,
,,,,,,,,,,,,,,,,,,,,8,0,8,0,27,0,27,0,,,,,,chiffol,nw,h,upper,,,,,,,3,nw,LoDemNoTar,h,1,0.6274165368081412,,,,,,,,,,,,,,,,,,,337,2023-11-20_13h36.10.656,leap3,2022.2.5,60.03416591635884,
,,,,,,,,,,,,,,,,,,,,8,0,8,0,28,0,28,0,,,,,,mustled,nw,h,upper,,,,,,,3,nw,LoDemNoTar,h,1,0.7688370287305588,,,,,,,,,,,,,,,,,,,337,2023-11-20_13h36.10.656,leap3,2022.2.5,60.03416591635884,
,,,,,,,,,,,,,,,,,,,,8,0,8,0,29,0,29,0,,,,,,godomy,nw,h,upper,,,,,,,3,nw,LoDemNoTar,h,1,0.6727829426254175,,,,,,,,,,,,,,,,,,,337,2023-11-20_13h36.10.656,leap3,2022.2.5,60.03416591635884,
,,,,,,,,,,,,,,,,,,,,8,0,8,0,,,,,,,,,,,,,,,,,,,,,,,,,,NA,,,,,,,,,,,,,,,,,,337,2023-11-20_13h36.10.656,leap3,2022.2.5,60.03416591635884,
,,,,,,,,,,,,,,,,,,,,9,0,9,0,0,0,0,0,,,,,,acidic,w,g,lower,,,,,,,1,w,HiDemTar,g,1,0.5242358561495166,,,,,,,,,,,,,,,,,,,337,2023-11-20_13h36.10.656,leap3,2022.2.5,60.03416591635884,
,,,,,,,,,,,,,,,,,,,,9,0,9,0,1,0,1,0,,,,,,skiing,w,g,lower,,,,,,,1,w,HiDemTar,g,1,0.6295943096861265,,,,,,,,,,,,,,,,,,,337,2023-11-20_13h36.10.656,leap3,2022.2.5,60.03416591635884,
,,,,,,,,,,,,,,,,,,,,9,0,9,0,2,0,2,0,,,,,,puyer,nw,h,lower,,,,,,,1,nw,HiDemTar,h,1,0.5150635853096901,,,,,,,,,,,,,,,,,,,337,2023-11-20_13h36.10.656,leap3,2022.2.5,60.03416591635884,
,,,,,,,,,,,,,,,,,,,,9,0,9,0,3,0,3,0,,,,,,facienda,nw,h,lower,,,,,,,1,nw,HiDemTar,h,1,0.6771590146681774,,,,,,,,,,,,,,,,,,,337,2023-11-20_13h36.10.656,leap3,2022.2.5,60.03416591635884,
,,,,,,,,,,,,,,,,,,,,9,0,9,0,4,0,4,0,,,,,,quittint,nw,h,lower,,,,,,,1,nw,HiDemTar,h,1,0.6085492369384156,,,,,,,,,,,,,,,,,,,337,2023-11-20_13h36.10.656,leap3,2022.2.5,60.03416591635884,
,,,,,,,,,,,,,,,,,,,,9,0,9,0,5,0,5,0,,,,,,paying,w,g,lower,,,,,,,1,w,HiDemTar,g,1,0.5746384858980491,,,,,,,,,,,,,,,,,,,337,2023-11-20_13h36.10.656,leap3,2022.2.5,60.03416591635884,
,,,,,,,,,,,,,,,,,,,,9,0,9,0,6,0,6,0,,,,,,arrival,w,g,lower,,,,,,,1,w,HiDemTar,g,1,0.5260107178701219,,,,,,,,,,,,,,,,,,,337,2023-11-20_13h36.10.656,leap3,2022.2.5,60.03416591635884,
,,,,,,,,,,,,,,,,,,,,9,0,9,0,7,0,7,0,,,,,,volition,w,g,lower,,,,,,,1,w,HiDemTar,g,1,0.6554243248788225,,,,,,,,,,,,,,,,,,,337,2023-11-20_13h36.10.656,leap3,2022.2.5,60.03416591635884,
,,,,,,,,,,,,,,,,,,,,9,0,9,0,8,0,8,0,,,,,,comply,w,g,lower,,,,,,,1,w,HiDemTar,g,1,0.5703441879350066,,,,,,,,,,,,,,,,,,,337,2023-11-20_13h36.10.656,leap3,2022.2.5,60.03416591635884,
,,,,,,,,,,,,,,,,,,,,9,0,9,0,9,0,9,0,,,,,,epthuse,nw,h,lower,,,,,,,1,nw,HiDemTar,h,1,0.5617933338926377,,,,,,,,,,,,,,,,,,,337,2023-11-20_13h36.10.656,leap3,2022.2.5,60.03416591635884,
,,,,,,,,,,,,,,,,,,,,9,0,9,0,10,0,10,0,,,,,,practice,w,g,lower,,,,,,,1,w,HiDemTar,g,1,0.4738398477843475,,,,,,,,,,,,,,,,,,,337,2023-11-20_13h36.10.656,leap3,2022.2.5,60.03416591635884,
,,,,,,,,,,,,,,,,,,,,9,0,9,0,11,0,11,0,,,,,,huests,nw,h,lower,,,,,,,1,nw,HiDemTar,h,1,0.589318423140412,,,,,,,,,,,,,,,,,,,337,2023-11-20_13h36.10.656,leap3,2022.2.5,60.03416591635884,
,,,,,,,,,,,,,,,,,,,,9,0,9,0,12,0,12,0,,,,,,praiged,nw,h,lower,,,,,,,1,nw,HiDemTar,h,1,0.5720395930597988,,,,,,,,,,,,,,,,,,,337,2023-11-20_13h36.10.656,leap3,2022.2.5,60.03416591635884,
,,,,,,,,,,,,,,,,,,,,9,0,9,0,13,0,13,0,,,,,,throttle,w,g,lower,,,,,,,1,w,HiDemTar,g,1,0.5953869206859963,,,,,,,,,,,,,,,,,,,337,2023-11-20_13h36.10.656,leap3,2022.2.5,60.03416591635884,
,,,,,,,,,,,,,,,,,,,,9,0,9,0,14,0,14,0,,,,,,maunches,nw,h,lower,,,,,,,1,nw,HiDemTar,h,1,0.6501732370679747,,,,,,,,,,,,,,,,,,,337,2023-11-20_13h36.10.656,leap3,2022.2.5,60.03416591635884,
,,,,,,,,,,,,,,,,,,,,9,0,9,0,15,0,15,0,,,,,,graiking,nw,h,lower,,,,,,,1,nw,HiDemTar,h,1,0.6309060056637463,,,,,,,,,,,,,,,,,,,337,2023-11-20_13h36.10.656,leap3,2022.2.5,60.03416591635884,
,,,,,,,,,,,,,,,,,,,,9,0,9,0,16,0,16,0,,,,,,foster,w,g,lower,,,,,,,1,w,HiDemTar,g,1,0.5083303009087103,,,,,,,,,,,,,,,,,,,337,2023-11-20_13h36.10.656,leap3,2022.2.5,60.03416591635884,
,,,,,,,,,,,,,,,,,,,,9,0,9,0,17,0,17,0,,,,,,nature,w,g,lower,,,,,,,1,w,HiDemTar,g,1,0.5254833247122406,,,,,,,,,,,,,,,,,,,337,2023-11-20_13h36.10.656,leap3,2022.2.5,60.03416591635884,
,,,,,,,,,,,,,,,,,,,,9,0,9,0,18,0,18,0,,,,,,country,w,g,lower,,,,,,,1,w,HiDemTar,g,1,0.5828989922947585,,,,,,,,,,,,,,,,,,,337,2023-11-20_13h36.10.656,leap3,2022.2.5,60.03416591635884,
,,,,,,,,,,,,,,,,,,,,9,0,9,0,19,0,19,0,,,,,,mystery,w,g,lower,,,,,,,1,w,HiDemTar,g,1,0.4861933620995842,,,,,,,,,,,,,,,,,,,337,2023-11-20_13h36.10.656,leap3,2022.2.5,60.03416591635884,
,,,,,,,,,,,,,,,,,,,,9,0,9,0,20,0,20,0,,,,,,geissue,nw,h,lower,,,,,,,1,nw,HiDemTar,h,1,0.4888339696512958,,,,,,,,,,,,,,,,,,,337,2023-11-20_13h36.10.656,leap3,2022.2.5,60.03416591635884,
,,,,,,,,,,,,,,,,,,,,9,0,9,0,21,0,21,0,,,,,,earterner,nw,h,lower,,,,,,,1,nw,HiDemTar,h,1,0.7796149849546055,,,,,,,,,,,,,,,,,,,337,2023-11-20_13h36.10.656,leap3,2022.2.5,60.03416591635884,
,,,,,,,,,,,,,,,,,,,,9,0,9,0,22,0,22,0,,,,,,flamingo,target,q,lower,,,,,,,1,target,HiDemTar,g,0,0.5629977634653187,,,,,,,,,,,,,,,,,,,337,2023-11-20_13h36.10.656,leap3,2022.2.5,60.03416591635884,
,,,,,,,,,,,,,,,,,,,,9,0,9,0,23,0,23,0,,,,,,borrent,nw,h,lower,,,,,,,1,aftertar1,HiDemTar,h,1,0.8109268431558121,,,,,,,,,,,,,,,,,,,337,2023-11-20_13h36.10.656,leap3,2022.2.5,60.03416591635884,
,,,,,,,,,,,,,,,,,,,,9,0,9,0,24,0,24,0,,,,,,become,w,g,lower,,,,,,,1,aftertar2,HiDemTar,g,1,0.576980469074897,,,,,,,,,,,,,,,,,,,337,2023-11-20_13h36.10.656,leap3,2022.2.5,60.03416591635884,
,,,,,,,,,,,,,,,,,,,,9,0,9,0,25,0,25,0,,,,,,dests,nw,h,lower,,,,,,,1,aftertar3,HiDemTar,h,1,0.5604412474781384,,,,,,,,,,,,,,,,,,,337,2023-11-20_13h36.10.656,leap3,2022.2.5,60.03416591635884,
,,,,,,,,,,,,,,,,,,,,9,0,9,0,26,0,26,0,,,,,,thorifies,nw,h,lower,,,,,,,1,nw,HiDemTar,h,1,0.5838435325840692,,,,,,,,,,,,,,,,,,,337,2023-11-20_13h36.10.656,leap3,2022.2.5,60.03416591635884,
,,,,,,,,,,,,,,,,,,,,9,0,9,0,27,0,27,0,,,,,,gelfry,nw,h,lower,,,,,,,1,nw,HiDemTar,h,1,0.5909446348123311,,,,,,,,,,,,,,,,,,,337,2023-11-20_13h36.10.656,leap3,2022.2.5,60.03416591635884,
,,,,,,,,,,,,,,,,,,,,9,0,9,0,28,0,28,0,,,,,,lenie,nw,h,lower,,,,,,,1,nw,HiDemTar,h,1,0.6776380717305983,,,,,,,,,,,,,,,,,,,337,2023-11-20_13h36.10.656,leap3,2022.2.5,60.03416591635884,
,,,,,,,,,,,,,,,,,,,,9,0,9,0,29,0,29,0,,,,,,antonym,w,g,lower,,,,,,,1,nw,HiDemTar,g,1,0.66511604321704,,,,,,,,,,,,,,,,,,,337,2023-11-20_13h36.10.656,leap3,2022.2.5,60.03416591635884,
,,,,,,,,,,,,,,,,,,,,9,0,9,0,,,,,,,,,,,,,,,,,,,,,,,,,,0,,,,,,,,,,,,,,,,,,337,2023-11-20_13h36.10.656,leap3,2022.2.5,60.03416591635884,
,,,,,,,,,,,,,,,,,,,,10,0,10,0,0,0,0,0,,,,,,shimble,nw,h,upper,,,,,,,3,nw,LoDemNoTar,h,1,0.5020661414946517,,,,,,,,,,,,,,,,,,,337,2023-11-20_13h36.10.656,leap3,2022.2.5,60.03416591635884,
,,,,,,,,,,,,,,,,,,,,10,0,10,0,1,0,1,0,,,,,,blassed,nw,h,upper,,,,,,,3,nw,LoDemNoTar,h,1,0.7048608948430228,,,,,,,,,,,,,,,,,,,337,2023-11-20_13h36.10.656,leap3,2022.2.5,60.03416591635884,
,,,,,,,,,,,,,,,,,,,,10,0,10,0,2,0,2,0,,,,,,hivinity,nw,h,upper,,,,,,,3,nw,LoDemNoTar,h,1,0.4979350606231492,,,,,,,,,,,,,,,,,,,337,2023-11-20_13h36.10.656,leap3,2022.2.5,60.03416591635884,
,,,,,,,,,,,,,,,,,,,,10,0,10,0,3,0,3,0,,,,,,resent,w,g,upper,,,,,,,3,w,LoDemNoTar,g,1,0.6766971732026832,,,,,,,,,,,,,,,,,,,337,2023-11-20_13h36.10.656,leap3,2022.2.5,60.03416591635884,
,,,,,,,,,,,,,,,,,,,,10,0,10,0,4,0,4,0,,,,,,migmarole,nw,h,upper,,,,,,,3,nw,LoDemNoTar,h,1,0.48809336795966374,,,,,,,,,,,,,,,,,,,337,2023-11-20_13h36.10.656,leap3,2022.2.5,60.03416591635884,
,,,,,,,,,,,,,,,,,,,,10,0,10,0,5,0,5,0,,,,,,arranged,w,g,upper,,,,,,,3,w,LoDemNoTar,g,1,0.9067819567012521,,,,,,,,,,,,,,,,,,,337,2023-11-20_13h36.10.656,leap3,2022.2.5,60.03416591635884,
,,,,,,,,,,,,,,,,,,,,10,0,10,0,6,0,6,0,,,,,,courier,w,g,upper,,,,,,,3,w,LoDemNoTar,g,1,1.0049002589657903,,,,,,,,,,,,,,,,,,,337,2023-11-20_13h36.10.656,leap3,2022.2.5,60.03416591635884,
,,,,,,,,,,,,,,,,,,,,10,0,10,0,7,0,7,0,,,,,,preclude,w,g,upper,,,,,,,3,w,LoDemNoTar,g,1,0.818826815247121,,,,,,,,,,,,,,,,,,,337,2023-11-20_13h36.10.656,leap3,2022.2.5,60.03416591635884,
,,,,,,,,,,,,,,,,,,,,10,0,10,0,8,0,8,0,,,,,,ethical,w,g,upper,,,,,,,3,w,LoDemNoTar,g,1,0.6010031777700533,,,,,,,,,,,,,,,,,,,337,2023-11-20_13h36.10.656,leap3,2022.2.5,60.03416591635884,
,,,,,,,,,,,,,,,,,,,,10,0,10,0,9,0,9,0,,,,,,criminal,w,g,upper,,,,,,,3,w,LoDemNoTar,g,1,0.5436269074166376,,,,,,,,,,,,,,,,,,,337,2023-11-20_13h36.10.656,leap3,2022.2.5,60.03416591635884,
,,,,,,,,,,,,,,,,,,,,10,0,10,0,10,0,10,0,,,,,,rarely,w,g,upper,,,,,,,3,w,LoDemNoTar,g,1,0.5193115335914626,,,,,,,,,,,,,,,,,,,337,2023-11-20_13h36.10.656,leap3,2022.2.5,60.03416591635884,
,,,,,,,,,,,,,,,,,,,,10,0,10,0,11,0,11,0,,,,,,contusiok,nw,h,upper,,,,,,,3,nw,LoDemNoTar,h,1,0.5685382057145034,,,,,,,,,,,,,,,,,,,337,2023-11-20_13h36.10.656,leap3,2022.2.5,60.03416591635884,
,,,,,,,,,,,,,,,,,,,,10,0,10,0,12,0,12,0,,,,,,threaded,w,g,upper,,,,,,,3,w,LoDemNoTar,g,1,0.7445474782994097,,,,,,,,,,,,,,,,,,,337,2023-11-20_13h36.10.656,leap3,2022.2.5,60.03416591635884,
,,,,,,,,,,,,,,,,,,,,10,0,10,0,13,0,13,0,,,,,,gigoho,nw,h,upper,,,,,,,3,nw,LoDemNoTar,h,1,0.47328630016272655,,,,,,,,,,,,,,,,,,,337,2023-11-20_13h36.10.656,leap3,2022.2.5,60.03416591635884,
,,,,,,,,,,,,,,,,,,,,10,0,10,0,14,0,14,0,,,,,,ludictous,nw,h,upper,,,,,,,3,nw,LoDemNoTar,h,1,0.7726416754185266,,,,,,,,,,,,,,,,,,,337,2023-11-20_13h36.10.656,leap3,2022.2.5,60.03416591635884,
,,,,,,,,,,,,,,,,,,,,10,0,10,0,15,0,15,0,,,,,,ronic,nw,h,upper,,,,,,,3,nw,LoDemNoTar,h,1,0.7077908568330713,,,,,,,,,,,,,,,,,,,337,2023-11-20_13h36.10.656,leap3,2022.2.5,60.03416591635884,
,,,,,,,,,,,,,,,,,,,,10,0,10,0,16,0,16,0,,,,,,dricked,nw,h,upper,,,,,,,3,nw,LoDemNoTar,h,1,0.5656002980649646,,,,,,,,,,,,,,,,,,,337,2023-11-20_13h36.10.656,leap3,2022.2.5,60.03416591635884,
,,,,,,,,,,,,,,,,,,,,10,0,10,0,17,0,17,0,,,,,,squadroim,nw,h,upper,,,,,,,3,nw,LoDemNoTar,h,1,0.6377141116931853,,,,,,,,,,,,,,,,,,,337,2023-11-20_13h36.10.656,leap3,2022.2.5,60.03416591635884,
,,,,,,,,,,,,,,,,,,,,10,0,10,0,18,0,18,0,,,,,,minister,w,g,upper,,,,,,,3,w,LoDemNoTar,g,1,0.8654228118925857,,,,,,,,,,,,,,,,,,,337,2023-11-20_13h36.10.656,leap3,2022.2.5,60.03416591635884,
,,,,,,,,,,,,,,,,,,,,10,0,10,0,19,0,19,0,,,,,,religious,w,g,upper,,,,,,,3,w,LoDemNoTar,g,1,0.7825946073171508,,,,,,,,,,,,,,,,,,,337,2023-11-20_13h36.10.656,leap3,2022.2.5,60.03416591635884,
,,,,,,,,,,,,,,,,,,,,10,0,10,0,20,0,20,0,,,,,,priant,nw,h,upper,,,,,,,3,nw,LoDemNoTar,h,1,0.5807321446991409,,,,,,,,,,,,,,,,,,,337,2023-11-20_13h36.10.656,leap3,2022.2.5,60.03416591635884,
,,,,,,,,,,,,,,,,,,,,10,0,10,0,21,0,21,0,,,,,,bloves,nw,h,upper,,,,,,,3,nw,LoDemNoTar,h,1,0.5640700964468124,,,,,,,,,,,,,,,,,,,337,2023-11-20_13h36.10.656,leap3,2022.2.5,60.03416591635884,
,,,,,,,,,,,,,,,,,,,,10,0,10,0,22,0,22,0,,,,,,decantel,nw,h,upper,,,,,,,3,nw,LoDemNoTar,h,1,0.6041691920654557,,,,,,,,,,,,,,,,,,,337,2023-11-20_13h36.10.656,leap3,2022.2.5,60.03416591635884,
,,,,,,,,,,,,,,,,,,,,10,0,10,0,23,0,23,0,,,,,,retreat,w,g,upper,,,,,,,3,w,LoDemNoTar,g,1,0.6183862946336376,,,,,,,,,,,,,,,,,,,337,2023-11-20_13h36.10.656,leap3,2022.2.5,60.03416591635884,
,,,,,,,,,,,,,,,,,,,,10,0,10,0,24,0,24,0,,,,,,odacles,nw,h,upper,,,,,,,3,nw,LoDemNoTar,h,1,0.5203792316042382,,,,,,,,,,,,,,,,,,,337,2023-11-20_13h36.10.656,leap3,2022.2.5,60.03416591635884,
,,,,,,,,,,,,,,,,,,,,10,0,10,0,25,0,25,0,,,,,,undimmec,nw,h,upper,,,,,,,3,nw,LoDemNoTar,h,1,0.561614225482117,,,,,,,,,,,,,,,,,,,337,2023-11-20_13h36.10.656,leap3,2022.2.5,60.03416591635884,
,,,,,,,,,,,,,,,,,,,,10,0,10,0,26,0,26,0,,,,,,lifetime,w,g,upper,,,,,,,3,w,LoDemNoTar,g,1,0.5296163919983883,,,,,,,,,,,,,,,,,,,337,2023-11-20_13h36.10.656,leap3,2022.2.5,60.03416591635884,
,,,,,,,,,,,,,,,,,,,,10,0,10,0,27,0,27,0,,,,,,venturous,w,g,upper,,,,,,,3,w,LoDemNoTar,h,0,1.0030128337330098,,,,,,,,,,,,,,,,,,,337,2023-11-20_13h36.10.656,leap3,2022.2.5,60.03416591635884,
,,,,,,,,,,,,,,,,,,,,10,0,10,0,28,0,28,0,,,,,,bamboo,w,g,upper,,,,,,,3,w,LoDemNoTar,g,1,0.7371272254085852,,,,,,,,,,,,,,,,,,,337,2023-11-20_13h36.10.656,leap3,2022.2.5,60.03416591635884,
,,,,,,,,,,,,,,,,,,,,10,0,10,0,29,0,29,0,,,,,,ready,w,g,upper,,,,,,,3,w,LoDemNoTar,g,1,0.6727187152091574,,,,,,,,,,,,,,,,,,,337,2023-11-20_13h36.10.656,leap3,2022.2.5,60.03416591635884,
,,,,,,,,,,,,,,,,,,,,10,0,10,0,,,,,,,,,,,,,,,,,,,,,,,,,,NA,,,,,,,,,,,,,,,,,,337,2023-11-20_13h36.10.656,leap3,2022.2.5,60.03416591635884,
,,,,,,,,,,,,,,,,,,,,11,0,11,0,0,0,0,0,,,,,,graveyard,w,g,upper,,,,,,,3,w,LoDemNoTar,g,1,0.54105714866364,,,,,,,,,,,,,,,,,,,337,2023-11-20_13h36.10.656,leap3,2022.2.5,60.03416591635884,
,,,,,,,,,,,,,,,,,,,,11,0,11,0,1,0,1,0,,,,,,bumbo,nw,h,upper,,,,,,,3,nw,LoDemNoTar,h,1,0.7737590338047085,,,,,,,,,,,,,,,,,,,337,2023-11-20_13h36.10.656,leap3,2022.2.5,60.03416591635884,
,,,,,,,,,,,,,,,,,,,,11,0,11,0,2,0,2,0,,,,,,glassware,w,g,upper,,,,,,,3,w,LoDemNoTar,g,1,0.5172555941617247,,,,,,,,,,,,,,,,,,,337,2023-11-20_13h36.10.656,leap3,2022.2.5,60.03416591635884,
,,,,,,,,,,,,,,,,,,,,11,0,11,0,3,0,3,0,,,,,,uncarled,nw,h,upper,,,,,,,3,nw,LoDemNoTar,h,1,0.5352207305941192,,,,,,,,,,,,,,,,,,,337,2023-11-20_13h36.10.656,leap3,2022.2.5,60.03416591635884,
,,,,,,,,,,,,,,,,,,,,11,0,11,0,4,0,4,0,,,,,,vorm,nw,h,upper,,,,,,,3,nw,LoDemNoTar,h,1,0.5606120791599096,,,,,,,,,,,,,,,,,,,337,2023-11-20_13h36.10.656,leap3,2022.2.5,60.03416591635884,
,,,,,,,,,,,,,,,,,,,,11,0,11,0,5,0,5,0,,,,,,even,w,g,upper,,,,,,,3,w,LoDemNoTar,g,1,0.5035960120439995,,,,,,,,,,,,,,,,,,,337,2023-11-20_13h36.10.656,leap3,2022.2.5,60.03416591635884,
,,,,,,,,,,,,,,,,,,,,11,0,11,0,6,0,6,0,,,,,,nelvet,nw,h,upper,,,,,,,3,nw,LoDemNoTar,h,1,0.5535728868635488,,,,,,,,,,,,,,,,,,,337,2023-11-20_13h36.10.656,leap3,2022.2.5,60.03416591635884,
,,,,,,,,,,,,,,,,,,,,11,0,11,0,7,0,7,0,,,,,,brongs,nw,h,upper,,,,,,,3,nw,LoDemNoTar,h,1,0.5296190405515517,,,,,,,,,,,,,,,,,,,337,2023-11-20_13h36.10.656,leap3,2022.2.5,60.03416591635884,
,,,,,,,,,,,,,,,,,,,,11,0,11,0,8,0,8,0,,,,,,pender,nw,h,upper,,,,,,,3,nw,LoDemNoTar,h,1,0.4750383181117286,,,,,,,,,,,,,,,,,,,337,2023-11-20_13h36.10.656,leap3,2022.2.5,60.03416591635884,
,,,,,,,,,,,,,,,,,,,,11,0,11,0,9,0,9,0,,,,,,turning,w,g,upper,,,,,,,3,w,LoDemNoTar,g,1,0.7983915718759818,,,,,,,,,,,,,,,,,,,337,2023-11-20_13h36.10.656,leap3,2022.2.5,60.03416591635884,
,,,,,,,,,,,,,,,,,,,,11,0,11,0,10,0,10,0,,,,,,poyride,nw,h,upper,,,,,,,3,nw,LoDemNoTar,h,1,0.509325494776931,,,,,,,,,,,,,,,,,,,337,2023-11-20_13h36.10.656,leap3,2022.2.5,60.03416591635884,
,,,,,,,,,,,,,,,,,,,,11,0,11,0,11,0,11,0,,,,,,yearnungs,nw,h,upper,,,,,,,3,nw,LoDemNoTar,h,1,0.5262447837603759,,,,,,,,,,,,,,,,,,,337,2023-11-20_13h36.10.656,leap3,2022.2.5,60.03416591635884,
,,,,,,,,,,,,,,,,,,,,11,0,11,0,12,0,12,0,,,,,,statute,w,g,upper,,,,,,,3,w,LoDemNoTar,g,1,0.6967947260382061,,,,,,,,,,,,,,,,,,,337,2023-11-20_13h36.10.656,leap3,2022.2.5,60.03416591635884,
,,,,,,,,,,,,,,,,,,,,11,0,11,0,13,0,13,0,,,,,,enabled,w,g,upper,,,,,,,3,w,LoDemNoTar,g,1,0.7554346873430404,,,,,,,,,,,,,,,,,,,337,2023-11-20_13h36.10.656,leap3,2022.2.5,60.03416591635884,
,,,,,,,,,,,,,,,,,,,,11,0,11,0,14,0,14,0,,,,,,ecistle,nw,h,upper,,,,,,,3,nw,LoDemNoTar,h,1,0.6025625134734582,,,,,,,,,,,,,,,,,,,337,2023-11-20_13h36.10.656,leap3,2022.2.5,60.03416591635884,
,,,,,,,,,,,,,,,,,,,,11,0,11,0,15,0,15,0,,,,,,goblet,w,g,upper,,,,,,,3,w,LoDemNoTar,g,1,0.6092636841667627,,,,,,,,,,,,,,,,,,,337,2023-11-20_13h36.10.656,leap3,2022.2.5,60.03416591635884,
,,,,,,,,,,,,,,,,,,,,11,0,11,0,16,0,16,0,,,,,,category,w,g,upper,,,,,,,3,w,LoDemNoTar,g,1,0.8233674286593669,,,,,,,,,,,,,,,,,,,337,2023-11-20_13h36.10.656,leap3,2022.2.5,60.03416591635884,
,,,,,,,,,,,,,,,,,,,,11,0,11,0,17,0,17,0,,,,,,subber,nw,h,upper,,,,,,,3,nw,LoDemNoTar,h,1,0.5408250691880312,,,,,,,,,,,,,,,,,,,337,2023-11-20_13h36.10.656,leap3,2022.2.5,60.03416591635884,
,,,,,,,,,,,,,,,,,,,,11,0,11,0,18,0,18,0,,,,,,comment,w,g,upper,,,,,,,3,w,LoDemNoTar,g,1,0.6375691034054398,,,,,,,,,,,,,,,,,,,337,2023-11-20_13h36.10.656,leap3,2022.2.5,60.03416591635884,
,,,,,,,,,,,,,,,,,,,,11,0,11,0,19,0,19,0,,,,,,slowning,nw,h,upper,,,,,,,3,nw,LoDemNoTar,h,1,0.7622884809161405,,,,,,,,,,,,,,,,,,,337,2023-11-20_13h36.10.656,leap3,2022.2.5,60.03416591635884,
,,,,,,,,,,,,,,,,,,,,11,0,11,0,20,0,20,0,,,,,,nostril,w,g,upper,,,,,,,3,w,LoDemNoTar,g,1,0.5863533678211752,,,,,,,,,,,,,,,,,,,337,2023-11-20_13h36.10.656,leap3,2022.2.5,60.03416591635884,
,,,,,,,,,,,,,,,,,,,,11,0,11,0,21,0,21,0,,,,,,scack,nw,h,upper,,,,,,,3,nw,LoDemNoTar,h,1,0.5050424531664248,,,,,,,,,,,,,,,,,,,337,2023-11-20_13h36.10.656,leap3,2022.2.5,60.03416591635884,
,,,,,,,,,,,,,,,,,,,,11,0,11,0,22,0,22,0,,,,,,icepick,w,g,upper,,,,,,,3,w,LoDemNoTar,g,1,0.7311805613107936,,,,,,,,,,,,,,,,,,,337,2023-11-20_13h36.10.656,leap3,2022.2.5,60.03416591635884,
,,,,,,,,,,,,,,,,,,,,11,0,11,0,23,0,23,0,,,,,,actively,w,g,upper,,,,,,,3,w,LoDemNoTar,g,1,0.5396120318173416,,,,,,,,,,,,,,,,,,,337,2023-11-20_13h36.10.656,leap3,2022.2.5,60.03416591635884,
,,,,,,,,,,,,,,,,,,,,11,0,11,0,24,0,24,0,,,,,,teamwork,w,g,upper,,,,,,,3,w,LoDemNoTar,g,1,0.7243208084946673,,,,,,,,,,,,,,,,,,,337,2023-11-20_13h36.10.656,leap3,2022.2.5,60.03416591635884,
,,,,,,,,,,,,,,,,,,,,11,0,11,0,25,0,25,0,,,,,,ragtam,nw,h,upper,,,,,,,3,nw,LoDemNoTar,h,1,0.6696698993946484,,,,,,,,,,,,,,,,,,,337,2023-11-20_13h36.10.656,leap3,2022.2.5,60.03416591635884,
,,,,,,,,,,,,,,,,,,,,11,0,11,0,26,0,26,0,,,,,,terming,w,g,upper,,,,,,,3,w,LoDemNoTar,h,0,0.6090825893406873,,,,,,,,,,,,,,,,,,,337,2023-11-20_13h36.10.656,leap3,2022.2.5,60.03416591635884,
,,,,,,,,,,,,,,,,,,,,11,0,11,0,27,0,27,0,,,,,,destroy,w,g,upper,,,,,,,3,w,LoDemNoTar,g,1,0.4951795720762675,,,,,,,,,,,,,,,,,,,337,2023-11-20_13h36.10.656,leap3,2022.2.5,60.03416591635884,
,,,,,,,,,,,,,,,,,,,,11,0,11,0,28,0,28,0,,,,,,dredigest,nw,h,upper,,,,,,,3,nw,LoDemNoTar,h,1,0.5458927446898088,,,,,,,,,,,,,,,,,,,337,2023-11-20_13h36.10.656,leap3,2022.2.5,60.03416591635884,
,,,,,,,,,,,,,,,,,,,,11,0,11,0,29,0,29,0,,,,,,cartles,nw,h,upper,,,,,,,3,nw,LoDemNoTar,h,1,0.6186114216579881,,,,,,,,,,,,,,,,,,,337,2023-11-20_13h36.10.656,leap3,2022.2.5,60.03416591635884,
,,,,,,,,,,,,,,,,,,,,11,0,11,0,,,,,,,,,,,,,,,,,,,,,,,,,,NA,,,,,,,,,,,,,,,,,,337,2023-11-20_13h36.10.656,leap3,2022.2.5,60.03416591635884,
,,,,,,,,,,,,,,,,,,,,12,0,12,0,0,0,0,0,,,,,,atsless,nw,h,upper,,,,,,,3,nw,LoDemNoTar,h,1,0.5919116878039858,,,,,,,,,,,,,,,,,,,337,2023-11-20_13h36.10.656,leap3,2022.2.5,60.03416591635884,
,,,,,,,,,,,,,,,,,,,,12,0,12,0,1,0,1,0,,,,,,oalis,nw,h,upper,,,,,,,3,nw,LoDemNoTar,h,1,0.5826897565912077,,,,,,,,,,,,,,,,,,,337,2023-11-20_13h36.10.656,leap3,2022.2.5,60.03416591635884,
,,,,,,,,,,,,,,,,,,,,12,0,12,0,2,0,2,0,,,,,,mineluyer,nw,h,upper,,,,,,,3,nw,LoDemNoTar,h,1,0.6539570263994392,,,,,,,,,,,,,,,,,,,337,2023-11-20_13h36.10.656,leap3,2022.2.5,60.03416591635884,
,,,,,,,,,,,,,,,,,,,,12,0,12,0,3,0,3,0,,,,,,goltish,nw,h,upper,,,,,,,3,nw,LoDemNoTar,h,1,0.5059853381098947,,,,,,,,,,,,,,,,,,,337,2023-11-20_13h36.10.656,leap3,2022.2.5,60.03416591635884,
,,,,,,,,,,,,,,,,,,,,12,0,12,0,4,0,4,0,,,,,,issue,w,g,upper,,,,,,,3,w,LoDemNoTar,g,1,0.5640796974521436,,,,,,,,,,,,,,,,,,,337,2023-11-20_13h36.10.656,leap3,2022.2.5,60.03416591635884,
,,,,,,,,,,,,,,,,,,,,12,0,12,0,5,0,5,0,,,,,,talate,nw,h,upper,,,,,,,3,nw,LoDemNoTar,g,0,0.5700227197885397,,,,,,,,,,,,,,,,,,,337,2023-11-20_13h36.10.656,leap3,2022.2.5,60.03416591635884,
,,,,,,,,,,,,,,,,,,,,12,0,12,0,6,0,6,0,,,,,,athcan,nw,h,upper,,,,,,,3,nw,LoDemNoTar,h,1,0.5796571631644838,,,,,,,,,,,,,,,,,,,337,2023-11-20_13h36.10.656,leap3,2022.2.5,60.03416591635884,
,,,,,,,,,,,,,,,,,,,,12,0,12,0,7,0,7,0,,,,,,warmer,w,g,upper,,,,,,,3,w,LoDemNoTar,g,1,0.5791099058569671,,,,,,,,,,,,,,,,,,,337,2023-11-20_13h36.10.656,leap3,2022.2.5,60.03416591635884,
,,,,,,,,,,,,,,,,,,,,12,0,12,0,8,0,8,0,,,,,,gerby,nw,h,upper,,,,,,,3,nw,LoDemNoTar,h,1,0.4814137167613808,,,,,,,,,,,,,,,,,,,337,2023-11-20_13h36.10.656,leap3,2022.2.5,60.03416591635884,
,,,,,,,,,,,,,,,,,,,,12,0,12,0,9,0,9,0,,,,,,virulent,w,g,upper,,,,,,,3,w,LoDemNoTar,g,1,1.004886022991741,,,,,,,,,,,,,,,,,,,337,2023-11-20_13h36.10.656,leap3,2022.2.5,60.03416591635884,
,,,,,,,,,,,,,,,,,,,,12,0,12,0,10,0,10,0,,,,,,omission,w,g,upper,,,,,,,3,w,LoDemNoTar,g,1,0.5149695616710233,,,,,,,,,,,,,,,,,,,337,2023-11-20_13h36.10.656,leap3,2022.2.5,60.03416591635884,
,,,,,,,,,,,,,,,,,,,,12,0,12,0,11,0,11,0,,,,,,airmen,w,g,upper,,,,,,,3,w,LoDemNoTar,g,1,0.8691059562024748,,,,,,,,,,,,,,,,,,,337,2023-11-20_13h36.10.656,leap3,2022.2.5,60.03416591635884,
,,,,,,,,,,,,,,,,,,,,12,0,12,0,12,0,12,0,,,,,,picnic,w,g,upper,,,,,,,3,w,LoDemNoTar,g,1,0.47303170798568317,,,,,,,,,,,,,,,,,,,337,2023-11-20_13h36.10.656,leap3,2022.2.5,60.03416591635884,
,,,,,,,,,,,,,,,,,,,,12,0,12,0,13,0,13,0,,,,,,mitten,w,g,upper,,,,,,,3,w,LoDemNoTar,g,1,0.740462416039918,,,,,,,,,,,,,,,,,,,337,2023-11-20_13h36.10.656,leap3,2022.2.5,60.03416591635884,
,,,,,,,,,,,,,,,,,,,,12,0,12,0,14,0,14,0,,,,,,rivet,w,g,upper,,,,,,,3,w,LoDemNoTar,g,1,0.6772527072380399,,,,,,,,,,,,,,,,,,,337,2023-11-20_13h36.10.656,leap3,2022.2.5,60.03416591635884,
,,,,,,,,,,,,,,,,,,,,12,0,12,0,15,0,15,0,,,,,,grested,nw,h,upper,,,,,,,3,nw,LoDemNoTar,h,1,0.6086058497630802,,,,,,,,,,,,,,,,,,,337,2023-11-20_13h36.10.656,leap3,2022.2.5,60.03416591635884,
,,,,,,,,,,,,,,,,,,,,12,0,12,0,16,0,16,0,,,,,,ensues,w,g,upper,,,,,,,3,w,LoDemNoTar,g,1,0.6066657845367445,,,,,,,,,,,,,,,,,,,337,2023-11-20_13h36.10.656,leap3,2022.2.5,60.03416591635884,
,,,,,,,,,,,,,,,,,,,,12,0,12,0,17,0,17,0,,,,,,gewer,nw,h,upper,,,,,,,3,nw,LoDemNoTar,h,1,0.5637830594923798,,,,,,,,,,,,,,,,,,,337,2023-11-20_13h36.10.656,leap3,2022.2.5,60.03416591635884,
,,,,,,,,,,,,,,,,,,,,12,0,12,0,18,0,18,0,,,,,,mabit,nw,h,upper,,,,,,,3,nw,LoDemNoTar,h,1,0.659764310384162,,,,,,,,,,,,,,,,,,,337,2023-11-20_13h36.10.656,leap3,2022.2.5,60.03416591635884,
,,,,,,,,,,,,,,,,,,,,12,0,12,0,19,0,19,0,,,,,,treenery,nw,h,upper,,,,,,,3,nw,LoDemNoTar,h,1,0.6878618181954153,,,,,,,,,,,,,,,,,,,337,2023-11-20_13h36.10.656,leap3,2022.2.5,60.03416591635884,
,,,,,,,,,,,,,,,,,,,,12,0,12,0,20,0,20,0,,,,,,correct,w,g,upper,,,,,,,3,w,LoDemNoTar,g,1,0.5786073428853342,,,,,,,,,,,,,,,,,,,337,2023-11-20_13h36.10.656,leap3,2022.2.5,60.03416591635884,
,,,,,,,,,,,,,,,,,,,,12,0,12,0,21,0,21,0,,,,,,snorls,nw,h,upper,,,,,,,3,nw,LoDemNoTar,h,1,0.5060230799927012,,,,,,,,,,,,,,,,,,,337,2023-11-20_13h36.10.656,leap3,2022.2.5,60.03416591635884,
,,,,,,,,,,,,,,,,,,,,12,0,12,0,22,0,22,0,,,,,,dorte,nw,h,upper,,,,,,,3,nw,LoDemNoTar,h,1,0.5720773349430601,,,,,,,,,,,,,,,,,,,337,2023-11-20_13h36.10.656,leap3,2022.2.5,60.03416591635884,
,,,,,,,,,,,,,,,,,,,,12,0,12,0,23,0,23,0,,,,,,emission,w,g,upper,,,,,,,3,w,LoDemNoTar,g,1,0.571475451225524,,,,,,,,,,,,,,,,,,,337,2023-11-20_13h36.10.656,leap3,2022.2.5,60.03416591635884,
,,,,,,,,,,,,,,,,,,,,12,0,12,0,24,0,24,0,,,,,,bengths,nw,h,upper,,,,,,,3,nw,LoDemNoTar,h,1,0.5149291712341437,,,,,,,,,,,,,,,,,,,337,2023-11-20_13h36.10.656,leap3,2022.2.5,60.03416591635884,
,,,,,,,,,,,,,,,,,,,,12,0,12,0,25,0,25,0,,,,,,frunted,nw,h,upper,,,,,,,3,nw,LoDemNoTar,h,1,0.7728562082284043,,,,,,,,,,,,,,,,,,,337,2023-11-20_13h36.10.656,leap3,2022.2.5,60.03416591635884,
,,,,,,,,,,,,,,,,,,,,12,0,12,0,26,0,26,0,,,,,,intrude,w,g,upper,,,,,,,3,w,LoDemNoTar,g,1,0.9164594390658749,,,,,,,,,,,,,,,,,,,337,2023-11-20_13h36.10.656,leap3,2022.2.5,60.03416591635884,
,,,,,,,,,,,,,,,,,,,,12,0,12,0,27,0,27,0,,,,,,tinker,w,g,upper,,,,,,,3,w,LoDemNoTar,g,1,0.7734557744615813,,,,,,,,,,,,,,,,,,,337,2023-11-20_13h36.10.656,leap3,2022.2.5,60.03416591635884,
,,,,,,,,,,,,,,,,,,,,12,0,12,0,28,0,28,0,,,,,,intercede,w,g,upper,,,,,,,3,w,LoDemNoTar,g,1,0.676839864006979,,,,,,,,,,,,,,,,,,,337,2023-11-20_13h36.10.656,leap3,2022.2.5,60.03416591635884,
,,,,,,,,,,,,,,,,,,,,12,0,12,0,29,0,29,0,,,,,,obtuse,w,g,upper,,,,,,,3,w,LoDemNoTar,g,1,0.5362887596756991,,,,,,,,,,,,,,,,,,,337,2023-11-20_13h36.10.656,leap3,2022.2.5,60.03416591635884,
,,,,,,,,,,,,,,,,,,,,12,0,12,0,,,,,,,,,,,,,,,,,,,,,,,,,,NA,,,,,,,,,,,,,,,,,,337,2023-11-20_13h36.10.656,leap3,2022.2.5,60.03416591635884,
,,,,,,,,,,,,,,,,,,,,13,0,13,0,0,0,0,0,,,,,,louches,nw,h,lower,,,,,,,2,nw,HiDemNoTar,h,1,1.065641516173855,,,,,,,,,,,,,,,,,,,337,2023-11-20_13h36.10.656,leap3,2022.2.5,60.03416591635884,
,,,,,,,,,,,,,,,,,,,,13,0,13,0,1,0,1,0,,,,,,army,w,g,lower,,,,,,,2,w,HiDemNoTar,g,1,0.6690680156780218,,,,,,,,,,,,,,,,,,,337,2023-11-20_13h36.10.656,leap3,2022.2.5,60.03416591635884,
,,,,,,,,,,,,,,,,,,,,13,0,13,0,2,0,2,0,,,,,,euphoric,w,g,lower,,,,,,,2,w,HiDemNoTar,g,1,0.5523879903703346,,,,,,,,,,,,,,,,,,,337,2023-11-20_13h36.10.656,leap3,2022.2.5,60.03416591635884,
,,,,,,,,,,,,,,,,,,,,13,0,13,0,3,0,3,0,,,,,,unburnid,nw,h,lower,,,,,,,2,nw,HiDemNoTar,h,1,0.5364549563901164,,,,,,,,,,,,,,,,,,,337,2023-11-20_13h36.10.656,leap3,2022.2.5,60.03416591635884,
,,,,,,,,,,,,,,,,,,,,13,0,13,0,4,0,4,0,,,,,,cheathe,nw,h,lower,,,,,,,2,nw,HiDemNoTar,h,1,0.5132532991901826,,,,,,,,,,,,,,,,,,,337,2023-11-20_13h36.10.656,leap3,2022.2.5,60.03416591635884,
,,,,,,,,,,,,,,,,,,,,13,0,13,0,5,0,5,0,,,,,,mebase,nw,h,lower,,,,,,,2,nw,HiDemNoTar,h,1,0.547331902289443,,,,,,,,,,,,,,,,,,,337,2023-11-20_13h36.10.656,leap3,2022.2.5,60.03416591635884,
,,,,,,,,,,,,,,,,,,,,13,0,13,0,6,0,6,0,,,,,,ahead,w,g,lower,,,,,,,2,w,HiDemNoTar,g,1,0.5479682171990135,,,,,,,,,,,,,,,,,,,337,2023-11-20_13h36.10.656,leap3,2022.2.5,60.03416591635884,
,,,,,,,,,,,,,,,,,,,,13,0,13,0,7,0,7,0,,,,,,pypecast,nw,h,lower,,,,,,,2,nw,HiDemNoTar,h,1,0.4847518870146814,,,,,,,,,,,,,,,,,,,337,2023-11-20_13h36.10.656,leap3,2022.2.5,60.03416591635884,
,,,,,,,,,,,,,,,,,,,,13,0,13,0,8,0,8,0,,,,,,uncle,w,g,lower,,,,,,,2,w,HiDemNoTar,g,1,0.49557851040390233,,,,,,,,,,,,,,,,,,,337,2023-11-20_13h36.10.656,leap3,2022.2.5,60.03416591635884,
,,,,,,,,,,,,,,,,,,,,13,0,13,0,9,0,9,0,,,,,,acorn,w,g,lower,,,,,,,2,w,HiDemNoTar,g,1,0.5142494862666354,,,,,,,,,,,,,,,,,,,337,2023-11-20_13h36.10.656,leap3,2022.2.5,60.03416591635884,
,,,,,,,,,,,,,,,,,,,,13,0,13,0,10,0,10,0,,,,,,volder,nw,h,lower,,,,,,,2,nw,HiDemNoTar,h,1,0.8124202960980256,,,,,,,,,,,,,,,,,,,337,2023-11-20_13h36.10.656,leap3,2022.2.5,60.03416591635884,
,,,,,,,,,,,,,,,,,,,,13,0,13,0,11,0,11,0,,,,,,metebing,nw,h,lower,,,,,,,2,nw,HiDemNoTar,h,1,0.8094125328570954,,,,,,,,,,,,,,,,,,,337,2023-11-20_13h36.10.656,leap3,2022.2.5,60.03416591635884,
,,,,,,,,,,,,,,,,,,,,13,0,13,0,12,0,12,0,,,,,,create,w,g,lower,,,,,,,2,w,HiDemNoTar,g,1,0.5514831783793852,,,,,,,,,,,,,,,,,,,337,2023-11-20_13h36.10.656,leap3,2022.2.5,60.03416591635884,
,,,,,,,,,,,,,,,,,,,,13,0,13,0,13,0,13,0,,,,,,carbled,nw,h,lower,,,,,,,2,nw,HiDemNoTar,h,1,0.5676582239102572,,,,,,,,,,,,,,,,,,,337,2023-11-20_13h36.10.656,leap3,2022.2.5,60.03416591635884,
,,,,,,,,,,,,,,,,,,,,13,0,13,0,14,0,14,0,,,,,,populace,w,g,lower,,,,,,,2,w,HiDemNoTar,g,1,0.7989821992423458,,,,,,,,,,,,,,,,,,,337,2023-11-20_13h36.10.656,leap3,2022.2.5,60.03416591635884,
,,,,,,,,,,,,,,,,,,,,13,0,13,0,15,0,15,0,,,,,,gaioty,nw,h,lower,,,,,,,2,nw,HiDemNoTar,h,1,0.6536838943502516,,,,,,,,,,,,,,,,,,,337,2023-11-20_13h36.10.656,leap3,2022.2.5,60.03416591635884,
,,,,,,,,,,,,,,,,,,,,13,0,13,0,16,0,16,0,,,,,,blerapies,nw,h,lower,,,,,,,2,nw,HiDemNoTar,h,1,0.6257744338172415,,,,,,,,,,,,,,,,,,,337,2023-11-20_13h36.10.656,leap3,2022.2.5,60.03416591635884,
,,,,,,,,,,,,,,,,,,,,13,0,13,0,17,0,17,0,,,,,,rationale,w,g,lower,,,,,,,2,w,HiDemNoTar,g,1,0.6311678813626713,,,,,,,,,,,,,,,,,,,337,2023-11-20_13h36.10.656,leap3,2022.2.5,60.03416591635884,
,,,,,,,,,,,,,,,,,,,,13,0,13,0,18,0,18,0,,,,,,calcify,w,g,lower,,,,,,,2,w,HiDemNoTar,g,1,0.8125874860197655,,,,,,,,,,,,,,,,,,,337,2023-11-20_13h36.10.656,leap3,2022.2.5,60.03416591635884,
,,,,,,,,,,,,,,,,,,,,13,0,13,0,19,0,19,0,,,,,,peanimate,nw,h,lower,,,,,,,2,nw,HiDemNoTar,h,1,0.5786725635080074,,,,,,,,,,,,,,,,,,,337,2023-11-20_13h36.10.656,leap3,2022.2.5,60.03416591635884,
,,,,,,,,,,,,,,,,,,,,13,0,13,0,20,0,20,0,,,,,,ireology,nw,h,lower,,,,,,,2,nw,HiDemNoTar,h,1,0.625096404195574,,,,,,,,,,,,,,,,,,,337,2023-11-20_13h36.10.656,leap3,2022.2.5,60.03416591635884,
,,,,,,,,,,,,,,,,,,,,13,0,13,0,21,0,21,0,,,,,,revising,w,g,lower,,,,,,,2,w,HiDemNoTar,g,1,0.6544562786802999,,,,,,,,,,,,,,,,,,,337,2023-11-20_13h36.10.656,leap3,2022.2.5,60.03416591635884,
,,,,,,,,,,,,,,,,,,,,13,0,13,0,22,0,22,0,,,,,,lonnote,nw,h,lower,,,,,,,2,nw,HiDemNoTar,h,1,0.8344476510183085,,,,,,,,,,,,,,,,,,,337,2023-11-20_13h36.10.656,leap3,2022.2.5,60.03416591635884,
,,,,,,,,,,,,,,,,,,,,13,0,13,0,23,0,23,0,,,,,,forgive,w,g,lower,,,,,,,2,w,HiDemNoTar,g,1,0.7678918263036394,,,,,,,,,,,,,,,,,,,337,2023-11-20_13h36.10.656,leap3,2022.2.5,60.03416591635884,
,,,,,,,,,,,,,,,,,,,,13,0,13,0,24,0,24,0,,,,,,ilcurring,nw,h,lower,,,,,,,2,nw,HiDemNoTar,h,1,0.9439262601435985,,,,,,,,,,,,,,,,,,,337,2023-11-20_13h36.10.656,leap3,2022.2.5,60.03416591635884,
,,,,,,,,,,,,,,,,,,,,13,0,13,0,25,0,25,0,,,,,,mogus,nw,h,lower,,,,,,,2,nw,HiDemNoTar,h,1,0.6886249325889366,,,,,,,,,,,,,,,,,,,337,2023-11-20_13h36.10.656,leap3,2022.2.5,60.03416591635884,
,,,,,,,,,,,,,,,,,,,,13,0,13,0,26,0,26,0,,,,,,intersect,w,g,lower,,,,,,,2,w,HiDemNoTar,g,1,0.6273632346737941,,,,,,,,,,,,,,,,,,,337,2023-11-20_13h36.10.656,leap3,2022.2.5,60.03416591635884,
,,,,,,,,,,,,,,,,,,,,13,0,13,0,27,0,27,0,,,,,,vaporize,w,g,lower,,,,,,,2,w,HiDemNoTar,h,0,0.4554651788121191,,,,,,,,,,,,,,,,,,,337,2023-11-20_13h36.10.656,leap3,2022.2.5,60.03416591635884,
,,,,,,,,,,,,,,,,,,,,13,0,13,0,28,0,28,0,,,,,,dehydrate,w,g,lower,,,,,,,2,w,HiDemNoTar,g,1,1.2685849195713672,,,,,,,,,,,,,,,,,,,337,2023-11-20_13h36.10.656,leap3,2022.2.5,60.03416591635884,
,,,,,,,,,,,,,,,,,,,,13,0,13,0,29,0,29,0,,,,,,lawsuit,w,g,lower,,,,,,,2,w,HiDemNoTar,g,1,0.7272431558931203,,,,,,,,,,,,,,,,,,,337,2023-11-20_13h36.10.656,leap3,2022.2.5,60.03416591635884,
,,,,,,,,,,,,,,,,,,,,13,0,13,0,,,,,,,,,,,,,,,,,,,,,,,,,,NA,,,,,,,,,,,,,,,,,,337,2023-11-20_13h36.10.656,leap3,2022.2.5,60.03416591635884,
,,,,,,,,,,,,,,,,,,,,14,0,14,0,0,0,0,0,,,,,,inforl,nw,h,lower,,,,,,,1,nw,HiDemTar,h,1,0.5369297095530783,,,,,,,,,,,,,,,,,,,337,2023-11-20_13h36.10.656,leap3,2022.2.5,60.03416591635884,
,,,,,,,,,,,,,,,,,,,,14,0,14,0,1,0,1,0,,,,,,vibrate,w,g,lower,,,,,,,1,w,HiDemTar,g,1,0.8256915341007698,,,,,,,,,,,,,,,,,,,337,2023-11-20_13h36.10.656,leap3,2022.2.5,60.03416591635884,
,,,,,,,,,,,,,,,,,,,,14,0,14,0,2,0,2,0,,,,,,matter,w,g,lower,,,,,,,1,w,HiDemTar,g,1,0.6390436854053405,,,,,,,,,,,,,,,,,,,337,2023-11-20_13h36.10.656,leap3,2022.2.5,60.03416591635884,
,,,,,,,,,,,,,,,,,,,,14,0,14,0,3,0,3,0,,,,,,acoustic,w,g,lower,,,,,,,1,w,HiDemTar,g,1,0.5717850008823007,,,,,,,,,,,,,,,,,,,337,2023-11-20_13h36.10.656,leap3,2022.2.5,60.03416591635884,
,,,,,,,,,,,,,,,,,,,,14,0,14,0,4,0,4,0,,,,,,crundle,nw,h,lower,,,,,,,1,nw,HiDemTar,h,1,0.5942030174001047,,,,,,,,,,,,,,,,,,,337,2023-11-20_13h36.10.656,leap3,2022.2.5,60.03416591635884,
,,,,,,,,,,,,,,,,,,,,14,0,14,0,5,0,5,0,,,,,,spaceship,w,g,lower,,,,,,,1,w,HiDemTar,g,1,0.5369561950856223,,,,,,,,,,,,,,,,,,,337,2023-11-20_13h36.10.656,leap3,2022.2.5,60.03416591635884,
,,,,,,,,,,,,,,,,,,,,14,0,14,0,6,0,6,0,,,,,,recount,w,g,lower,,,,,,,1,w,HiDemTar,g,1,0.6657324939769751,,,,,,,,,,,,,,,,,,,337,2023-11-20_13h36.10.656,leap3,2022.2.5,60.03416591635884,
,,,,,,,,,,,,,,,,,,,,14,0,14,0,7,0,7,0,,,,,,except,w,g,lower,,,,,,,1,w,HiDemTar,g,1,0.5577185347765408,,,,,,,,,,,,,,,,,,,337,2023-11-20_13h36.10.656,leap3,2022.2.5,60.03416591635884,
,,,,,,,,,,,,,,,,,,,,14,0,14,0,8,0,8,0,,,,,,digar,nw,h,lower,,,,,,,1,nw,HiDemTar,h,1,0.525770030597414,,,,,,,,,,,,,,,,,,,337,2023-11-20_13h36.10.656,leap3,2022.2.5,60.03416591635884,
,,,,,,,,,,,,,,,,,,,,14,0,14,0,9,0,9,0,,,,,,felevance,nw,h,lower,,,,,,,1,nw,HiDemTar,h,1,0.5832966063462663,,,,,,,,,,,,,,,,,,,337,2023-11-20_13h36.10.656,leap3,2022.2.5,60.03416591635884,
,,,,,,,,,,,,,,,,,,,,14,0,14,0,10,0,10,0,,,,,,gorilla,target,q,lower,,,,,,,1,target,HiDemTar,g,0,0.574595115838747,,1,1,,,,,,,,,,,,,,,,337,2023-11-20_13h36.10.656,leap3,2022.2.5,60.03416591635884,
,,,,,,,,,,,,,,,,,,,,14,0,14,0,11,0,11,0,,,,,,vopings,nw,h,lower,,,,,,,1,aftertar1,HiDemTar,h,1,1.1740722914355501,,,,,,,,,,,,,,,,,,,337,2023-11-20_13h36.10.656,leap3,2022.2.5,60.03416591635884,
,,,,,,,,,,,,,,,,,,,,14,0,14,0,12,0,12,0,,,,,,mounting,w,g,lower,,,,,,,1,aftertar2,HiDemTar,g,1,0.5894316487911055,,,,,,,,,,,,,,,,,,,337,2023-11-20_13h36.10.656,leap3,2022.2.5,60.03416591635884,
,,,,,,,,,,,,,,,,,,,,14,0,14,0,13,0,13,0,,,,,,checkout,w,g,lower,,,,,,,1,aftertar3,HiDemTar,g,1,0.5952256900091015,,,,,,,,,,,,,,,,,,,337,2023-11-20_13h36.10.656,leap3,2022.2.5,60.03416591635884,
,,,,,,,,,,,,,,,,,,,,14,0,14,0,14,0,14,0,,,,,,ements,nw,h,lower,,,,,,,1,w,HiDemTar,h,1,0.6018844838517907,,,,,,,,,,,,,,,,,,,337,2023-11-20_13h36.10.656,leap3,2022.2.5,60.03416591635884,
,,,,,,,,,,,,,,,,,,,,14,0,14,0,15,0,15,0,,,,,,stalemate,w,g,lower,,,,,,,1,nw,HiDemTar,g,1,0.5440182311540411,,,,,,,,,,,,,,,,,,,337,2023-11-20_13h36.10.656,leap3,2022.2.5,60.03416591635884,
,,,,,,,,,,,,,,,,,,,,14,0,14,0,16,0,16,0,,,,,,spiud,nw,h,lower,,,,,,,1,w,HiDemTar,h,1,0.5126682999989498,,,,,,,,,,,,,,,,,,,337,2023-11-20_13h36.10.656,leap3,2022.2.5,60.03416591635884,
,,,,,,,,,,,,,,,,,,,,14,0,14,0,17,0,17,0,,,,,,aggepting,nw,h,lower,,,,,,,1,nw,HiDemTar,h,1,0.5946257927062106,,,,,,,,,,,,,,,,,,,337,2023-11-20_13h36.10.656,leap3,2022.2.5,60.03416591635884,
,,,,,,,,,,,,,,,,,,,,14,0,14,0,18,0,18,0,,,,,,chrayed,nw,h,lower,,,,,,,1,nw,HiDemTar,h,1,0.5134062531378731,,,,,,,,,,,,,,,,,,,337,2023-11-20_13h36.10.656,leap3,2022.2.5,60.03416591635884,
,,,,,,,,,,,,,,,,,,,,14,0,14,0,19,0,19,0,,,,,,attrove,nw,h,lower,,,,,,,1,nw,HiDemTar,h,1,0.6433664553151175,,,,,,,,,,,,,,,,,,,337,2023-11-20_13h36.10.656,leap3,2022.2.5,60.03416591635884,
,,,,,,,,,,,,,,,,,,,,14,0,14,0,20,0,20,0,,,,,,unsmilung,nw,h,lower,,,,,,,1,nw,HiDemTar,h,1,0.6321286440397671,,,,,,,,,,,,,,,,,,,337,2023-11-20_13h36.10.656,leap3,2022.2.5,60.03416591635884,
,,,,,,,,,,,,,,,,,,,,14,0,14,0,21,0,21,0,,,,,,dusmy,nw,h,lower,,,,,,,1,nw,HiDemTar,h,1,0.5814836716726859,,,,,,,,,,,,,,,,,,,337,2023-11-20_13h36.10.656,leap3,2022.2.5,60.03416591635884,
,,,,,,,,,,,,,,,,,,,,14,0,14,0,22,0,22,0,,,,,,triangle,w,g,lower,,,,,,,1,nw,HiDemTar,g,1,0.540903863647145,,,,,,,,,,,,,,,,,,,337,2023-11-20_13h36.10.656,leap3,2022.2.5,60.03416591635884,
,,,,,,,,,,,,,,,,,,,,14,0,14,0,23,0,23,0,,,,,,burning,w,g,lower,,,,,,,1,w,HiDemTar,g,1,0.5967635062179397,,,,,,,,,,,,,,,,,,,337,2023-11-20_13h36.10.656,leap3,2022.2.5,60.03416591635884,
,,,,,,,,,,,,,,,,,,,,14,0,14,0,24,0,24,0,,,,,,imprives,nw,h,lower,,,,,,,1,w,HiDemTar,h,1,0.8914974871886443,,,,,,,,,,,,,,,,,,,337,2023-11-20_13h36.10.656,leap3,2022.2.5,60.03416591635884,
,,,,,,,,,,,,,,,,,,,,14,0,14,0,25,0,25,0,,,,,,fuintets,nw,h,lower,,,,,,,1,nw,HiDemTar,h,1,0.5822567181412523,,,,,,,,,,,,,,,,,,,337,2023-11-20_13h36.10.656,leap3,2022.2.5,60.03416591635884,
,,,,,,,,,,,,,,,,,,,,14,0,14,0,26,0,26,0,,,,,,glates,nw,h,lower,,,,,,,1,nw,HiDemTar,h,1,0.5017608957368793,,,,,,,,,,,,,,,,,,,337,2023-11-20_13h36.10.656,leap3,2022.2.5,60.03416591635884,
,,,,,,,,,,,,,,,,,,,,14,0,14,0,27,0,27,0,,,,,,explosion,w,g,lower,,,,,,,1,nw,HiDemTar,g,1,1.1117991772634923,,,,,,,,,,,,,,,,,,,337,2023-11-20_13h36.10.656,leap3,2022.2.5,60.03416591635884,
,,,,,,,,,,,,,,,,,,,,14,0,14,0,28,0,28,0,,,,,,probable,w,g,lower,,,,,,,1,w,HiDemTar,g,1,0.8898441278461178,,,,,,,,,,,,,,,,,,,337,2023-11-20_13h36.10.656,leap3,2022.2.5,60.03416591635884,
,,,,,,,,,,,,,,,,,,,,14,0,14,0,29,0,29,0,,,,,,target,w,g,lower,,,,,,,1,w,HiDemTar,g,1,0.6125363027294952,,,,,,,,,,,,,,,,,,,337,2023-11-20_13h36.10.656,leap3,2022.2.5,60.03416591635884,
,,,,,,,,,,,,,,,,,,,,14,0,14,0,,,,,,,,,,,,,,,,,,,,,,,,,,1,,,,,,,,,,,,,,,,,,337,2023-11-20_13h36.10.656,leap3,2022.2.5,60.03416591635884,
,,,,,,,,,,,,,,,,,,,,15,0,15,0,0,0,0,0,,,,,,saturate,w,g,lower,,,,,,,1,w,HiDemTar,g,1,0.5465730917949259,,,,,,,,,,,,,,,,,,,337,2023-11-20_13h36.10.656,leap3,2022.2.5,60.03416591635884,
,,,,,,,,,,,,,,,,,,,,15,0,15,0,1,0,1,0,,,,,,nauling,nw,h,lower,,,,,,,1,nw,HiDemTar,h,1,0.5473921568755031,,,,,,,,,,,,,,,,,,,337,2023-11-20_13h36.10.656,leap3,2022.2.5,60.03416591635884,
,,,,,,,,,,,,,,,,,,,,15,0,15,0,2,0,2,0,,,,,,charcoal,w,g,lower,,,,,,,1,w,HiDemTar,g,1,0.6600914067066697,,,,,,,,,,,,,,,,,,,337,2023-11-20_13h36.10.656,leap3,2022.2.5,60.03416591635884,
,,,,,,,,,,,,,,,,,,,,15,0,15,0,3,0,3,0,,,,,,pripend,nw,h,lower,,,,,,,1,nw,HiDemTar,h,1,0.5361407717646216,,,,,,,,,,,,,,,,,,,337,2023-11-20_13h36.10.656,leap3,2022.2.5,60.03416591635884,
,,,,,,,,,,,,,,,,,,,,15,0,15,0,4,0,4,0,,,,,,summon,w,g,lower,,,,,,,1,w,HiDemTar,g,1,0.6248775674857825,,,,,,,,,,,,,,,,,,,337,2023-11-20_13h36.10.656,leap3,2022.2.5,60.03416591635884,
,,,,,,,,,,,,,,,,,,,,15,0,15,0,5,0,5,0,,,,,,mitro,nw,h,lower,,,,,,,1,nw,HiDemTar,h,1,0.6223352874712873,,,,,,,,,,,,,,,,,,,337,2023-11-20_13h36.10.656,leap3,2022.2.5,60.03416591635884,
,,,,,,,,,,,,,,,,,,,,15,0,15,0,6,0,6,0,,,,,,elpousal,nw,h,lower,,,,,,,1,nw,HiDemTar,h,1,0.6427857600237985,,,,,,,,,,,,,,,,,,,337,2023-11-20_13h36.10.656,leap3,2022.2.5,60.03416591635884,
,,,,,,,,,,,,,,,,,,,,15,0,15,0,7,0,7,0,,,,,,aicline,nw,h,lower,,,,,,,1,nw,HiDemTar,h,1,0.6714149648914827,,,,,,,,,,,,,,,,,,,337,2023-11-20_13h36.10.656,leap3,2022.2.5,60.03416591635884,
,,,,,,,,,,,,,,,,,,,,15,0,15,0,8,0,8,0,,,,,,overcoat,w,g,lower,,,,,,,1,w,HiDemTar,g,1,0.49877961802849313,,,,,,,,,,,,,,,,,,,337,2023-11-20_13h36.10.656,leap3,2022.2.5,60.03416591635884,
,,,,,,,,,,,,,,,,,,,,15,0,15,0,9,0,9,0,,,,,,digest,w,g,lower,,,,,,,1,w,HiDemTar,g,1,0.6134960721983589,,,,,,,,,,,,,,,,,,,337,2023-11-20_13h36.10.656,leap3,2022.2.5,60.03416591635884,
,,,,,,,,,,,,,,,,,,,,15,0,15,0,10,0,10,0,,,,,,sunhess,nw,h,lower,,,,,,,1,nw,HiDemTar,h,1,0.5315478494276249,,,,,,,,,,,,,,,,,,,337,2023-11-20_13h36.10.656,leap3,2022.2.5,60.03416591635884,
,,,,,,,,,,,,,,,,,,,,15,0,15,0,11,0,11,0,,,,,,forfeit,w,g,lower,,,,,,,1,w,HiDemTar,g,1,0.9169275708454734,,,,,,,,,,,,,,,,,,,337,2023-11-20_13h36.10.656,leap3,2022.2.5,60.03416591635884,
,,,,,,,,,,,,,,,,,,,,15,0,15,0,12,0,12,0,,,,,,chemical,w,g,lower,,,,,,,1,w,HiDemTar,g,1,0.5511001313707311,,,,,,,,,,,,,,,,,,,337,2023-11-20_13h36.10.656,leap3,2022.2.5,60.03416591635884,
,,,,,,,,,,,,,,,,,,,,15,0,15,0,13,0,13,0,,,,,,befin,nw,h,lower,,,,,,,1,nw,HiDemTar,h,1,0.5031096714601517,,,,,,,,,,,,,,,,,,,337,2023-11-20_13h36.10.656,leap3,2022.2.5,60.03416591635884,
,,,,,,,,,,,,,,,,,,,,15,0,15,0,14,0,14,0,,,,,,ezulated,nw,h,lower,,,,,,,1,nw,HiDemTar,h,1,0.48919946999467356,,,,,,,,,,,,,,,,,,,337,2023-11-20_13h36.10.656,leap3,2022.2.5,60.03416591635884,
,,,,,,,,,,,,,,,,,,,,15,0,15,0,15,0,15,0,,,,,,veranpah,nw,h,lower,,,,,,,1,nw,HiDemTar,h,1,0.49147590148004383,,,,,,,,,,,,,,,,,,,337,2023-11-20_13h36.10.656,leap3,2022.2.5,60.03416591635884,
,,,,,,,,,,,,,,,,,,,,15,0,15,0,16,0,16,0,,,,,,monkey,target,q,lower,,,,,,,1,target,HiDemTar,q,1,0.8374504482217162,,1,,,,,,,,,,,,,,,,,337,2023-11-20_13h36.10.656,leap3,2022.2.5,60.03416591635884,
,,,,,,,,,,,,,,,,,,,,15,0,15,0,17,0,17,0,,,,,,coupling,w,g,lower,,,,,,,1,aftertar1,HiDemTar,g,1,0.6504755032037792,,,,,,,,,,,,,,,,,,,337,2023-11-20_13h36.10.656,leap3,2022.2.5,60.03416591635884,
,,,,,,,,,,,,,,,,,,,,15,0,15,0,18,0,18,0,,,,,,hinsome,nw,h,lower,,,,,,,1,aftertar2,HiDemTar,h,1,0.5911585054846,,,,,,,,,,,,,,,,,,,337,2023-11-20_13h36.10.656,leap3,2022.2.5,60.03416591635884,
,,,,,,,,,,,,,,,,,,,,15,0,15,0,19,0,19,0,,,,,,catacomb,w,g,lower,,,,,,,1,aftertar3,HiDemTar,g,1,0.6218760945585018,,,,,,,,,,,,,,,,,,,337,2023-11-20_13h36.10.656,leap3,2022.2.5,60.03416591635884,
,,,,,,,,,,,,,,,,,,,,15,0,15,0,20,0,20,0,,,,,,mestowal,nw,h,lower,,,,,,,1,w,HiDemTar,h,1,0.5633937221709857,,,,,,,,,,,,,,,,,,,337,2023-11-20_13h36.10.656,leap3,2022.2.5,60.03416591635884,
,,,,,,,,,,,,,,,,,,,,15,0,15,0,21,0,21,0,,,,,,greakable,nw,h,lower,,,,,,,1,nw,HiDemTar,h,1,0.5313912537194483,,,,,,,,,,,,,,,,,,,337,2023-11-20_13h36.10.656,leap3,2022.2.5,60.03416591635884,
,,,,,,,,,,,,,,,,,,,,15,0,15,0,22,0,22,0,,,,,,professor,w,g,lower,,,,,,,1,nw,HiDemTar,g,1,0.5327827373630498,,,,,,,,,,,,,,,,,,,337,2023-11-20_13h36.10.656,leap3,2022.2.5,60.03416591635884,
,,,,,,,,,,,,,,,,,,,,15,0,15,0,23,0,23,0,,,,,,rawhide,w,g,lower,,,,,,,1,w,HiDemTar,g,1,0.8221567087721269,,,,,,,,,,,,,,,,,,,337,2023-11-20_13h36.10.656,leap3,2022.2.5,60.03416591635884,
,,,,,,,,,,,,,,,,,,,,15,0,15,0,24,0,24,0,,,,,,bureaug,nw,h,lower,,,,,,,1,w,HiDemTar,h,1,0.48356136234633595,,,,,,,,,,,,,,,,,,,337,2023-11-20_13h36.10.656,leap3,2022.2.5,60.03416591635884,
,,,,,,,,,,,,,,,,,,,,15,0,15,0,25,0,25,0,,,,,,wrestle,w,g,lower,,,,,,,1,nw,HiDemTar,g,1,0.6150014436298079,,,,,,,,,,,,,,,,,,,337,2023-11-20_13h36.10.656,leap3,2022.2.5,60.03416591635884,
,,,,,,,,,,,,,,,,,,,,15,0,15,0,26,0,26,0,,,,,,serving,w,g,lower,,,,,,,1,w,HiDemTar,g,1,0.6120499621456474,,,,,,,,,,,,,,,,,,,337,2023-11-20_13h36.10.656,leap3,2022.2.5,60.03416591635884,
,,,,,,,,,,,,,,,,,,,,15,0,15,0,27,0,27,0,,,,,,daining,nw,h,lower,,,,,,,1,w,HiDemTar,h,1,0.8100505031125067,,,,,,,,,,,,,,,,,,,337,2023-11-20_13h36.10.656,leap3,2022.2.5,60.03416591635884,
,,,,,,,,,,,,,,,,,,,,15,0,15,0,28,0,28,0,,,,,,bookend,w,g,lower,,,,,,,1,nw,HiDemTar,g,1,0.744146222486961,,,,,,,,,,,,,,,,,,,337,2023-11-20_13h36.10.656,leap3,2022.2.5,60.03416591635884,
,,,,,,,,,,,,,,,,,,,,15,0,15,0,29,0,29,0,,,,,,thaken,nw,h,lower,,,,,,,1,w,HiDemTar,h,1,0.6568588475111028,,,,,,,,,,,,,,,,,,,337,2023-11-20_13h36.10.656,leap3,2022.2.5,60.03416591635884,
,,,,,,,,,,,,,,,,,,,,15,0,15,0,,,,,,,,,,,,,,,,,,,,,,,,,,1,,,,,,,,,,,,,,,,,,337,2023-11-20_13h36.10.656,leap3,2022.2.5,60.03416591635884,
,,,,,,,,,,,,,,,,,,,,16,0,16,0,0,0,0,0,,,,,,legalosm,nw,h,lower,,,,,,,1,nw,HiDemTar,h,1,0.47793285570242006,,,,,,,,,,,,,,,,,,,337,2023-11-20_13h36.10.656,leap3,2022.2.5,60.03416591635884,
,,,,,,,,,,,,,,,,,,,,16,0,16,0,1,0,1,0,,,,,,yash,nw,h,lower,,,,,,,1,nw,HiDemTar,h,1,0.5124011271946074,,,,,,,,,,,,,,,,,,,337,2023-11-20_13h36.10.656,leap3,2022.2.5,60.03416591635884,
,,,,,,,,,,,,,,,,,,,,16,0,16,0,2,0,2,0,,,,,,addition,w,g,lower,,,,,,,1,w,HiDemTar,g,1,0.49839723315926676,,,,,,,,,,,,,,,,,,,337,2023-11-20_13h36.10.656,leap3,2022.2.5,60.03416591635884,
,,,,,,,,,,,,,,,,,,,,16,0,16,0,3,0,3,0,,,,,,thamp,nw,h,lower,,,,,,,1,nw,HiDemTar,h,1,0.5811002935952274,,,,,,,,,,,,,,,,,,,337,2023-11-20_13h36.10.656,leap3,2022.2.5,60.03416591635884,
,,,,,,,,,,,,,,,,,,,,16,0,16,0,4,0,4,0,,,,,,frigs,nw,h,lower,,,,,,,1,nw,HiDemTar,h,1,0.540481419408934,,,,,,,,,,,,,,,,,,,337,2023-11-20_13h36.10.656,leap3,2022.2.5,60.03416591635884,
,,,,,,,,,,,,,,,,,,,,16,0,16,0,5,0,5,0,,,,,,movie,w,g,lower,,,,,,,1,w,HiDemTar,g,1,0.5494030709014623,,,,,,,,,,,,,,,,,,,337,2023-11-20_13h36.10.656,leap3,2022.2.5,60.03416591635884,
,,,,,,,,,,,,,,,,,,,,16,0,16,0,6,0,6,0,,,,,,tusied,nw,h,lower,,,,,,,1,nw,HiDemTar,h,1,0.5099469115748434,,,,,,,,,,,,,,,,,,,337,2023-11-20_13h36.10.656,leap3,2022.2.5,60.03416591635884,
,,,,,,,,,,,,,,,,,,,,16,0,16,0,7,0,7,0,,,,,,remade,w,g,lower,,,,,,,1,w,HiDemTar,g,1,0.5200173730227107,,,,,,,,,,,,,,,,,,,337,2023-11-20_13h36.10.656,leap3,2022.2.5,60.03416591635884,
