demoRace_loop.thisRepN,demoRace_loop.thisTrialN,demoRace_loop.thisN,demoRace_loop.thisIndex,LDTunderstand.thisRepN,LDTunderstand.thisTrialN,LDTunderstand.thisN,LDTunderstand.thisIndex,pracBlocks.thisRepN,pracBlocks.thisTrialN,pracBlocks.thisN,pracBlocks.thisIndex,pracTrial.thisRepN,pracTrial.thisTrialN,pracTrial.thisN,pracTrial.thisIndex,PMunderstand.thisRepN,PMunderstand.thisTrialN,PMunderstand.thisN,PMunderstand.thisIndex,LDT_block.thisRepN,LDT_block.thisTrialN,LDT_block.thisN,LDT_block.thisIndex,LDT_trial.thisRepN,LDT_trial.thisTrialN,LDT_trial.thisN,LDT_trial.thisIndex,ageTextbox.text,genderTextbox.text,race,raceResp,LDTunderstand,stim,word_type,corr_key,stim_location,LDTpracKey.keys,LDTpracKey.corr,LDTpracKey.rt,PMunderstand,cueTextbox.text,intentionTextbox.text,block_type,role,block_desc,LDTResp.keys,LDTResp.corr,LDTResp.rt,pressedQ,PM_accuracy,pressedQ_late,pressedQ_blank,postQ1,Q2Textbox.text,Q3Textbox.text,Q4,Q5,Q6Key.keys,Q6Key.rt,postQ7_correct,postQ7,Q8Textbox.text,education,medTextbox.text,health,healthLimit,psych,participant,date,expName,psychopyVersion,frameRate,
0,0,0,0,,,,,,,,,,,,,,,,,,,,,,,,,"
18
", female,American Indian or Alaska Native,n,,,,,,,,,,,,,,,,,,,,,,,,,,,,,,,,,,,,,338,2023-11-27_13h09.31.817,leap3,2022.2.5,60.47032657580103,
1,0,1,0,,,,,,,,,,,,,,,,,,,,,,,,,,,Asian,y,,,,,,,,,,,,,,,,,,,,,,,,,,,,,,,,,,,,,338,2023-11-27_13h09.31.817,leap3,2022.2.5,60.47032657580103,
2,0,2,0,,,,,,,,,,,,,,,,,,,,,,,,,,,Black or African American,n,,,,,,,,,,,,,,,,,,,,,,,,,,,,,,,,,,,,,338,2023-11-27_13h09.31.817,leap3,2022.2.5,60.47032657580103,
3,0,3,0,,,,,,,,,,,,,,,,,,,,,,,,,,,Native Hawaiian or other Pacific Islander,n,,,,,,,,,,,,,,,,,,,,,,,,,,,,,,,,,,,,,338,2023-11-27_13h09.31.817,leap3,2022.2.5,60.47032657580103,
4,0,4,0,,,,,,,,,,,,,,,,,,,,,,,,,,,White,n,,,,,,,,,,,,,,,,,,,,,,,,,,,,,,,,,,,,,338,2023-11-27_13h09.31.817,leap3,2022.2.5,60.47032657580103,
,,,,0,0,0,0,,,,,,,,,,,,,,,,,,,,,,,,,y,,,,,,,,,,,,,,,,,,,,,,,,,,,,,,,,,,,,338,2023-11-27_13h09.31.817,leap3,2022.2.5,60.47032657580103,
,,,,,,,,0,0,0,0,0,0,0,0,,,,,,,,,,,,,,,,,,crinklo,nw,h,upper,h,1,4.09547151112929,,,,,,,,,,,,,,,,,,,,,,,,,,,,,338,2023-11-27_13h09.31.817,leap3,2022.2.5,60.47032657580103,
,,,,,,,,0,0,0,0,1,0,1,0,,,,,,,,,,,,,,,,,,sponsor,w,g,upper,g,1,1.1034496154170483,,,,,,,,,,,,,,,,,,,,,,,,,,,,,338,2023-11-27_13h09.31.817,leap3,2022.2.5,60.47032657580103,
,,,,,,,,0,0,0,0,2,0,2,0,,,,,,,,,,,,,,,,,,lumbigo,nw,h,upper,h,1,0.7205469533801079,,,,,,,,,,,,,,,,,,,,,,,,,,,,,338,2023-11-27_13h09.31.817,leap3,2022.2.5,60.47032657580103,
,,,,,,,,0,0,0,0,3,0,3,0,,,,,,,,,,,,,,,,,,reputable,w,g,upper,g,1,1.1941784542286769,,,,,,,,,,,,,,,,,,,,,,,,,,,,,338,2023-11-27_13h09.31.817,leap3,2022.2.5,60.47032657580103,
,,,,,,,,0,0,0,0,4,0,4,0,,,,,,,,,,,,,,,,,,trotch,nw,h,upper,h,1,1.1058942300733179,,,,,,,,,,,,,,,,,,,,,,,,,,,,,338,2023-11-27_13h09.31.817,leap3,2022.2.5,60.47032657580103,
,,,,,,,,0,0,0,0,5,0,5,0,,,,,,,,,,,,,,,,,,tricycle,w,g,upper,g,1,0.7144890500931069,,,,,,,,,,,,,,,,,,,,,,,,,,,,,338,2023-11-27_13h09.31.817,leap3,2022.2.5,60.47032657580103,
,,,,,,,,0,0,0,0,6,0,6,0,,,,,,,,,,,,,,,,,,hasking,nw,h,upper,h,1,0.9252513137180358,,,,,,,,,,,,,,,,,,,,,,,,,,,,,338,2023-11-27_13h09.31.817,leap3,2022.2.5,60.47032657580103,
,,,,,,,,0,0,0,0,7,0,7,0,,,,,,,,,,,,,,,,,,raestro,nw,h,upper,h,1,0.5586749957874417,,,,,,,,,,,,,,,,,,,,,,,,,,,,,338,2023-11-27_13h09.31.817,leap3,2022.2.5,60.47032657580103,
,,,,,,,,0,0,0,0,8,0,8,0,,,,,,,,,,,,,,,,,,alolition,nw,h,upper,h,1,0.5588024574099109,,,,,,,,,,,,,,,,,,,,,,,,,,,,,338,2023-11-27_13h09.31.817,leap3,2022.2.5,60.47032657580103,
,,,,,,,,0,0,0,0,9,0,9,0,,,,,,,,,,,,,,,,,,summary,w,g,upper,g,1,0.8156422632746398,,,,,,,,,,,,,,,,,,,,,,,,,,,,,338,2023-11-27_13h09.31.817,leap3,2022.2.5,60.47032657580103,
,,,,,,,,0,0,0,0,10,0,10,0,,,,,,,,,,,,,,,,,,julled,nw,h,upper,h,1,0.6674116788199171,,,,,,,,,,,,,,,,,,,,,,,,,,,,,338,2023-11-27_13h09.31.817,leap3,2022.2.5,60.47032657580103,
,,,,,,,,0,0,0,0,11,0,11,0,,,,,,,,,,,,,,,,,,picture,w,g,upper,g,1,0.5681432423880324,,,,,,,,,,,,,,,,,,,,,,,,,,,,,338,2023-11-27_13h09.31.817,leap3,2022.2.5,60.47032657580103,
,,,,,,,,0,0,0,0,12,0,12,0,,,,,,,,,,,,,,,,,,overshoot,w,g,upper,g,1,0.6785445412388071,,,,,,,,,,,,,,,,,,,,,,,,,,,,,338,2023-11-27_13h09.31.817,leap3,2022.2.5,60.47032657580103,
,,,,,,,,0,0,0,0,13,0,13,0,,,,,,,,,,,,,,,,,,umpire,w,g,upper,g,1,0.6110915191238746,,,,,,,,,,,,,,,,,,,,,,,,,,,,,338,2023-11-27_13h09.31.817,leap3,2022.2.5,60.47032657580103,
,,,,,,,,0,0,0,0,,,,,,,,,,,,,,,,,,,,,,,,,,,,,,,,,,,,,,,,,,,,,,,,,,,,,,,,,338,2023-11-27_13h09.31.817,leap3,2022.2.5,60.47032657580103,
,,,,,,,,1,0,1,0,0,0,0,0,,,,,,,,,,,,,,,,,,grutch,nw,h,lower,h,1,0.8493808583589271,,,,,,,,,,,,,,,,,,,,,,,,,,,,,338,2023-11-27_13h09.31.817,leap3,2022.2.5,60.47032657580103,
,,,,,,,,1,0,1,0,1,0,1,0,,,,,,,,,,,,,,,,,,busted,w,g,lower,g,1,0.7098345488775522,,,,,,,,,,,,,,,,,,,,,,,,,,,,,338,2023-11-27_13h09.31.817,leap3,2022.2.5,60.47032657580103,
,,,,,,,,1,0,1,0,2,0,2,0,,,,,,,,,,,,,,,,,,lurshing,nw,h,lower,h,1,0.7513771060621366,,,,,,,,,,,,,,,,,,,,,,,,,,,,,338,2023-11-27_13h09.31.817,leap3,2022.2.5,60.47032657580103,
,,,,,,,,1,0,1,0,3,0,3,0,,,,,,,,,,,,,,,,,,revival,w,g,lower,g,1,0.76893635164015,,,,,,,,,,,,,,,,,,,,,,,,,,,,,338,2023-11-27_13h09.31.817,leap3,2022.2.5,60.47032657580103,
,,,,,,,,1,0,1,0,4,0,4,0,,,,,,,,,,,,,,,,,,latador,nw,h,lower,h,1,0.7200900779571384,,,,,,,,,,,,,,,,,,,,,,,,,,,,,338,2023-11-27_13h09.31.817,leap3,2022.2.5,60.47032657580103,
,,,,,,,,1,0,1,0,5,0,5,0,,,,,,,,,,,,,,,,,,slumber,w,g,lower,g,1,0.7936874123988673,,,,,,,,,,,,,,,,,,,,,,,,,,,,,338,2023-11-27_13h09.31.817,leap3,2022.2.5,60.47032657580103,
,,,,,,,,1,0,1,0,6,0,6,0,,,,,,,,,,,,,,,,,,turative,nw,h,lower,h,1,0.6715129635995254,,,,,,,,,,,,,,,,,,,,,,,,,,,,,338,2023-11-27_13h09.31.817,leap3,2022.2.5,60.47032657580103,
,,,,,,,,1,0,1,0,7,0,7,0,,,,,,,,,,,,,,,,,,curlecs,nw,h,lower,h,1,0.7949630219954997,,,,,,,,,,,,,,,,,,,,,,,,,,,,,338,2023-11-27_13h09.31.817,leap3,2022.2.5,60.47032657580103,
,,,,,,,,1,0,1,0,8,0,8,0,,,,,,,,,,,,,,,,,,grocus,nw,h,lower,h,1,0.5936362291686237,,,,,,,,,,,,,,,,,,,,,,,,,,,,,338,2023-11-27_13h09.31.817,leap3,2022.2.5,60.47032657580103,
,,,,,,,,1,0,1,0,9,0,9,0,,,,,,,,,,,,,,,,,,unscrew,w,g,lower,h,0,0.8236978377681226,,,,,,,,,,,,,,,,,,,,,,,,,,,,,338,2023-11-27_13h09.31.817,leap3,2022.2.5,60.47032657580103,
,,,,,,,,1,0,1,0,10,0,10,0,,,,,,,,,,,,,,,,,,treeps,nw,h,lower,h,1,0.6218780832132325,,,,,,,,,,,,,,,,,,,,,,,,,,,,,338,2023-11-27_13h09.31.817,leap3,2022.2.5,60.47032657580103,
,,,,,,,,1,0,1,0,11,0,11,0,,,,,,,,,,,,,,,,,,grimace,w,g,lower,g,1,0.6753202587133273,,,,,,,,,,,,,,,,,,,,,,,,,,,,,338,2023-11-27_13h09.31.817,leap3,2022.2.5,60.47032657580103,
,,,,,,,,1,0,1,0,12,0,12,0,,,,,,,,,,,,,,,,,,hiring,w,g,lower,g,1,0.6137347752228379,,,,,,,,,,,,,,,,,,,,,,,,,,,,,338,2023-11-27_13h09.31.817,leap3,2022.2.5,60.47032657580103,
,,,,,,,,1,0,1,0,13,0,13,0,,,,,,,,,,,,,,,,,,infinity,w,g,lower,g,1,0.5233949427492917,,,,,,,,,,,,,,,,,,,,,,,,,,,,,338,2023-11-27_13h09.31.817,leap3,2022.2.5,60.47032657580103,
,,,,,,,,1,0,1,0,,,,,,,,,,,,,,,,,,,,,,,,,,,,,,,,,,,,,,,,,,,,,,,,,,,,,,,,,338,2023-11-27_13h09.31.817,leap3,2022.2.5,60.47032657580103,
,,,,,,,,,,,,,,,,0,0,0,0,,,,,,,,,,,,,,,,,,,,,y,,,,,,,,,,,,,,,,,,,,,,,,,,,,338,2023-11-27_13h09.31.817,leap3,2022.2.5,60.47032657580103,
,,,,,,,,,,,,,,,,,,,,0,0,0,0,0,0,0,0,,,,,,realize,w,g,lower,,,,,animal,"
q
",4,w,LoDemTar,g,1,0.7744989754864946,,,,,,,,,,,,,,,,,,,,338,2023-11-27_13h09.31.817,leap3,2022.2.5,60.47032657580103,
,,,,,,,,,,,,,,,,,,,,0,0,0,0,1,0,1,0,,,,,,holdup,w,g,lower,,,,,,,4,w,LoDemTar,g,1,0.6569048683159053,,,,,,,,,,,,,,,,,,,,338,2023-11-27_13h09.31.817,leap3,2022.2.5,60.47032657580103,
,,,,,,,,,,,,,,,,,,,,0,0,0,0,2,0,2,0,,,,,,oldest,w,g,lower,,,,,,,4,w,LoDemTar,g,1,0.5335620763944462,,,,,,,,,,,,,,,,,,,,338,2023-11-27_13h09.31.817,leap3,2022.2.5,60.47032657580103,
,,,,,,,,,,,,,,,,,,,,0,0,0,0,3,0,3,0,,,,,,usage,w,g,lower,,,,,,,4,w,LoDemTar,g,1,0.5356358934659511,,,,,,,,,,,,,,,,,,,,338,2023-11-27_13h09.31.817,leap3,2022.2.5,60.47032657580103,
,,,,,,,,,,,,,,,,,,,,0,0,0,0,4,0,4,0,,,,,,vorm,nw,h,lower,,,,,,,4,nw,LoDemTar,h,1,0.6730110514909029,,,,,,,,,,,,,,,,,,,,338,2023-11-27_13h09.31.817,leap3,2022.2.5,60.47032657580103,
,,,,,,,,,,,,,,,,,,,,0,0,0,0,5,0,5,0,,,,,,formation,w,g,lower,,,,,,,4,w,LoDemTar,g,1,0.6210437888512388,,,,,,,,,,,,,,,,,,,,338,2023-11-27_13h09.31.817,leap3,2022.2.5,60.47032657580103,
,,,,,,,,,,,,,,,,,,,,0,0,0,0,6,0,6,0,,,,,,crundle,nw,h,lower,,,,,,,4,nw,LoDemTar,h,1,1.018146337941289,,,,,,,,,,,,,,,,,,,,338,2023-11-27_13h09.31.817,leap3,2022.2.5,60.47032657580103,
,,,,,,,,,,,,,,,,,,,,0,0,0,0,7,0,7,0,,,,,,joses,nw,h,lower,,,,,,,4,nw,LoDemTar,g,0,0.5441950242966413,,,,,,,,,,,,,,,,,,,,338,2023-11-27_13h09.31.817,leap3,2022.2.5,60.47032657580103,
,,,,,,,,,,,,,,,,,,,,0,0,0,0,8,0,8,0,,,,,,comment,w,g,lower,,,,,,,4,w,LoDemTar,g,1,0.4415976874297485,,,,,,,,,,,,,,,,,,,,338,2023-11-27_13h09.31.817,leap3,2022.2.5,60.47032657580103,
,,,,,,,,,,,,,,,,,,,,0,0,0,0,9,0,9,0,,,,,,hegacy,nw,h,lower,,,,,,,4,nw,LoDemTar,h,1,0.6627263883128762,,,,,,,,,,,,,,,,,,,,338,2023-11-27_13h09.31.817,leap3,2022.2.5,60.47032657580103,
,,,,,,,,,,,,,,,,,,,,0,0,0,0,10,0,10,0,,,,,,mabit,nw,h,lower,,,,,,,4,nw,LoDemTar,h,1,1.1077604668680578,,,,,,,,,,,,,,,,,,,,338,2023-11-27_13h09.31.817,leap3,2022.2.5,60.47032657580103,
,,,,,,,,,,,,,,,,,,,,0,0,0,0,11,0,11,0,,,,,,traze,nw,h,lower,,,,,,,4,nw,LoDemTar,h,1,0.5186666131485254,,,,,,,,,,,,,,,,,,,,338,2023-11-27_13h09.31.817,leap3,2022.2.5,60.47032657580103,
,,,,,,,,,,,,,,,,,,,,0,0,0,0,12,0,12,0,,,,,,scack,nw,h,lower,,,,,,,4,nw,LoDemTar,h,1,0.6806716605788097,,,,,,,,,,,,,,,,,,,,338,2023-11-27_13h09.31.817,leap3,2022.2.5,60.47032657580103,
,,,,,,,,,,,,,,,,,,,,0,0,0,0,13,0,13,0,,,,,,cabinet,w,g,lower,,,,,,,4,w,LoDemTar,g,1,0.7007688822923228,,,,,,,,,,,,,,,,,,,,338,2023-11-27_13h09.31.817,leap3,2022.2.5,60.47032657580103,
,,,,,,,,,,,,,,,,,,,,0,0,0,0,14,0,14,0,,,,,,intrude,w,g,lower,,,,,,,4,w,LoDemTar,g,1,0.8145315262954682,,,,,,,,,,,,,,,,,,,,338,2023-11-27_13h09.31.817,leap3,2022.2.5,60.47032657580103,
,,,,,,,,,,,,,,,,,,,,0,0,0,0,15,0,15,0,,,,,,dolphin,target,q,lower,,,,,,,4,target,LoDemTar,q,1,0.5172013009432703,1,,,,,,,,,,,,,,,,,,,338,2023-11-27_13h09.31.817,leap3,2022.2.5,60.47032657580103,
,,,,,,,,,,,,,,,,,,,,0,0,0,0,16,0,16,0,,,,,,causality,w,g,lower,,,,,,,4,aftertar1,LoDemTar,g,1,1.5033109637442976,,,,,,,,,,,,,,,,,,,,338,2023-11-27_13h09.31.817,leap3,2022.2.5,60.47032657580103,
,,,,,,,,,,,,,,,,,,,,0,0,0,0,17,0,17,0,,,,,,overwork,w,g,lower,,,,,,,4,aftertar2,LoDemTar,g,1,0.5460589436115697,,,,,,,,,,,,,,,,,,,,338,2023-11-27_13h09.31.817,leap3,2022.2.5,60.47032657580103,
,,,,,,,,,,,,,,,,,,,,0,0,0,0,18,0,18,0,,,,,,actively,w,g,lower,,,,,,,4,aftertar3,LoDemTar,g,1,0.45945026038680226,,,,,,,,,,,,,,,,,,,,338,2023-11-27_13h09.31.817,leap3,2022.2.5,60.47032657580103,
,,,,,,,,,,,,,,,,,,,,0,0,0,0,19,0,19,0,,,,,,tredits,nw,h,lower,,,,,,,4,w,LoDemTar,h,1,1.0162370620528236,,,,,,,,,,,,,,,,,,,,338,2023-11-27_13h09.31.817,leap3,2022.2.5,60.47032657580103,
,,,,,,,,,,,,,,,,,,,,0,0,0,0,20,0,20,0,,,,,,undimmec,nw,h,lower,,,,,,,4,nw,LoDemTar,h,1,0.6469274372793734,,,,,,,,,,,,,,,,,,,,338,2023-11-27_13h09.31.817,leap3,2022.2.5,60.47032657580103,
,,,,,,,,,,,,,,,,,,,,0,0,0,0,21,0,21,0,,,,,,squadroim,nw,h,lower,,,,,,,4,nw,LoDemTar,h,1,0.6357545155333355,,,,,,,,,,,,,,,,,,,,338,2023-11-27_13h09.31.817,leap3,2022.2.5,60.47032657580103,
,,,,,,,,,,,,,,,,,,,,0,0,0,0,22,0,22,0,,,,,,smabled,nw,h,lower,,,,,,,4,nw,LoDemTar,h,1,0.5050785419298336,,,,,,,,,,,,,,,,,,,,338,2023-11-27_13h09.31.817,leap3,2022.2.5,60.47032657580103,
,,,,,,,,,,,,,,,,,,,,0,0,0,0,23,0,23,0,,,,,,padicals,nw,h,lower,,,,,,,4,nw,LoDemTar,h,1,0.579834949458018,,,,,,,,,,,,,,,,,,,,338,2023-11-27_13h09.31.817,leap3,2022.2.5,60.47032657580103,
,,,,,,,,,,,,,,,,,,,,0,0,0,0,24,0,24,0,,,,,,ameld,nw,h,lower,,,,,,,4,nw,LoDemTar,h,1,0.4830601258436218,,,,,,,,,,,,,,,,,,,,338,2023-11-27_13h09.31.817,leap3,2022.2.5,60.47032657580103,
,,,,,,,,,,,,,,,,,,,,0,0,0,0,25,0,25,0,,,,,,parlayid,nw,h,lower,,,,,,,4,nw,LoDemTar,h,1,0.5349274055333808,,,,,,,,,,,,,,,,,,,,338,2023-11-27_13h09.31.817,leap3,2022.2.5,60.47032657580103,
,,,,,,,,,,,,,,,,,,,,0,0,0,0,26,0,26,0,,,,,,plymie,nw,h,lower,,,,,,,4,nw,LoDemTar,h,1,0.4963565251091495,,,,,,,,,,,,,,,,,,,,338,2023-11-27_13h09.31.817,leap3,2022.2.5,60.47032657580103,
,,,,,,,,,,,,,,,,,,,,0,0,0,0,27,0,27,0,,,,,,retreat,w,g,lower,,,,,,,4,nw,LoDemTar,g,1,0.7637607476208359,,,,,,,,,,,,,,,,,,,,338,2023-11-27_13h09.31.817,leap3,2022.2.5,60.47032657580103,
,,,,,,,,,,,,,,,,,,,,0,0,0,0,28,0,28,0,,,,,,explosion,w,g,lower,,,,,,,4,w,LoDemTar,g,1,2.355433299089782,,,,,,,,,,,,,,,,,,,,338,2023-11-27_13h09.31.817,leap3,2022.2.5,60.47032657580103,
,,,,,,,,,,,,,,,,,,,,0,0,0,0,29,0,29,0,,,,,,anemic,w,g,lower,,,,,,,4,w,LoDemTar,h,0,0.6133219320327044,,,,,,,,,,,,,,,,,,,,338,2023-11-27_13h09.31.817,leap3,2022.2.5,60.47032657580103,
,,,,,,,,,,,,,,,,,,,,0,0,0,0,,,,,,,,,,,,,,,,,,,,,,,,,,,1,,,,,,,,,,,,,,,,,,338,2023-11-27_13h09.31.817,leap3,2022.2.5,60.47032657580103,
,,,,,,,,,,,,,,,,,,,,1,0,1,0,0,0,0,0,,,,,,sefine,nw,h,upper,,,,,,,1,nw,HiDemTar,h,1,0.6673123581567779,,,,,,,,,,,,,,,,,,,,338,2023-11-27_13h09.31.817,leap3,2022.2.5,60.47032657580103,
,,,,,,,,,,,,,,,,,,,,1,0,1,0,1,0,1,0,,,,,,optional,w,g,upper,,,,,,,1,w,HiDemTar,g,1,0.5672337955329567,,,,,,,,,,,,,,,,,,,,338,2023-11-27_13h09.31.817,leap3,2022.2.5,60.47032657580103,
,,,,,,,,,,,,,,,,,,,,1,0,1,0,2,0,2,0,,,,,,slears,nw,h,upper,,,,,,,1,nw,HiDemTar,h,1,0.5834210905013606,,,,,,,,,,,,,,,,,,,,338,2023-11-27_13h09.31.817,leap3,2022.2.5,60.47032657580103,
,,,,,,,,,,,,,,,,,,,,1,0,1,0,3,0,3,0,,,,,,pregs,nw,h,upper,,,,,,,1,nw,HiDemTar,h,1,0.7034432588843629,,,,,,,,,,,,,,,,,,,,338,2023-11-27_13h09.31.817,leap3,2022.2.5,60.47032657580103,
,,,,,,,,,,,,,,,,,,,,1,0,1,0,4,0,4,0,,,,,,season,w,g,upper,,,,,,,1,w,HiDemTar,g,1,0.5946810834575444,,,,,,,,,,,,,,,,,,,,338,2023-11-27_13h09.31.817,leap3,2022.2.5,60.47032657580103,
,,,,,,,,,,,,,,,,,,,,1,0,1,0,5,0,5,0,,,,,,lasprey,nw,h,upper,,,,,,,1,nw,HiDemTar,h,1,0.6341773021267727,,,,,,,,,,,,,,,,,,,,338,2023-11-27_13h09.31.817,leap3,2022.2.5,60.47032657580103,
,,,,,,,,,,,,,,,,,,,,1,0,1,0,6,0,6,0,,,,,,correct,w,g,upper,,,,,,,1,w,HiDemTar,g,1,0.5036516337422654,,,,,,,,,,,,,,,,,,,,338,2023-11-27_13h09.31.817,leap3,2022.2.5,60.47032657580103,
,,,,,,,,,,,,,,,,,,,,1,0,1,0,7,0,7,0,,,,,,removable,w,g,upper,,,,,,,1,w,HiDemTar,g,1,0.5614606115268543,,,,,,,,,,,,,,,,,,,,338,2023-11-27_13h09.31.817,leap3,2022.2.5,60.47032657580103,
,,,,,,,,,,,,,,,,,,,,1,0,1,0,8,0,8,0,,,,,,boulder,w,g,upper,,,,,,,1,w,HiDemTar,h,0,0.6100827513728291,,,,,,,,,,,,,,,,,,,,338,2023-11-27_13h09.31.817,leap3,2022.2.5,60.47032657580103,
,,,,,,,,,,,,,,,,,,,,1,0,1,0,9,0,9,0,,,,,,cills,nw,h,upper,,,,,,,1,nw,HiDemTar,h,1,0.6088826257036999,,,,,,,,,,,,,,,,,,,,338,2023-11-27_13h09.31.817,leap3,2022.2.5,60.47032657580103,
,,,,,,,,,,,,,,,,,,,,1,0,1,0,10,0,10,0,,,,,,gackpedal,nw,h,upper,,,,,,,1,nw,HiDemTar,h,1,0.5276322967838496,,,,,,,,,,,,,,,,,,,,338,2023-11-27_13h09.31.817,leap3,2022.2.5,60.47032657580103,
,,,,,,,,,,,,,,,,,,,,1,0,1,0,11,0,11,0,,,,,,painter,w,g,upper,,,,,,,1,w,HiDemTar,h,0,0.45766149379778653,,,,,,,,,,,,,,,,,,,,338,2023-11-27_13h09.31.817,leap3,2022.2.5,60.47032657580103,
,,,,,,,,,,,,,,,,,,,,1,0,1,0,12,0,12,0,,,,,,puggers,nw,h,upper,,,,,,,1,nw,HiDemTar,h,1,0.6305511016398668,,,,,,,,,,,,,,,,,,,,338,2023-11-27_13h09.31.817,leap3,2022.2.5,60.47032657580103,
,,,,,,,,,,,,,,,,,,,,1,0,1,0,13,0,13,0,,,,,,turning,w,g,upper,,,,,,,1,w,HiDemTar,g,1,0.6524692038074136,,,,,,,,,,,,,,,,,,,,338,2023-11-27_13h09.31.817,leap3,2022.2.5,60.47032657580103,
,,,,,,,,,,,,,,,,,,,,1,0,1,0,14,0,14,0,,,,,,digar,nw,h,upper,,,,,,,1,nw,HiDemTar,h,1,0.6332734833704308,,,,,,,,,,,,,,,,,,,,338,2023-11-27_13h09.31.817,leap3,2022.2.5,60.47032657580103,
,,,,,,,,,,,,,,,,,,,,1,0,1,0,15,0,15,0,,,,,,fictional,w,g,upper,,,,,,,1,w,HiDemTar,g,1,0.6072968045482412,,,,,,,,,,,,,,,,,,,,338,2023-11-27_13h09.31.817,leap3,2022.2.5,60.47032657580103,
,,,,,,,,,,,,,,,,,,,,1,0,1,0,16,0,16,0,,,,,,scrib,nw,h,upper,,,,,,,1,nw,HiDemTar,h,1,0.9172043468570337,,,,,,,,,,,,,,,,,,,,338,2023-11-27_13h09.31.817,leap3,2022.2.5,60.47032657580103,
,,,,,,,,,,,,,,,,,,,,1,0,1,0,17,0,17,0,,,,,,orange,w,g,upper,,,,,,,1,w,HiDemTar,g,1,0.8391703546512872,,,,,,,,,,,,,,,,,,,,338,2023-11-27_13h09.31.817,leap3,2022.2.5,60.47032657580103,
,,,,,,,,,,,,,,,,,,,,1,0,1,0,18,0,18,0,,,,,,surface,w,g,upper,,,,,,,1,w,HiDemTar,g,1,0.6924941400066018,,,,,,,,,,,,,,,,,,,,338,2023-11-27_13h09.31.817,leap3,2022.2.5,60.47032657580103,
,,,,,,,,,,,,,,,,,,,,1,0,1,0,19,0,19,0,,,,,,sarlock,nw,h,upper,,,,,,,1,nw,HiDemTar,h,1,0.6000007025431842,,,,,,,,,,,,,,,,,,,,338,2023-11-27_13h09.31.817,leap3,2022.2.5,60.47032657580103,
,,,,,,,,,,,,,,,,,,,,1,0,1,0,20,0,20,0,,,,,,refebs,nw,h,upper,,,,,,,1,nw,HiDemTar,h,1,0.8793542039347813,,,,,,,,,,,,,,,,,,,,338,2023-11-27_13h09.31.817,leap3,2022.2.5,60.47032657580103,
,,,,,,,,,,,,,,,,,,,,1,0,1,0,21,0,21,0,,,,,,crocodile,target,q,upper,,,,,,,1,target,HiDemTar,q,1,0.8113959702895954,1,,,,,,,,,,,,,,,,,,,338,2023-11-27_13h09.31.817,leap3,2022.2.5,60.47032657580103,
,,,,,,,,,,,,,,,,,,,,1,0,1,0,22,0,22,0,,,,,,triplet,w,g,upper,,,,,,,1,aftertar1,HiDemTar,g,1,1.6422550583956763,,,,,,,,,,,,,,,,,,,,338,2023-11-27_13h09.31.817,leap3,2022.2.5,60.47032657580103,
,,,,,,,,,,,,,,,,,,,,1,0,1,0,23,0,23,0,,,,,,balign,nw,h,upper,,,,,,,1,aftertar2,HiDemTar,h,1,0.5436712729278952,,,,,,,,,,,,,,,,,,,,338,2023-11-27_13h09.31.817,leap3,2022.2.5,60.47032657580103,
,,,,,,,,,,,,,,,,,,,,1,0,1,0,24,0,24,0,,,,,,attract,w,g,upper,,,,,,,1,aftertar3,HiDemTar,g,1,0.5289380335016176,,,,,,,,,,,,,,,,,,,,338,2023-11-27_13h09.31.817,leap3,2022.2.5,60.47032657580103,
,,,,,,,,,,,,,,,,,,,,1,0,1,0,25,0,25,0,,,,,,dealer,w,g,upper,,,,,,,1,w,HiDemTar,g,1,0.9460878127720207,,,,,,,,,,,,,,,,,,,,338,2023-11-27_13h09.31.817,leap3,2022.2.5,60.47032657580103,
,,,,,,,,,,,,,,,,,,,,1,0,1,0,26,0,26,0,,,,,,brongs,nw,h,upper,,,,,,,1,w,HiDemTar,h,1,0.7394298135768622,,,,,,,,,,,,,,,,,,,,338,2023-11-27_13h09.31.817,leap3,2022.2.5,60.47032657580103,
,,,,,,,,,,,,,,,,,,,,1,0,1,0,27,0,27,0,,,,,,bengths,nw,h,upper,,,,,,,1,nw,HiDemTar,h,1,0.6527784223435447,,,,,,,,,,,,,,,,,,,,338,2023-11-27_13h09.31.817,leap3,2022.2.5,60.47032657580103,
,,,,,,,,,,,,,,,,,,,,1,0,1,0,28,0,28,0,,,,,,topefuls,nw,h,upper,,,,,,,1,nw,HiDemTar,h,1,0.6975068579195067,,,,,,,,,,,,,,,,,,,,338,2023-11-27_13h09.31.817,leap3,2022.2.5,60.47032657580103,
,,,,,,,,,,,,,,,,,,,,1,0,1,0,29,0,29,0,,,,,,probable,w,g,upper,,,,,,,1,nw,HiDemTar,g,1,0.5487710621673614,,,,,,,,,,,,,,,,,,,,338,2023-11-27_13h09.31.817,leap3,2022.2.5,60.47032657580103,
,,,,,,,,,,,,,,,,,,,,1,0,1,0,,,,,,,,,,,,,,,,,,,,,,,,,,,1,,,,,,,,,,,,,,,,,,338,2023-11-27_13h09.31.817,leap3,2022.2.5,60.47032657580103,
,,,,,,,,,,,,,,,,,,,,2,0,2,0,0,0,0,0,,,,,,pocket,w,g,upper,,,,,,,2,w,HiDemNoTar,g,1,0.757554525276646,,,,,,,,,,,,,,,,,,,,338,2023-11-27_13h09.31.817,leap3,2022.2.5,60.47032657580103,
,,,,,,,,,,,,,,,,,,,,2,0,2,0,1,0,1,0,,,,,,gelfry,nw,h,upper,,,,,,,2,nw,HiDemNoTar,h,1,0.5583528655115515,,,,,,,,,,,,,,,,,,,,338,2023-11-27_13h09.31.817,leap3,2022.2.5,60.47032657580103,
,,,,,,,,,,,,,,,,,,,,2,0,2,0,2,0,2,0,,,,,,educate,w,g,upper,,,,,,,2,w,HiDemNoTar,g,1,0.6951132280519232,,,,,,,,,,,,,,,,,,,,338,2023-11-27_13h09.31.817,leap3,2022.2.5,60.47032657580103,
,,,,,,,,,,,,,,,,,,,,2,0,2,0,3,0,3,0,,,,,,attended,w,g,upper,,,,,,,2,w,HiDemNoTar,g,1,0.8824579771608114,,,,,,,,,,,,,,,,,,,,338,2023-11-27_13h09.31.817,leap3,2022.2.5,60.47032657580103,
,,,,,,,,,,,,,,,,,,,,2,0,2,0,4,0,4,0,,,,,,clattest,nw,h,upper,,,,,,,2,nw,HiDemNoTar,h,1,0.654510245192796,,,,,,,,,,,,,,,,,,,,338,2023-11-27_13h09.31.817,leap3,2022.2.5,60.47032657580103,
,,,,,,,,,,,,,,,,,,,,2,0,2,0,5,0,5,0,,,,,,chrayed,nw,h,upper,,,,,,,2,nw,HiDemNoTar,h,1,0.619251711643301,,,,,,,,,,,,,,,,,,,,338,2023-11-27_13h09.31.817,leap3,2022.2.5,60.47032657580103,
,,,,,,,,,,,,,,,,,,,,2,0,2,0,6,0,6,0,,,,,,greft,nw,h,upper,,,,,,,2,nw,HiDemNoTar,h,1,0.48932858917396516,,,,,,,,,,,,,,,,,,,,338,2023-11-27_13h09.31.817,leap3,2022.2.5,60.47032657580103,
,,,,,,,,,,,,,,,,,,,,2,0,2,0,7,0,7,0,,,,,,ciping,nw,h,upper,,,,,,,2,nw,HiDemNoTar,h,1,0.5406899951631203,,,,,,,,,,,,,,,,,,,,338,2023-11-27_13h09.31.817,leap3,2022.2.5,60.47032657580103,
,,,,,,,,,,,,,,,,,,,,2,0,2,0,8,0,8,0,,,,,,dominion,w,g,upper,,,,,,,2,w,HiDemNoTar,g,1,0.9661906627006829,,,,,,,,,,,,,,,,,,,,338,2023-11-27_13h09.31.817,leap3,2022.2.5,60.47032657580103,
,,,,,,,,,,,,,,,,,,,,2,0,2,0,9,0,9,0,,,,,,mounting,w,g,upper,,,,,,,2,w,HiDemNoTar,g,1,0.6459650192409754,,,,,,,,,,,,,,,,,,,,338,2023-11-27_13h09.31.817,leap3,2022.2.5,60.47032657580103,
,,,,,,,,,,,,,,,,,,,,2,0,2,0,10,0,10,0,,,,,,arrested,w,g,upper,,,,,,,2,w,HiDemNoTar,g,1,0.4912461417261511,,,,,,,,,,,,,,,,,,,,338,2023-11-27_13h09.31.817,leap3,2022.2.5,60.47032657580103,
,,,,,,,,,,,,,,,,,,,,2,0,2,0,11,0,11,0,,,,,,gund,nw,h,upper,,,,,,,2,nw,HiDemNoTar,h,1,0.6226875472348183,,,,,,,,,,,,,,,,,,,,338,2023-11-27_13h09.31.817,leap3,2022.2.5,60.47032657580103,
,,,,,,,,,,,,,,,,,,,,2,0,2,0,12,0,12,0,,,,,,preserve,w,g,upper,,,,,,,2,w,HiDemNoTar,g,1,0.6846964682918042,,,,,,,,,,,,,,,,,,,,338,2023-11-27_13h09.31.817,leap3,2022.2.5,60.47032657580103,
,,,,,,,,,,,,,,,,,,,,2,0,2,0,13,0,13,0,,,,,,contusiok,nw,h,upper,,,,,,,2,nw,HiDemNoTar,h,1,0.6000437415204942,,,,,,,,,,,,,,,,,,,,338,2023-11-27_13h09.31.817,leap3,2022.2.5,60.47032657580103,
,,,,,,,,,,,,,,,,,,,,2,0,2,0,14,0,14,0,,,,,,swatches,w,g,upper,,,,,,,2,w,HiDemNoTar,g,1,0.5754138521151617,,,,,,,,,,,,,,,,,,,,338,2023-11-27_13h09.31.817,leap3,2022.2.5,60.47032657580103,
,,,,,,,,,,,,,,,,,,,,2,0,2,0,15,0,15,0,,,,,,tiery,nw,h,upper,,,,,,,2,nw,HiDemNoTar,h,1,0.719429926131852,,,,,,,,,,,,,,,,,,,,338,2023-11-27_13h09.31.817,leap3,2022.2.5,60.47032657580103,
,,,,,,,,,,,,,,,,,,,,2,0,2,0,16,0,16,0,,,,,,amidst,w,g,upper,,,,,,,2,w,HiDemNoTar,g,1,1.0976247848011553,,,,,,,,,,,,,,,,,,,,338,2023-11-27_13h09.31.817,leap3,2022.2.5,60.47032657580103,
,,,,,,,,,,,,,,,,,,,,2,0,2,0,17,0,17,0,,,,,,pammed,nw,h,upper,,,,,,,2,nw,HiDemNoTar,h,1,0.692988095106557,,,,,,,,,,,,,,,,,,,,338,2023-11-27_13h09.31.817,leap3,2022.2.5,60.47032657580103,
,,,,,,,,,,,,,,,,,,,,2,0,2,0,18,0,18,0,,,,,,resent,w,g,upper,,,,,,,2,w,HiDemNoTar,g,1,0.6243488522013649,,,,,,,,,,,,,,,,,,,,338,2023-11-27_13h09.31.817,leap3,2022.2.5,60.47032657580103,
,,,,,,,,,,,,,,,,,,,,2,0,2,0,19,0,19,0,,,,,,trallion,nw,h,upper,,,,,,,2,nw,HiDemNoTar,h,1,0.973409625585191,,,,,,,,,,,,,,,,,,,,338,2023-11-27_13h09.31.817,leap3,2022.2.5,60.47032657580103,
,,,,,,,,,,,,,,,,,,,,2,0,2,0,20,0,20,0,,,,,,restock,w,g,upper,,,,,,,2,w,HiDemNoTar,g,1,0.7334738795179874,,,,,,,,,,,,,,,,,,,,338,2023-11-27_13h09.31.817,leap3,2022.2.5,60.47032657580103,
,,,,,,,,,,,,,,,,,,,,2,0,2,0,21,0,21,0,,,,,,kettle,w,g,upper,,,,,,,2,w,HiDemNoTar,g,1,0.735111016430892,,,,,,,,,,,,,,,,,,,,338,2023-11-27_13h09.31.817,leap3,2022.2.5,60.47032657580103,
,,,,,,,,,,,,,,,,,,,,2,0,2,0,22,0,22,0,,,,,,churnad,nw,h,upper,,,,,,,2,nw,HiDemNoTar,h,1,0.648858894710429,,,,,,,,,,,,,,,,,,,,338,2023-11-27_13h09.31.817,leap3,2022.2.5,60.47032657580103,
,,,,,,,,,,,,,,,,,,,,2,0,2,0,23,0,23,0,,,,,,elbalm,nw,h,upper,,,,,,,2,nw,HiDemNoTar,h,1,0.6463480662787333,,,,,,,,,,,,,,,,,,,,338,2023-11-27_13h09.31.817,leap3,2022.2.5,60.47032657580103,
,,,,,,,,,,,,,,,,,,,,2,0,2,0,24,0,24,0,,,,,,racile,nw,h,upper,,,,,,,2,nw,HiDemNoTar,h,1,0.6598278778837994,,,,,,,,,,,,,,,,,,,,338,2023-11-27_13h09.31.817,leap3,2022.2.5,60.47032657580103,
,,,,,,,,,,,,,,,,,,,,2,0,2,0,25,0,25,0,,,,,,neuran,nw,h,upper,,,,,,,2,nw,HiDemNoTar,h,1,0.568561713793315,,,,,,,,,,,,,,,,,,,,338,2023-11-27_13h09.31.817,leap3,2022.2.5,60.47032657580103,
,,,,,,,,,,,,,,,,,,,,2,0,2,0,26,0,26,0,,,,,,confined,w,g,upper,,,,,,,2,w,HiDemNoTar,h,0,0.7285962377209216,,,,,,,,,,,,,,,,,,,,338,2023-11-27_13h09.31.817,leap3,2022.2.5,60.47032657580103,
,,,,,,,,,,,,,,,,,,,,2,0,2,0,27,0,27,0,,,,,,cavern,w,g,upper,,,,,,,2,w,HiDemNoTar,g,1,0.6906461119651794,,,,,,,,,,,,,,,,,,,,338,2023-11-27_13h09.31.817,leap3,2022.2.5,60.47032657580103,
,,,,,,,,,,,,,,,,,,,,2,0,2,0,28,0,28,0,,,,,,foster,w,g,upper,,,,,,,2,w,HiDemNoTar,g,1,0.6211460892809555,,,,,,,,,,,,,,,,,,,,338,2023-11-27_13h09.31.817,leap3,2022.2.5,60.47032657580103,
,,,,,,,,,,,,,,,,,,,,2,0,2,0,29,0,29,0,,,,,,batire,nw,h,upper,,,,,,,2,nw,HiDemNoTar,h,1,0.683233804651536,,,,,,,,,,,,,,,,,,,,338,2023-11-27_13h09.31.817,leap3,2022.2.5,60.47032657580103,
,,,,,,,,,,,,,,,,,,,,2,0,2,0,,,,,,,,,,,,,,,,,,,,,,,,,,,NA,,,,,,,,,,,,,,,,,,338,2023-11-27_13h09.31.817,leap3,2022.2.5,60.47032657580103,
,,,,,,,,,,,,,,,,,,,,3,0,3,0,0,0,0,0,,,,,,equitable,w,g,lower,,,,,,,3,w,LoDemNoTar,g,1,1.4396480212453753,,,,,,,,,,,,,,,,,,,,338,2023-11-27_13h09.31.817,leap3,2022.2.5,60.47032657580103,
,,,,,,,,,,,,,,,,,,,,3,0,3,0,1,0,1,0,,,,,,rearrange,w,g,lower,,,,,,,3,w,LoDemNoTar,g,1,0.5890436379704624,,,,,,,,,,,,,,,,,,,,338,2023-11-27_13h09.31.817,leap3,2022.2.5,60.47032657580103,
,,,,,,,,,,,,,,,,,,,,3,0,3,0,2,0,2,0,,,,,,oleandur,nw,h,lower,,,,,,,3,nw,LoDemNoTar,h,1,0.6194791560992599,,,,,,,,,,,,,,,,,,,,338,2023-11-27_13h09.31.817,leap3,2022.2.5,60.47032657580103,
,,,,,,,,,,,,,,,,,,,,3,0,3,0,3,0,3,0,,,,,,smolvers,nw,h,lower,,,,,,,3,nw,LoDemNoTar,h,1,0.5774913110071793,,,,,,,,,,,,,,,,,,,,338,2023-11-27_13h09.31.817,leap3,2022.2.5,60.47032657580103,
,,,,,,,,,,,,,,,,,,,,3,0,3,0,4,0,4,0,,,,,,owner,w,g,lower,,,,,,,3,w,LoDemNoTar,g,1,0.6175314761931077,,,,,,,,,,,,,,,,,,,,338,2023-11-27_13h09.31.817,leap3,2022.2.5,60.47032657580103,
,,,,,,,,,,,,,,,,,,,,3,0,3,0,5,0,5,0,,,,,,paranoid,w,g,lower,,,,,,,3,w,LoDemNoTar,g,1,0.5677459595026448,,,,,,,,,,,,,,,,,,,,338,2023-11-27_13h09.31.817,leap3,2022.2.5,60.47032657580103,
,,,,,,,,,,,,,,,,,,,,3,0,3,0,6,0,6,0,,,,,,ounside,nw,h,lower,,,,,,,3,nw,LoDemNoTar,h,1,1.1116813188418746,,,,,,,,,,,,,,,,,,,,338,2023-11-27_13h09.31.817,leap3,2022.2.5,60.47032657580103,
,,,,,,,,,,,,,,,,,,,,3,0,3,0,7,0,7,0,,,,,,splinging,nw,h,lower,,,,,,,3,nw,LoDemNoTar,h,1,0.7943806713446975,,,,,,,,,,,,,,,,,,,,338,2023-11-27_13h09.31.817,leap3,2022.2.5,60.47032657580103,
,,,,,,,,,,,,,,,,,,,,3,0,3,0,8,0,8,0,,,,,,divider,w,g,lower,,,,,,,3,w,LoDemNoTar,g,1,0.8899219313170761,,,,,,,,,,,,,,,,,,,,338,2023-11-27_13h09.31.817,leap3,2022.2.5,60.47032657580103,
,,,,,,,,,,,,,,,,,,,,3,0,3,0,9,0,9,0,,,,,,expensive,w,g,lower,,,,,,,3,w,LoDemNoTar,g,1,0.621275537298061,,,,,,,,,,,,,,,,,,,,338,2023-11-27_13h09.31.817,leap3,2022.2.5,60.47032657580103,
,,,,,,,,,,,,,,,,,,,,3,0,3,0,10,0,10,0,,,,,,elpousal,nw,h,lower,,,,,,,3,nw,LoDemNoTar,h,1,0.8994107041507959,,,,,,,,,,,,,,,,,,,,338,2023-11-27_13h09.31.817,leap3,2022.2.5,60.47032657580103,
,,,,,,,,,,,,,,,,,,,,3,0,3,0,11,0,11,0,,,,,,regards,w,g,lower,,,,,,,3,w,LoDemNoTar,g,1,0.7091985651059076,,,,,,,,,,,,,,,,,,,,338,2023-11-27_13h09.31.817,leap3,2022.2.5,60.47032657580103,
,,,,,,,,,,,,,,,,,,,,3,0,3,0,12,0,12,0,,,,,,rantho,nw,h,lower,,,,,,,3,nw,LoDemNoTar,h,1,0.7524481146829203,,,,,,,,,,,,,,,,,,,,338,2023-11-27_13h09.31.817,leap3,2022.2.5,60.47032657580103,
,,,,,,,,,,,,,,,,,,,,3,0,3,0,13,0,13,0,,,,,,rewrite,w,g,lower,,,,,,,3,w,LoDemNoTar,g,1,0.7212865618057549,,,,,,,,,,,,,,,,,,,,338,2023-11-27_13h09.31.817,leap3,2022.2.5,60.47032657580103,
,,,,,,,,,,,,,,,,,,,,3,0,3,0,14,0,14,0,,,,,,define,w,g,lower,,,,,,,3,w,LoDemNoTar,g,1,0.5872055420186371,,,,,,,,,,,,,,,,,,,,338,2023-11-27_13h09.31.817,leap3,2022.2.5,60.47032657580103,
,,,,,,,,,,,,,,,,,,,,3,0,3,0,15,0,15,0,,,,,,twenties,w,g,lower,,,,,,,3,w,LoDemNoTar,g,1,1.0989911071956158,,,,,,,,,,,,,,,,,,,,338,2023-11-27_13h09.31.817,leap3,2022.2.5,60.47032657580103,
,,,,,,,,,,,,,,,,,,,,3,0,3,0,16,0,16,0,,,,,,nogwhell,nw,h,lower,,,,,,,3,nw,LoDemNoTar,h,1,0.6940365910995752,,,,,,,,,,,,,,,,,,,,338,2023-11-27_13h09.31.817,leap3,2022.2.5,60.47032657580103,
,,,,,,,,,,,,,,,,,,,,3,0,3,0,17,0,17,0,,,,,,dumult,nw,h,lower,,,,,,,3,nw,LoDemNoTar,h,1,0.8093327473616228,,,,,,,,,,,,,,,,,,,,338,2023-11-27_13h09.31.817,leap3,2022.2.5,60.47032657580103,
,,,,,,,,,,,,,,,,,,,,3,0,3,0,18,0,18,0,,,,,,larger,w,g,lower,,,,,,,3,w,LoDemNoTar,g,1,0.6320531625533476,,,,,,,,,,,,,,,,,,,,338,2023-11-27_13h09.31.817,leap3,2022.2.5,60.47032657580103,
,,,,,,,,,,,,,,,,,,,,3,0,3,0,19,0,19,0,,,,,,hindsight,w,g,lower,,,,,,,3,w,LoDemNoTar,g,1,0.8381506616715342,,,,,,,,,,,,,,,,,,,,338,2023-11-27_13h09.31.817,leap3,2022.2.5,60.47032657580103,
,,,,,,,,,,,,,,,,,,,,3,0,3,0,20,0,20,0,,,,,,fudden,nw,h,lower,,,,,,,3,nw,LoDemNoTar,h,1,0.7227197602624074,,,,,,,,,,,,,,,,,,,,338,2023-11-27_13h09.31.817,leap3,2022.2.5,60.47032657580103,
,,,,,,,,,,,,,,,,,,,,3,0,3,0,21,0,21,0,,,,,,chemical,w,g,lower,,,,,,,3,w,LoDemNoTar,g,1,0.5807006952818483,,,,,,,,,,,,,,,,,,,,338,2023-11-27_13h09.31.817,leap3,2022.2.5,60.47032657580103,
,,,,,,,,,,,,,,,,,,,,3,0,3,0,22,0,22,0,,,,,,duplex,w,g,lower,,,,,,,3,w,LoDemNoTar,h,0,1.6208630250766873,,,,,,,,,,,,,,,,,,,,338,2023-11-27_13h09.31.817,leap3,2022.2.5,60.47032657580103,
,,,,,,,,,,,,,,,,,,,,3,0,3,0,23,0,23,0,,,,,,chrik,nw,h,lower,,,,,,,3,nw,LoDemNoTar,h,1,0.5468882718123496,,,,,,,,,,,,,,,,,,,,338,2023-11-27_13h09.31.817,leap3,2022.2.5,60.47032657580103,
,,,,,,,,,,,,,,,,,,,,3,0,3,0,24,0,24,0,,,,,,lightels,nw,h,lower,,,,,,,3,nw,LoDemNoTar,h,1,0.6283332695020363,,,,,,,,,,,,,,,,,,,,338,2023-11-27_13h09.31.817,leap3,2022.2.5,60.47032657580103,
,,,,,,,,,,,,,,,,,,,,3,0,3,0,25,0,25,0,,,,,,theles,nw,h,lower,,,,,,,3,nw,LoDemNoTar,h,1,0.6264322703937069,,,,,,,,,,,,,,,,,,,,338,2023-11-27_13h09.31.817,leap3,2022.2.5,60.47032657580103,
,,,,,,,,,,,,,,,,,,,,3,0,3,0,26,0,26,0,,,,,,appain,nw,h,lower,,,,,,,3,nw,LoDemNoTar,h,1,0.5364797887159511,,,,,,,,,,,,,,,,,,,,338,2023-11-27_13h09.31.817,leap3,2022.2.5,60.47032657580103,
,,,,,,,,,,,,,,,,,,,,3,0,3,0,27,0,27,0,,,,,,ragtam,nw,h,lower,,,,,,,3,nw,LoDemNoTar,h,1,0.6418653898872435,,,,,,,,,,,,,,,,,,,,338,2023-11-27_13h09.31.817,leap3,2022.2.5,60.47032657580103,
,,,,,,,,,,,,,,,,,,,,3,0,3,0,28,0,28,0,,,,,,elalt,nw,h,lower,,,,,,,3,nw,LoDemNoTar,h,1,0.9823378985747695,,,,,,,,,,,,,,,,,,,,338,2023-11-27_13h09.31.817,leap3,2022.2.5,60.47032657580103,
,,,,,,,,,,,,,,,,,,,,3,0,3,0,29,0,29,0,,,,,,enabled,w,g,lower,,,,,,,3,w,LoDemNoTar,g,1,1.8383877071319148,,,,,,,,,,,,,,,,,,,,338,2023-11-27_13h09.31.817,leap3,2022.2.5,60.47032657580103,
,,,,,,,,,,,,,,,,,,,,3,0,3,0,,,,,,,,,,,,,,,,,,,,,,,,,,,NA,,,,,,,,,,,,,,,,,,338,2023-11-27_13h09.31.817,leap3,2022.2.5,60.47032657580103,
,,,,,,,,,,,,,,,,,,,,4,0,4,0,0,0,0,0,,,,,,prama,nw,h,lower,,,,,,,3,nw,LoDemNoTar,h,1,0.7241132303606719,,,,,,,,,,,,,,,,,,,,338,2023-11-27_13h09.31.817,leap3,2022.2.5,60.47032657580103,
,,,,,,,,,,,,,,,,,,,,4,0,4,0,1,0,1,0,,,,,,mosary,nw,h,lower,,,,,,,3,nw,LoDemNoTar,h,1,0.582156075281091,,,,,,,,,,,,,,,,,,,,338,2023-11-27_13h09.31.817,leap3,2022.2.5,60.47032657580103,
,,,,,,,,,,,,,,,,,,,,4,0,4,0,2,0,2,0,,,,,,maunches,nw,h,lower,,,,,,,3,nw,LoDemNoTar,h,1,0.5262408130802214,,,,,,,,,,,,,,,,,,,,338,2023-11-27_13h09.31.817,leap3,2022.2.5,60.47032657580103,
,,,,,,,,,,,,,,,,,,,,4,0,4,0,3,0,3,0,,,,,,unstatle,nw,h,lower,,,,,,,3,nw,LoDemNoTar,h,1,0.7673366256058216,,,,,,,,,,,,,,,,,,,,338,2023-11-27_13h09.31.817,leap3,2022.2.5,60.47032657580103,
,,,,,,,,,,,,,,,,,,,,4,0,4,0,4,0,4,0,,,,,,doxing,nw,h,lower,,,,,,,3,nw,LoDemNoTar,h,1,0.5272962615126744,,,,,,,,,,,,,,,,,,,,338,2023-11-27_13h09.31.817,leap3,2022.2.5,60.47032657580103,
,,,,,,,,,,,,,,,,,,,,4,0,4,0,5,0,5,0,,,,,,enunciate,w,g,lower,,,,,,,3,w,LoDemNoTar,h,0,0.6333817429840565,,,,,,,,,,,,,,,,,,,,338,2023-11-27_13h09.31.817,leap3,2022.2.5,60.47032657580103,
,,,,,,,,,,,,,,,,,,,,4,0,4,0,6,0,6,0,,,,,,describe,w,g,lower,,,,,,,3,w,LoDemNoTar,g,1,0.5034026697976515,,,,,,,,,,,,,,,,,,,,338,2023-11-27_13h09.31.817,leap3,2022.2.5,60.47032657580103,
,,,,,,,,,,,,,,,,,,,,4,0,4,0,7,0,7,0,,,,,,nopping,nw,h,lower,,,,,,,3,nw,LoDemNoTar,h,1,0.6741502603981644,,,,,,,,,,,,,,,,,,,,338,2023-11-27_13h09.31.817,leap3,2022.2.5,60.47032657580103,
,,,,,,,,,,,,,,,,,,,,4,0,4,0,8,0,8,0,,,,,,ireology,nw,h,lower,,,,,,,3,nw,LoDemNoTar,h,1,0.5496735565830022,,,,,,,,,,,,,,,,,,,,338,2023-11-27_13h09.31.817,leap3,2022.2.5,60.47032657580103,
,,,,,,,,,,,,,,,,,,,,4,0,4,0,9,0,9,0,,,,,,amaze,w,g,lower,,,,,,,3,w,LoDemNoTar,g,1,0.4555949600180611,,,,,,,,,,,,,,,,,,,,338,2023-11-27_13h09.31.817,leap3,2022.2.5,60.47032657580103,
,,,,,,,,,,,,,,,,,,,,4,0,4,0,10,0,10,0,,,,,,function,w,g,lower,,,,,,,3,w,LoDemNoTar,g,1,0.4443250350886956,,,,,,,,,,,,,,,,,,,,338,2023-11-27_13h09.31.817,leap3,2022.2.5,60.47032657580103,
,,,,,,,,,,,,,,,,,,,,4,0,4,0,11,0,11,0,,,,,,omission,w,g,lower,,,,,,,3,w,LoDemNoTar,g,1,0.5697730958927423,,,,,,,,,,,,,,,,,,,,338,2023-11-27_13h09.31.817,leap3,2022.2.5,60.47032657580103,
,,,,,,,,,,,,,,,,,,,,4,0,4,0,12,0,12,0,,,,,,vented,w,g,lower,,,,,,,3,w,LoDemNoTar,g,1,0.5378087003482506,,,,,,,,,,,,,,,,,,,,338,2023-11-27_13h09.31.817,leap3,2022.2.5,60.47032657580103,
,,,,,,,,,,,,,,,,,,,,4,0,4,0,13,0,13,0,,,,,,athcan,nw,h,lower,,,,,,,3,nw,LoDemNoTar,h,1,0.6822591370437294,,,,,,,,,,,,,,,,,,,,338,2023-11-27_13h09.31.817,leap3,2022.2.5,60.47032657580103,
,,,,,,,,,,,,,,,,,,,,4,0,4,0,14,0,14,0,,,,,,baults,nw,h,lower,,,,,,,3,nw,LoDemNoTar,h,1,0.7263813851168379,,,,,,,,,,,,,,,,,,,,338,2023-11-27_13h09.31.817,leap3,2022.2.5,60.47032657580103,
,,,,,,,,,,,,,,,,,,,,4,0,4,0,15,0,15,0,,,,,,zears,nw,h,lower,,,,,,,3,nw,LoDemNoTar,h,1,0.8724398247431964,,,,,,,,,,,,,,,,,,,,338,2023-11-27_13h09.31.817,leap3,2022.2.5,60.47032657580103,
,,,,,,,,,,,,,,,,,,,,4,0,4,0,16,0,16,0,,,,,,paying,w,g,lower,,,,,,,3,w,LoDemNoTar,g,1,0.6684803701937199,,,,,,,,,,,,,,,,,,,,338,2023-11-27_13h09.31.817,leap3,2022.2.5,60.47032657580103,
,,,,,,,,,,,,,,,,,,,,4,0,4,0,17,0,17,0,,,,,,vivid,w,g,lower,,,,,,,3,w,LoDemNoTar,g,1,0.5525594863574952,,,,,,,,,,,,,,,,,,,,338,2023-11-27_13h09.31.817,leap3,2022.2.5,60.47032657580103,
,,,,,,,,,,,,,,,,,,,,4,0,4,0,18,0,18,0,,,,,,army,w,g,lower,,,,,,,3,w,LoDemNoTar,g,1,0.46528998913709074,,,,,,,,,,,,,,,,,,,,338,2023-11-27_13h09.31.817,leap3,2022.2.5,60.47032657580103,
,,,,,,,,,,,,,,,,,,,,4,0,4,0,19,0,19,0,,,,,,reason,w,g,lower,,,,,,,3,w,LoDemNoTar,g,1,0.4380469707539305,,,,,,,,,,,,,,,,,,,,338,2023-11-27_13h09.31.817,leap3,2022.2.5,60.47032657580103,
,,,,,,,,,,,,,,,,,,,,4,0,4,0,20,0,20,0,,,,,,upstairs,w,g,lower,,,,,,,3,w,LoDemNoTar,g,1,0.5234449341660365,,,,,,,,,,,,,,,,,,,,338,2023-11-27_13h09.31.817,leap3,2022.2.5,60.47032657580103,
,,,,,,,,,,,,,,,,,,,,4,0,4,0,21,0,21,0,,,,,,portify,nw,h,lower,,,,,,,3,nw,LoDemNoTar,h,1,1.0126254287315533,,,,,,,,,,,,,,,,,,,,338,2023-11-27_13h09.31.817,leap3,2022.2.5,60.47032657580103,
,,,,,,,,,,,,,,,,,,,,4,0,4,0,22,0,22,0,,,,,,sprea,nw,h,lower,,,,,,,3,nw,LoDemNoTar,h,1,0.7153206957736984,,,,,,,,,,,,,,,,,,,,338,2023-11-27_13h09.31.817,leap3,2022.2.5,60.47032657580103,
,,,,,,,,,,,,,,,,,,,,4,0,4,0,23,0,23,0,,,,,,mustled,nw,h,lower,,,,,,,3,nw,LoDemNoTar,h,1,0.5900408182060346,,,,,,,,,,,,,,,,,,,,338,2023-11-27_13h09.31.817,leap3,2022.2.5,60.47032657580103,
,,,,,,,,,,,,,,,,,,,,4,0,4,0,24,0,24,0,,,,,,grummer,nw,h,lower,,,,,,,3,nw,LoDemNoTar,h,1,0.6534879035316408,,,,,,,,,,,,,,,,,,,,338,2023-11-27_13h09.31.817,leap3,2022.2.5,60.47032657580103,
,,,,,,,,,,,,,,,,,,,,4,0,4,0,25,0,25,0,,,,,,landing,w,g,lower,,,,,,,3,w,LoDemNoTar,g,1,0.6421590483514592,,,,,,,,,,,,,,,,,,,,338,2023-11-27_13h09.31.817,leap3,2022.2.5,60.47032657580103,
,,,,,,,,,,,,,,,,,,,,4,0,4,0,26,0,26,0,,,,,,rapport,w,g,lower,,,,,,,3,w,LoDemNoTar,h,0,0.815582339768298,,,,,,,,,,,,,,,,,,,,338,2023-11-27_13h09.31.817,leap3,2022.2.5,60.47032657580103,
,,,,,,,,,,,,,,,,,,,,4,0,4,0,27,0,27,0,,,,,,oalis,nw,h,lower,,,,,,,3,nw,LoDemNoTar,h,1,0.6463275400456041,,,,,,,,,,,,,,,,,,,,338,2023-11-27_13h09.31.817,leap3,2022.2.5,60.47032657580103,
,,,,,,,,,,,,,,,,,,,,4,0,4,0,28,0,28,0,,,,,,baseline,w,g,lower,,,,,,,3,w,LoDemNoTar,g,1,0.7158136577345431,,,,,,,,,,,,,,,,,,,,338,2023-11-27_13h09.31.817,leap3,2022.2.5,60.47032657580103,
,,,,,,,,,,,,,,,,,,,,4,0,4,0,29,0,29,0,,,,,,obtuse,w,g,lower,,,,,,,3,w,LoDemNoTar,g,1,0.8704659903887659,,,,,,,,,,,,,,,,,,,,338,2023-11-27_13h09.31.817,leap3,2022.2.5,60.47032657580103,
,,,,,,,,,,,,,,,,,,,,4,0,4,0,,,,,,,,,,,,,,,,,,,,,,,,,,,NA,,,,,,,,,,,,,,,,,,338,2023-11-27_13h09.31.817,leap3,2022.2.5,60.47032657580103,
,,,,,,,,,,,,,,,,,,,,5,0,5,0,0,0,0,0,,,,,,fabstand,nw,h,lower,,,,,,,3,nw,LoDemNoTar,h,1,0.6575388656929135,,,,,,,,,,,,,,,,,,,,338,2023-11-27_13h09.31.817,leap3,2022.2.5,60.47032657580103,
,,,,,,,,,,,,,,,,,,,,5,0,5,0,1,0,1,0,,,,,,bamboo,w,g,lower,,,,,,,3,w,LoDemNoTar,g,1,0.5505816793302074,,,,,,,,,,,,,,,,,,,,338,2023-11-27_13h09.31.817,leap3,2022.2.5,60.47032657580103,
,,,,,,,,,,,,,,,,,,,,5,0,5,0,2,0,2,0,,,,,,minister,w,g,lower,,,,,,,3,w,LoDemNoTar,h,0,0.622263447730802,,,,,,,,,,,,,,,,,,,,338,2023-11-27_13h09.31.817,leap3,2022.2.5,60.47032657580103,
,,,,,,,,,,,,,,,,,,,,5,0,5,0,3,0,3,0,,,,,,uncounted,w,g,lower,,,,,,,3,w,LoDemNoTar,g,1,0.6371377224568278,,,,,,,,,,,,,,,,,,,,338,2023-11-27_13h09.31.817,leap3,2022.2.5,60.47032657580103,
,,,,,,,,,,,,,,,,,,,,5,0,5,0,4,0,4,0,,,,,,kiner,nw,h,lower,,,,,,,3,nw,LoDemNoTar,h,1,0.5867033100221306,,,,,,,,,,,,,,,,,,,,338,2023-11-27_13h09.31.817,leap3,2022.2.5,60.47032657580103,
,,,,,,,,,,,,,,,,,,,,5,0,5,0,5,0,5,0,,,,,,gelented,nw,h,lower,,,,,,,3,nw,LoDemNoTar,h,1,0.5780829314608127,,,,,,,,,,,,,,,,,,,,338,2023-11-27_13h09.31.817,leap3,2022.2.5,60.47032657580103,
,,,,,,,,,,,,,,,,,,,,5,0,5,0,6,0,6,0,,,,,,demon,w,g,lower,,,,,,,3,w,LoDemNoTar,g,1,0.5772238071076572,,,,,,,,,,,,,,,,,,,,338,2023-11-27_13h09.31.817,leap3,2022.2.5,60.47032657580103,
,,,,,,,,,,,,,,,,,,,,5,0,5,0,7,0,7,0,,,,,,rillains,nw,h,lower,,,,,,,3,nw,LoDemNoTar,h,1,0.5931439293781295,,,,,,,,,,,,,,,,,,,,338,2023-11-27_13h09.31.817,leap3,2022.2.5,60.47032657580103,
,,,,,,,,,,,,,,,,,,,,5,0,5,0,8,0,8,0,,,,,,pripend,nw,h,lower,,,,,,,3,nw,LoDemNoTar,h,1,0.6246468145400286,,,,,,,,,,,,,,,,,,,,338,2023-11-27_13h09.31.817,leap3,2022.2.5,60.47032657580103,
,,,,,,,,,,,,,,,,,,,,5,0,5,0,9,0,9,0,,,,,,located,w,g,lower,,,,,,,3,w,LoDemNoTar,g,1,0.622711384203285,,,,,,,,,,,,,,,,,,,,338,2023-11-27_13h09.31.817,leap3,2022.2.5,60.47032657580103,
,,,,,,,,,,,,,,,,,,,,5,0,5,0,10,0,10,0,,,,,,nores,nw,h,lower,,,,,,,3,nw,LoDemNoTar,h,1,0.8608318781480193,,,,,,,,,,,,,,,,,,,,338,2023-11-27_13h09.31.817,leap3,2022.2.5,60.47032657580103,
,,,,,,,,,,,,,,,,,,,,5,0,5,0,11,0,11,0,,,,,,maximized,w,g,lower,,,,,,,3,w,LoDemNoTar,g,1,0.6575719726970419,,,,,,,,,,,,,,,,,,,,338,2023-11-27_13h09.31.817,leap3,2022.2.5,60.47032657580103,
,,,,,,,,,,,,,,,,,,,,5,0,5,0,12,0,12,0,,,,,,beggarlan,nw,h,lower,,,,,,,3,nw,LoDemNoTar,h,1,0.9262908707605675,,,,,,,,,,,,,,,,,,,,338,2023-11-27_13h09.31.817,leap3,2022.2.5,60.47032657580103,
,,,,,,,,,,,,,,,,,,,,5,0,5,0,13,0,13,0,,,,,,bropic,nw,h,lower,,,,,,,3,nw,LoDemNoTar,h,1,0.7123781531117857,,,,,,,,,,,,,,,,,,,,338,2023-11-27_13h09.31.817,leap3,2022.2.5,60.47032657580103,
,,,,,,,,,,,,,,,,,,,,5,0,5,0,14,0,14,0,,,,,,endgume,nw,h,lower,,,,,,,3,nw,LoDemNoTar,h,1,0.6351407134206966,,,,,,,,,,,,,,,,,,,,338,2023-11-27_13h09.31.817,leap3,2022.2.5,60.47032657580103,
,,,,,,,,,,,,,,,,,,,,5,0,5,0,15,0,15,0,,,,,,hackal,nw,h,lower,,,,,,,3,nw,LoDemNoTar,h,1,0.7595886142225936,,,,,,,,,,,,,,,,,,,,338,2023-11-27_13h09.31.817,leap3,2022.2.5,60.47032657580103,
,,,,,,,,,,,,,,,,,,,,5,0,5,0,16,0,16,0,,,,,,admire,w,g,lower,,,,,,,3,w,LoDemNoTar,g,1,0.6163667750079185,,,,,,,,,,,,,,,,,,,,338,2023-11-27_13h09.31.817,leap3,2022.2.5,60.47032657580103,
,,,,,,,,,,,,,,,,,,,,5,0,5,0,17,0,17,0,,,,,,brials,nw,h,lower,,,,,,,3,nw,LoDemNoTar,g,0,0.9830553253414109,,,,,,,,,,,,,,,,,,,,338,2023-11-27_13h09.31.817,leap3,2022.2.5,60.47032657580103,
,,,,,,,,,,,,,,,,,,,,5,0,5,0,18,0,18,0,,,,,,entitle,w,g,lower,,,,,,,3,w,LoDemNoTar,g,1,0.5110659274505451,,,,,,,,,,,,,,,,,,,,338,2023-11-27_13h09.31.817,leap3,2022.2.5,60.47032657580103,
,,,,,,,,,,,,,,,,,,,,5,0,5,0,19,0,19,0,,,,,,noblin,nw,h,lower,,,,,,,3,nw,LoDemNoTar,h,1,0.8898242659633979,,,,,,,,,,,,,,,,,,,,338,2023-11-27_13h09.31.817,leap3,2022.2.5,60.47032657580103,
,,,,,,,,,,,,,,,,,,,,5,0,5,0,20,0,20,0,,,,,,priant,nw,h,lower,,,,,,,3,nw,LoDemNoTar,h,1,0.6612127401167527,,,,,,,,,,,,,,,,,,,,338,2023-11-27_13h09.31.817,leap3,2022.2.5,60.47032657580103,
,,,,,,,,,,,,,,,,,,,,5,0,5,0,21,0,21,0,,,,,,visible,w,g,lower,,,,,,,3,w,LoDemNoTar,g,1,0.7859542992664501,,,,,,,,,,,,,,,,,,,,338,2023-11-27_13h09.31.817,leap3,2022.2.5,60.47032657580103,
,,,,,,,,,,,,,,,,,,,,5,0,5,0,22,0,22,0,,,,,,deserve,w,g,lower,,,,,,,3,w,LoDemNoTar,g,1,0.6653279296588153,,,,,,,,,,,,,,,,,,,,338,2023-11-27_13h09.31.817,leap3,2022.2.5,60.47032657580103,
,,,,,,,,,,,,,,,,,,,,5,0,5,0,23,0,23,0,,,,,,forfeit,w,g,lower,,,,,,,3,w,LoDemNoTar,g,1,0.5100790103897452,,,,,,,,,,,,,,,,,,,,338,2023-11-27_13h09.31.817,leap3,2022.2.5,60.47032657580103,
,,,,,,,,,,,,,,,,,,,,5,0,5,0,24,0,24,0,,,,,,shimble,nw,h,lower,,,,,,,3,nw,LoDemNoTar,h,1,0.6398120991652831,,,,,,,,,,,,,,,,,,,,338,2023-11-27_13h09.31.817,leap3,2022.2.5,60.47032657580103,
,,,,,,,,,,,,,,,,,,,,5,0,5,0,25,0,25,0,,,,,,edasion,nw,h,lower,,,,,,,3,nw,LoDemNoTar,h,1,1.1332779527874663,,,,,,,,,,,,,,,,,,,,338,2023-11-27_13h09.31.817,leap3,2022.2.5,60.47032657580103,
,,,,,,,,,,,,,,,,,,,,5,0,5,0,26,0,26,0,,,,,,result,w,g,lower,,,,,,,3,w,LoDemNoTar,g,1,0.7193127275677398,,,,,,,,,,,,,,,,,,,,338,2023-11-27_13h09.31.817,leap3,2022.2.5,60.47032657580103,
,,,,,,,,,,,,,,,,,,,,5,0,5,0,27,0,27,0,,,,,,pepperoni,w,g,lower,,,,,,,3,w,LoDemNoTar,g,1,0.7053310151677579,,,,,,,,,,,,,,,,,,,,338,2023-11-27_13h09.31.817,leap3,2022.2.5,60.47032657580103,
,,,,,,,,,,,,,,,,,,,,5,0,5,0,28,0,28,0,,,,,,inversion,w,g,lower,,,,,,,3,w,LoDemNoTar,g,1,0.9640165315940976,,,,,,,,,,,,,,,,,,,,338,2023-11-27_13h09.31.817,leap3,2022.2.5,60.47032657580103,
,,,,,,,,,,,,,,,,,,,,5,0,5,0,29,0,29,0,,,,,,sullen,w,g,lower,,,,,,,3,w,LoDemNoTar,g,1,0.5967304015066475,,,,,,,,,,,,,,,,,,,,338,2023-11-27_13h09.31.817,leap3,2022.2.5,60.47032657580103,
,,,,,,,,,,,,,,,,,,,,5,0,5,0,,,,,,,,,,,,,,,,,,,,,,,,,,,NA,,,,,,,,,,,,,,,,,,338,2023-11-27_13h09.31.817,leap3,2022.2.5,60.47032657580103,
,,,,,,,,,,,,,,,,,,,,6,0,6,0,0,0,0,0,,,,,,rander,nw,h,lower,,,,,,,3,nw,LoDemNoTar,h,1,1.1957205743528903,,,,,,,,,,,,,,,,,,,,338,2023-11-27_13h09.31.817,leap3,2022.2.5,60.47032657580103,
,,,,,,,,,,,,,,,,,,,,6,0,6,0,1,0,1,0,,,,,,brank,nw,h,lower,,,,,,,3,nw,LoDemNoTar,h,1,0.795067970873788,,,,,,,,,,,,,,,,,,,,338,2023-11-27_13h09.31.817,leap3,2022.2.5,60.47032657580103,
,,,,,,,,,,,,,,,,,,,,6,0,6,0,2,0,2,0,,,,,,lindo,nw,h,lower,,,,,,,3,nw,LoDemNoTar,h,1,0.5784447900950909,,,,,,,,,,,,,,,,,,,,338,2023-11-27_13h09.31.817,leap3,2022.2.5,60.47032657580103,
,,,,,,,,,,,,,,,,,,,,6,0,6,0,3,0,3,0,,,,,,fatho,nw,h,lower,,,,,,,3,nw,LoDemNoTar,h,1,0.5544965720036998,,,,,,,,,,,,,,,,,,,,338,2023-11-27_13h09.31.817,leap3,2022.2.5,60.47032657580103,
,,,,,,,,,,,,,,,,,,,,6,0,6,0,4,0,4,0,,,,,,peags,nw,h,lower,,,,,,,3,nw,LoDemNoTar,h,1,0.5792721319012344,,,,,,,,,,,,,,,,,,,,338,2023-11-27_13h09.31.817,leap3,2022.2.5,60.47032657580103,
,,,,,,,,,,,,,,,,,,,,6,0,6,0,5,0,5,0,,,,,,except,w,g,lower,,,,,,,3,w,LoDemNoTar,g,1,0.6273072861367837,,,,,,,,,,,,,,,,,,,,338,2023-11-27_13h09.31.817,leap3,2022.2.5,60.47032657580103,
,,,,,,,,,,,,,,,,,,,,6,0,6,0,6,0,6,0,,,,,,fuintets,nw,h,lower,,,,,,,3,nw,LoDemNoTar,h,1,0.881379685131833,,,,,,,,,,,,,,,,,,,,338,2023-11-27_13h09.31.817,leap3,2022.2.5,60.47032657580103,
,,,,,,,,,,,,,,,,,,,,6,0,6,0,7,0,7,0,,,,,,standard,w,g,lower,,,,,,,3,w,LoDemNoTar,g,1,2.2605429210234433,,,,,,,,,,,,,,,,,,,,338,2023-11-27_13h09.31.817,leap3,2022.2.5,60.47032657580103,
,,,,,,,,,,,,,,,,,,,,6,0,6,0,8,0,8,0,,,,,,galashes,nw,h,lower,,,,,,,3,nw,LoDemNoTar,h,1,0.7932984061772004,,,,,,,,,,,,,,,,,,,,338,2023-11-27_13h09.31.817,leap3,2022.2.5,60.47032657580103,
,,,,,,,,,,,,,,,,,,,,6,0,6,0,9,0,9,0,,,,,,gounts,nw,h,lower,,,,,,,3,nw,LoDemNoTar,h,1,0.6723710948135704,,,,,,,,,,,,,,,,,,,,338,2023-11-27_13h09.31.817,leap3,2022.2.5,60.47032657580103,
,,,,,,,,,,,,,,,,,,,,6,0,6,0,10,0,10,0,,,,,,butcher,w,g,lower,,,,,,,3,w,LoDemNoTar,g,1,0.7807876340812072,,,,,,,,,,,,,,,,,,,,338,2023-11-27_13h09.31.817,leap3,2022.2.5,60.47032657580103,
,,,,,,,,,,,,,,,,,,,,6,0,6,0,11,0,11,0,,,,,,implode,w,g,lower,,,,,,,3,w,LoDemNoTar,g,1,0.6529628278221935,,,,,,,,,,,,,,,,,,,,338,2023-11-27_13h09.31.817,leap3,2022.2.5,60.47032657580103,
,,,,,,,,,,,,,,,,,,,,6,0,6,0,12,0,12,0,,,,,,miteous,nw,h,lower,,,,,,,3,nw,LoDemNoTar,h,1,0.9376554815098643,,,,,,,,,,,,,,,,,,,,338,2023-11-27_13h09.31.817,leap3,2022.2.5,60.47032657580103,
,,,,,,,,,,,,,,,,,,,,6,0,6,0,13,0,13,0,,,,,,marvel,w,g,lower,,,,,,,3,w,LoDemNoTar,g,1,0.6030723622534424,,,,,,,,,,,,,,,,,,,,338,2023-11-27_13h09.31.817,leap3,2022.2.5,60.47032657580103,
,,,,,,,,,,,,,,,,,,,,6,0,6,0,14,0,14,0,,,,,,rawhide,w,g,lower,,,,,,,3,w,LoDemNoTar,h,0,0.6577474392252043,,,,,,,,,,,,,,,,,,,,338,2023-11-27_13h09.31.817,leap3,2022.2.5,60.47032657580103,
,,,,,,,,,,,,,,,,,,,,6,0,6,0,15,0,15,0,,,,,,hemoter,nw,h,lower,,,,,,,3,nw,LoDemNoTar,h,1,0.7265800265595317,,,,,,,,,,,,,,,,,,,,338,2023-11-27_13h09.31.817,leap3,2022.2.5,60.47032657580103,
,,,,,,,,,,,,,,,,,,,,6,0,6,0,16,0,16,0,,,,,,thaken,nw,h,lower,,,,,,,3,nw,LoDemNoTar,h,1,0.6635428047738969,,,,,,,,,,,,,,,,,,,,338,2023-11-27_13h09.31.817,leap3,2022.2.5,60.47032657580103,
,,,,,,,,,,,,,,,,,,,,6,0,6,0,17,0,17,0,,,,,,helpful,w,g,lower,,,,,,,3,w,LoDemNoTar,g,1,0.5802716296166182,,,,,,,,,,,,,,,,,,,,338,2023-11-27_13h09.31.817,leap3,2022.2.5,60.47032657580103,
,,,,,,,,,,,,,,,,,,,,6,0,6,0,18,0,18,0,,,,,,snorls,nw,h,lower,,,,,,,3,nw,LoDemNoTar,h,1,1.4924614964984357,,,,,,,,,,,,,,,,,,,,338,2023-11-27_13h09.31.817,leap3,2022.2.5,60.47032657580103,
,,,,,,,,,,,,,,,,,,,,6,0,6,0,19,0,19,0,,,,,,inside,w,g,lower,,,,,,,3,w,LoDemNoTar,g,1,0.6477451780810952,,,,,,,,,,,,,,,,,,,,338,2023-11-27_13h09.31.817,leap3,2022.2.5,60.47032657580103,
,,,,,,,,,,,,,,,,,,,,6,0,6,0,20,0,20,0,,,,,,grolific,nw,h,lower,,,,,,,3,nw,LoDemNoTar,h,1,1.317195143084973,,,,,,,,,,,,,,,,,,,,338,2023-11-27_13h09.31.817,leap3,2022.2.5,60.47032657580103,
,,,,,,,,,,,,,,,,,,,,6,0,6,0,21,0,21,0,,,,,,afternoon,w,g,lower,,,,,,,3,w,LoDemNoTar,g,1,0.5032149535836652,,,,,,,,,,,,,,,,,,,,338,2023-11-27_13h09.31.817,leap3,2022.2.5,60.47032657580103,
,,,,,,,,,,,,,,,,,,,,6,0,6,0,22,0,22,0,,,,,,lavilion,nw,h,lower,,,,,,,3,nw,LoDemNoTar,h,1,1.0260327361756936,,,,,,,,,,,,,,,,,,,,338,2023-11-27_13h09.31.817,leap3,2022.2.5,60.47032657580103,
,,,,,,,,,,,,,,,,,,,,6,0,6,0,23,0,23,0,,,,,,tucker,w,g,lower,,,,,,,3,w,LoDemNoTar,g,1,2.6711431592702866,,,,,,,,,,,,,,,,,,,,338,2023-11-27_13h09.31.817,leap3,2022.2.5,60.47032657580103,
,,,,,,,,,,,,,,,,,,,,6,0,6,0,24,0,24,0,,,,,,cervical,w,g,lower,,,,,,,3,w,LoDemNoTar,h,0,0.6992161679081619,,,,,,,,,,,,,,,,,,,,338,2023-11-27_13h09.31.817,leap3,2022.2.5,60.47032657580103,
,,,,,,,,,,,,,,,,,,,,6,0,6,0,25,0,25,0,,,,,,staircase,w,g,lower,,,,,,,3,w,LoDemNoTar,g,1,0.5906152231618762,,,,,,,,,,,,,,,,,,,,338,2023-11-27_13h09.31.817,leap3,2022.2.5,60.47032657580103,
,,,,,,,,,,,,,,,,,,,,6,0,6,0,26,0,26,0,,,,,,moisture,w,g,lower,,,,,,,3,w,LoDemNoTar,g,1,0.63004721456673,,,,,,,,,,,,,,,,,,,,338,2023-11-27_13h09.31.817,leap3,2022.2.5,60.47032657580103,
,,,,,,,,,,,,,,,,,,,,6,0,6,0,27,0,27,0,,,,,,tinker,w,g,lower,,,,,,,3,w,LoDemNoTar,g,1,0.5161885605193675,,,,,,,,,,,,,,,,,,,,338,2023-11-27_13h09.31.817,leap3,2022.2.5,60.47032657580103,
,,,,,,,,,,,,,,,,,,,,6,0,6,0,28,0,28,0,,,,,,require,w,g,lower,,,,,,,3,w,LoDemNoTar,g,1,0.3988152763340622,,,,,,,,,,,,,,,,,,,,338,2023-11-27_13h09.31.817,leap3,2022.2.5,60.47032657580103,
,,,,,,,,,,,,,,,,,,,,6,0,6,0,29,0,29,0,,,,,,chonemic,nw,h,lower,,,,,,,3,nw,LoDemNoTar,h,1,0.5663220309652388,,,,,,,,,,,,,,,,,,,,338,2023-11-27_13h09.31.817,leap3,2022.2.5,60.47032657580103,
,,,,,,,,,,,,,,,,,,,,6,0,6,0,,,,,,,,,,,,,,,,,,,,,,,,,,,NA,,,,,,,,,,,,,,,,,,338,2023-11-27_13h09.31.817,leap3,2022.2.5,60.47032657580103,
,,,,,,,,,,,,,,,,,,,,7,0,7,0,0,0,0,0,,,,,,irfirm,nw,h,upper,,,,,,,1,nw,HiDemTar,h,1,0.7742963612545282,,,,,,,,,,,,,,,,,,,,338,2023-11-27_13h09.31.817,leap3,2022.2.5,60.47032657580103,
,,,,,,,,,,,,,,,,,,,,7,0,7,0,1,0,1,0,,,,,,figure,w,g,upper,,,,,,,1,w,HiDemTar,g,1,0.5263623154023662,,,,,,,,,,,,,,,,,,,,338,2023-11-27_13h09.31.817,leap3,2022.2.5,60.47032657580103,
,,,,,,,,,,,,,,,,,,,,7,0,7,0,2,0,2,0,,,,,,slogan,w,g,upper,,,,,,,1,w,HiDemTar,g,1,0.6564244870096445,,,,,,,,,,,,,,,,,,,,338,2023-11-27_13h09.31.817,leap3,2022.2.5,60.47032657580103,
,,,,,,,,,,,,,,,,,,,,7,0,7,0,3,0,3,0,,,,,,planofoad,nw,h,upper,,,,,,,1,nw,HiDemTar,h,1,0.7092306787380949,,,,,,,,,,,,,,,,,,,,338,2023-11-27_13h09.31.817,leap3,2022.2.5,60.47032657580103,
,,,,,,,,,,,,,,,,,,,,7,0,7,0,4,0,4,0,,,,,,flacked,nw,h,upper,,,,,,,1,nw,HiDemTar,g,0,0.5593209116486832,,,,,,,,,,,,,,,,,,,,338,2023-11-27_13h09.31.817,leap3,2022.2.5,60.47032657580103,
,,,,,,,,,,,,,,,,,,,,7,0,7,0,5,0,5,0,,,,,,catacomb,w,g,upper,,,,,,,1,w,HiDemTar,g,1,0.6873357514850795,,,,,,,,,,,,,,,,,,,,338,2023-11-27_13h09.31.817,leap3,2022.2.5,60.47032657580103,
,,,,,,,,,,,,,,,,,,,,7,0,7,0,6,0,6,0,,,,,,adok,nw,h,upper,,,,,,,1,nw,HiDemTar,h,1,0.5866933780489489,,,,,,,,,,,,,,,,,,,,338,2023-11-27_13h09.31.817,leap3,2022.2.5,60.47032657580103,
,,,,,,,,,,,,,,,,,,,,7,0,7,0,7,0,7,0,,,,,,noblest,w,g,upper,,,,,,,1,w,HiDemTar,g,1,0.6485241837799549,,,,,,,,,,,,,,,,,,,,338,2023-11-27_13h09.31.817,leap3,2022.2.5,60.47032657580103,
,,,,,,,,,,,,,,,,,,,,7,0,7,0,8,0,8,0,,,,,,senior,w,g,upper,,,,,,,1,w,HiDemTar,g,1,0.7571982949739322,,,,,,,,,,,,,,,,,,,,338,2023-11-27_13h09.31.817,leap3,2022.2.5,60.47032657580103,
,,,,,,,,,,,,,,,,,,,,7,0,7,0,9,0,9,0,,,,,,ezulated,nw,h,upper,,,,,,,1,nw,HiDemTar,h,1,0.9252433680230752,,,,,,,,,,,,,,,,,,,,338,2023-11-27_13h09.31.817,leap3,2022.2.5,60.47032657580103,
,,,,,,,,,,,,,,,,,,,,7,0,7,0,10,0,10,0,,,,,,squirrel,target,q,upper,,,,,,,1,target,HiDemTar,g,0,0.7106205070158467,,,,,,,,,,,,,,,,,,,,338,2023-11-27_13h09.31.817,leap3,2022.2.5,60.47032657580103,
,,,,,,,,,,,,,,,,,,,,7,0,7,0,11,0,11,0,,,,,,lovud,nw,h,upper,,,,,,,1,aftertar1,HiDemTar,h,1,3.776850228663534,,,,,,,,,,,,,,,,,,,,338,2023-11-27_13h09.31.817,leap3,2022.2.5,60.47032657580103,
,,,,,,,,,,,,,,,,,,,,7,0,7,0,12,0,12,0,,,,,,gradielts,nw,h,upper,,,,,,,1,aftertar2,HiDemTar,h,1,0.6081724824616686,,,,,,,,,,,,,,,,,,,,338,2023-11-27_13h09.31.817,leap3,2022.2.5,60.47032657580103,
,,,,,,,,,,,,,,,,,,,,7,0,7,0,13,0,13,0,,,,,,cookbook,w,g,upper,,,,,,,1,aftertar3,HiDemTar,g,1,0.6869239014340565,,,,,,,,,,,,,,,,,,,,338,2023-11-27_13h09.31.817,leap3,2022.2.5,60.47032657580103,
,,,,,,,,,,,,,,,,,,,,7,0,7,0,14,0,14,0,,,,,,reprint,w,g,upper,,,,,,,1,w,HiDemTar,g,1,0.730315810884349,,,,,,,,,,,,,,,,,,,,338,2023-11-27_13h09.31.817,leap3,2022.2.5,60.47032657580103,
,,,,,,,,,,,,,,,,,,,,7,0,7,0,15,0,15,0,,,,,,fuestion,nw,h,upper,,,,,,,1,w,HiDemTar,h,1,0.8187705356394872,,,,,,,,,,,,,,,,,,,,338,2023-11-27_13h09.31.817,leap3,2022.2.5,60.47032657580103,
,,,,,,,,,,,,,,,,,,,,7,0,7,0,16,0,16,0,,,,,,tragedy,w,g,upper,,,,,,,1,nw,HiDemTar,g,1,1.2007799731800333,,,,,,,,,,,,,,,,,,,,338,2023-11-27_13h09.31.817,leap3,2022.2.5,60.47032657580103,
,,,,,,,,,,,,,,,,,,,,7,0,7,0,17,0,17,0,,,,,,rootsie,nw,h,upper,,,,,,,1,w,HiDemTar,h,1,0.671604338567704,,,,,,,,,,,,,,,,,,,,338,2023-11-27_13h09.31.817,leap3,2022.2.5,60.47032657580103,
,,,,,,,,,,,,,,,,,,,,7,0,7,0,18,0,18,0,,,,,,prominent,w,g,upper,,,,,,,1,nw,HiDemTar,g,1,1.9630835787393153,,,,,,,,,,,,,,,,,,,,338,2023-11-27_13h09.31.817,leap3,2022.2.5,60.47032657580103,
,,,,,,,,,,,,,,,,,,,,7,0,7,0,19,0,19,0,,,,,,gures,nw,h,upper,,,,,,,1,w,HiDemTar,h,1,0.6111527668545023,,,,,,,,,,,,,,,,,,,,338,2023-11-27_13h09.31.817,leap3,2022.2.5,60.47032657580103,
,,,,,,,,,,,,,,,,,,,,7,0,7,0,20,0,20,0,,,,,,etber,nw,h,upper,,,,,,,1,nw,HiDemTar,h,1,0.5452011433662847,,,,,,,,,,,,,,,,,,,,338,2023-11-27_13h09.31.817,leap3,2022.2.5,60.47032657580103,
,,,,,,,,,,,,,,,,,,,,7,0,7,0,21,0,21,0,,,,,,expired,w,g,upper,,,,,,,1,nw,HiDemTar,g,1,0.5219269820954651,,,,,,,,,,,,,,,,,,,,338,2023-11-27_13h09.31.817,leap3,2022.2.5,60.47032657580103,
,,,,,,,,,,,,,,,,,,,,7,0,7,0,22,0,22,0,,,,,,loneliest,w,g,upper,,,,,,,1,w,HiDemTar,g,1,0.5633506854064763,,,,,,,,,,,,,,,,,,,,338,2023-11-27_13h09.31.817,leap3,2022.2.5,60.47032657580103,
,,,,,,,,,,,,,,,,,,,,7,0,7,0,23,0,23,0,,,,,,glocked,nw,h,upper,,,,,,,1,w,HiDemTar,h,1,0.7543474583653733,,,,,,,,,,,,,,,,,,,,338,2023-11-27_13h09.31.817,leap3,2022.2.5,60.47032657580103,
,,,,,,,,,,,,,,,,,,,,7,0,7,0,24,0,24,0,,,,,,twarfs,nw,h,upper,,,,,,,1,nw,HiDemTar,h,1,1.0592247360618785,,,,,,,,,,,,,,,,,,,,338,2023-11-27_13h09.31.817,leap3,2022.2.5,60.47032657580103,
,,,,,,,,,,,,,,,,,,,,7,0,7,0,25,0,25,0,,,,,,nostril,w,g,upper,,,,,,,1,nw,HiDemTar,g,1,1.3352602624800056,,,,,,,,,,,,,,,,,,,,338,2023-11-27_13h09.31.817,leap3,2022.2.5,60.47032657580103,
,,,,,,,,,,,,,,,,,,,,7,0,7,0,26,0,26,0,,,,,,vinegar,w,g,upper,,,,,,,1,w,HiDemTar,g,1,0.6006231125211343,,,,,,,,,,,,,,,,,,,,338,2023-11-27_13h09.31.817,leap3,2022.2.5,60.47032657580103,
,,,,,,,,,,,,,,,,,,,,7,0,7,0,27,0,27,0,,,,,,provide,w,g,upper,,,,,,,1,w,HiDemTar,g,1,13.326995783252642,,,,,,,,,,,,,,,,,,,,338,2023-11-27_13h09.31.817,leap3,2022.2.5,60.47032657580103,
,,,,,,,,,,,,,,,,,,,,7,0,7,0,28,0,28,0,,,,,,frogmy,nw,h,upper,,,,,,,1,w,HiDemTar,h,1,0.752300126827322,,,,,,,,,,,,,,,,,,,,338,2023-11-27_13h09.31.817,leap3,2022.2.5,60.47032657580103,
,,,,,,,,,,,,,,,,,,,,7,0,7,0,29,0,29,0,,,,,,poyride,nw,h,upper,,,,,,,1,nw,HiDemTar,h,1,1.2251145489281043,,,,,,,,,,,,,,,,,,,,338,2023-11-27_13h09.31.817,leap3,2022.2.5,60.47032657580103,
,,,,,,,,,,,,,,,,,,,,7,0,7,0,,,,,,,,,,,,,,,,,,,,,,,,,,,0,,,,,,,,,,,,,,,,,,338,2023-11-27_13h09.31.817,leap3,2022.2.5,60.47032657580103,
,,,,,,,,,,,,,,,,,,,,8,0,8,0,0,0,0,0,,,,,,childhood,w,g,upper,,,,,,,1,w,HiDemTar,g,1,0.5584703949280083,,,,,,,,,,,,,,,,,,,,338,2023-11-27_13h09.31.817,leap3,2022.2.5,60.47032657580103,
,,,,,,,,,,,,,,,,,,,,8,0,8,0,1,0,1,0,,,,,,uncle,w,g,upper,,,,,,,1,w,HiDemTar,g,1,0.4945445837220177,,,,,,,,,,,,,,,,,,,,338,2023-11-27_13h09.31.817,leap3,2022.2.5,60.47032657580103,
,,,,,,,,,,,,,,,,,,,,8,0,8,0,2,0,2,0,,,,,,expounded,w,g,upper,,,,,,,1,w,HiDemTar,g,1,1.089292767457664,,,,,,,,,,,,,,,,,,,,338,2023-11-27_13h09.31.817,leap3,2022.2.5,60.47032657580103,
,,,,,,,,,,,,,,,,,,,,8,0,8,0,3,0,3,0,,,,,,intercede,w,g,upper,,,,,,,1,w,HiDemTar,g,1,0.6121092257089913,,,,,,,,,,,,,,,,,,,,338,2023-11-27_13h09.31.817,leap3,2022.2.5,60.47032657580103,
,,,,,,,,,,,,,,,,,,,,8,0,8,0,4,0,4,0,,,,,,brighten,w,g,upper,,,,,,,1,w,HiDemTar,g,1,0.4501071578124538,,,,,,,,,,,,,,,,,,,,338,2023-11-27_13h09.31.817,leap3,2022.2.5,60.47032657580103,
,,,,,,,,,,,,,,,,,,,,8,0,8,0,5,0,5,0,,,,,,numbled,nw,h,upper,,,,,,,1,nw,HiDemTar,h,1,0.8227999783121049,,,,,,,,,,,,,,,,,,,,338,2023-11-27_13h09.31.817,leap3,2022.2.5,60.47032657580103,
,,,,,,,,,,,,,,,,,,,,8,0,8,0,6,0,6,0,,,,,,remain,w,g,upper,,,,,,,1,w,HiDemTar,g,1,0.6761883220169693,,,,,,,,,,,,,,,,,,,,338,2023-11-27_13h09.31.817,leap3,2022.2.5,60.47032657580103,
,,,,,,,,,,,,,,,,,,,,8,0,8,0,7,0,7,0,,,,,,purport,w,g,upper,,,,,,,1,w,HiDemTar,h,0,1.2786722676828504,,,,,,,,,,,,,,,,,,,,338,2023-11-27_13h09.31.817,leap3,2022.2.5,60.47032657580103,
,,,,,,,,,,,,,,,,,,,,8,0,8,0,8,0,8,0,,,,,,mineluyer,nw,h,upper,,,,,,,1,nw,HiDemTar,h,1,0.586014355183579,,,,,,,,,,,,,,,,,,,,338,2023-11-27_13h09.31.817,leap3,2022.2.5,60.47032657580103,
,,,,,,,,,,,,,,,,,,,,8,0,8,0,9,0,9,0,,,,,,deeper,w,g,upper,,,,,,,1,w,HiDemTar,g,1,0.6173891165526584,,,,,,,,,,,,,,,,,,,,338,2023-11-27_13h09.31.817,leap3,2022.2.5,60.47032657580103,
,,,,,,,,,,,,,,,,,,,,8,0,8,0,10,0,10,0,,,,,,tapling,nw,h,upper,,,,,,,1,nw,HiDemTar,h,1,0.7675991633441299,,,,,,,,,,,,,,,,,,,,338,2023-11-27_13h09.31.817,leap3,2022.2.5,60.47032657580103,
,,,,,,,,,,,,,,,,,,,,8,0,8,0,11,0,11,0,,,,,,flicking,w,g,upper,,,,,,,1,w,HiDemTar,g,1,0.6875784252770245,,,,,,,,,,,,,,,,,,,,338,2023-11-27_13h09.31.817,leap3,2022.2.5,60.47032657580103,
,,,,,,,,,,,,,,,,,,,,8,0,8,0,12,0,12,0,,,,,,sength,nw,h,upper,,,,,,,1,nw,HiDemTar,h,1,0.954319516196847,,,,,,,,,,,,,,,,,,,,338,2023-11-27_13h09.31.817,leap3,2022.2.5,60.47032657580103,
,,,,,,,,,,,,,,,,,,,,8,0,8,0,13,0,13,0,,,,,,unburnid,nw,h,upper,,,,,,,1,nw,HiDemTar,h,1,0.9223438643384725,,,,,,,,,,,,,,,,,,,,338,2023-11-27_13h09.31.817,leap3,2022.2.5,60.47032657580103,
,,,,,,,,,,,,,,,,,,,,8,0,8,0,14,0,14,0,,,,,,clume,nw,h,upper,,,,,,,1,nw,HiDemTar,h,1,3.8989336335798725,,,,,,,,,,,,,,,,,,,,338,2023-11-27_13h09.31.817,leap3,2022.2.5,60.47032657580103,
,,,,,,,,,,,,,,,,,,,,8,0,8,0,15,0,15,0,,,,,,gremieres,nw,h,upper,,,,,,,1,nw,HiDemTar,h,1,0.941693531931378,,,,,,,,,,,,,,,,,,,,338,2023-11-27_13h09.31.817,leap3,2022.2.5,60.47032657580103,
,,,,,,,,,,,,,,,,,,,,8,0,8,0,16,0,16,0,,,,,,pircus,nw,h,upper,,,,,,,1,nw,HiDemTar,h,1,14.758085891255178,,,,,,,,,,,,,,,,,,,,338,2023-11-27_13h09.31.817,leap3,2022.2.5,60.47032657580103,
,,,,,,,,,,,,,,,,,,,,8,0,8,0,17,0,17,0,,,,,,ebince,nw,h,upper,,,,,,,1,nw,HiDemTar,h,1,0.7581060865195468,,,,,,,,,,,,,,,,,,,,338,2023-11-27_13h09.31.817,leap3,2022.2.5,60.47032657580103,
,,,,,,,,,,,,,,,,,,,,8,0,8,0,18,0,18,0,,,,,,resume,w,g,upper,,,,,,,1,w,HiDemTar,g,1,0.5740849404828623,,,,,,,,,,,,,,,,,,,,338,2023-11-27_13h09.31.817,leap3,2022.2.5,60.47032657580103,
,,,,,,,,,,,,,,,,,,,,8,0,8,0,19,0,19,0,,,,,,egcused,nw,h,upper,,,,,,,1,nw,HiDemTar,h,1,0.589450521976687,,,,,,,,,,,,,,,,,,,,338,2023-11-27_13h09.31.817,leap3,2022.2.5,60.47032657580103,
,,,,,,,,,,,,,,,,,,,,8,0,8,0,20,0,20,0,,,,,,flooted,nw,h,upper,,,,,,,1,nw,HiDemTar,h,1,0.6682456420967355,,,,,,,,,,,,,,,,,,,,338,2023-11-27_13h09.31.817,leap3,2022.2.5,60.47032657580103,
,,,,,,,,,,,,,,,,,,,,8,0,8,0,21,0,21,0,,,,,,spider,target,q,upper,,,,,,,1,target,HiDemTar,g,0,0.5762690035626292,,,,,,,,,,,,,,,,,,,,338,2023-11-27_13h09.31.817,leap3,2022.2.5,60.47032657580103,
,,,,,,,,,,,,,,,,,,,,8,0,8,0,22,0,22,0,,,,,,olgies,nw,h,upper,,,,,,,1,aftertar1,HiDemTar,q,0,0.1997232004068792,,,1,,,,,,,,,,,,,,,,,338,2023-11-27_13h09.31.817,leap3,2022.2.5,60.47032657580103,
,,,,,,,,,,,,,,,,,,,,8,0,8,0,23,0,23,0,,,,,,selongs,nw,h,upper,,,,,,,1,aftertar2,HiDemTar,h,1,1.1904482981190085,,,,,,,,,,,,,,,,,,,,338,2023-11-27_13h09.31.817,leap3,2022.2.5,60.47032657580103,
,,,,,,,,,,,,,,,,,,,,8,0,8,0,24,0,24,0,,,,,,spigat,nw,h,upper,,,,,,,1,aftertar3,HiDemTar,h,1,0.7402389466296881,,,,,,,,,,,,,,,,,,,,338,2023-11-27_13h09.31.817,leap3,2022.2.5,60.47032657580103,
,,,,,,,,,,,,,,,,,,,,8,0,8,0,25,0,25,0,,,,,,befriend,w,g,upper,,,,,,,1,nw,HiDemTar,h,0,0.5809195319889113,,,,,,,,,,,,,,,,,,,,338,2023-11-27_13h09.31.817,leap3,2022.2.5,60.47032657580103,
,,,,,,,,,,,,,,,,,,,,8,0,8,0,26,0,26,0,,,,,,thrapping,nw,h,upper,,,,,,,1,w,HiDemTar,h,1,0.7163728334708139,,,,,,,,,,,,,,,,,,,,338,2023-11-27_13h09.31.817,leap3,2022.2.5,60.47032657580103,
,,,,,,,,,,,,,,,,,,,,8,0,8,0,27,0,27,0,,,,,,mixture,w,g,upper,,,,,,,1,nw,HiDemTar,g,1,0.7423640793422237,,,,,,,,,,,,,,,,,,,,338,2023-11-27_13h09.31.817,leap3,2022.2.5,60.47032657580103,
,,,,,,,,,,,,,,,,,,,,8,0,8,0,28,0,28,0,,,,,,agony,w,g,upper,,,,,,,1,w,HiDemTar,g,1,0.5350336786359549,,,,,,,,,,,,,,,,,,,,338,2023-11-27_13h09.31.817,leap3,2022.2.5,60.47032657580103,
,,,,,,,,,,,,,,,,,,,,8,0,8,0,29,0,29,0,,,,,,gaining,w,g,upper,,,,,,,1,w,HiDemTar,h,0,0.7764632088365033,,,,,,,,,,,,,,,,,,,,338,2023-11-27_13h09.31.817,leap3,2022.2.5,60.47032657580103,
,,,,,,,,,,,,,,,,,,,,8,0,8,0,,,,,,,,,,,,,,,,,,,,,,,,,,,1,,,,,,,,,,,,,,,,,,338,2023-11-27_13h09.31.817,leap3,2022.2.5,60.47032657580103,
,,,,,,,,,,,,,,,,,,,,9,0,9,0,0,0,0,0,,,,,,shivering,w,g,upper,,,,,,,1,w,HiDemTar,g,1,1.071888793259859,,,,,,,,,,,,,,,,,,,,338,2023-11-27_13h09.31.817,leap3,2022.2.5,60.47032657580103,
,,,,,,,,,,,,,,,,,,,,9,0,9,0,1,0,1,0,,,,,,exclusion,w,g,upper,,,,,,,1,w,HiDemTar,g,1,0.5712297999998555,,,,,,,,,,,,,,,,,,,,338,2023-11-27_13h09.31.817,leap3,2022.2.5,60.47032657580103,
,,,,,,,,,,,,,,,,,,,,9,0,9,0,2,0,2,0,,,,,,scrooner,nw,h,upper,,,,,,,1,nw,HiDemTar,h,1,0.7944823094876483,,,,,,,,,,,,,,,,,,,,338,2023-11-27_13h09.31.817,leap3,2022.2.5,60.47032657580103,
,,,,,,,,,,,,,,,,,,,,9,0,9,0,3,0,3,0,,,,,,ascending,w,g,upper,,,,,,,1,w,HiDemTar,g,1,0.953378286678344,,,,,,,,,,,,,,,,,,,,338,2023-11-27_13h09.31.817,leap3,2022.2.5,60.47032657580103,
,,,,,,,,,,,,,,,,,,,,9,0,9,0,4,0,4,0,,,,,,profats,nw,h,upper,,,,,,,1,nw,HiDemTar,h,1,0.8414563871920109,,,,,,,,,,,,,,,,,,,,338,2023-11-27_13h09.31.817,leap3,2022.2.5,60.47032657580103,
,,,,,,,,,,,,,,,,,,,,9,0,9,0,5,0,5,0,,,,,,diatonic,w,g,upper,,,,,,,1,w,HiDemTar,h,0,6.645410478464328,,,,,,,,,,,,,,,,,,,,338,2023-11-27_13h09.31.817,leap3,2022.2.5,60.47032657580103,
,,,,,,,,,,,,,,,,,,,,9,0,9,0,6,0,6,0,,,,,,bloodless,w,g,upper,,,,,,,1,w,HiDemTar,h,0,18.18551007064525,,,,,,,,,,,,,,,,,,,,338,2023-11-27_13h09.31.817,leap3,2022.2.5,60.47032657580103,
,,,,,,,,,,,,,,,,,,,,9,0,9,0,7,0,7,0,,,,,,hinsome,nw,h,upper,,,,,,,1,nw,HiDemTar,h,1,1.30544980277773,,,,,,,,,,,,,,,,,,,,338,2023-11-27_13h09.31.817,leap3,2022.2.5,60.47032657580103,
,,,,,,,,,,,,,,,,,,,,9,0,9,0,8,0,8,0,,,,,,calcify,w,g,upper,,,,,,,1,w,HiDemTar,g,1,0.7314997140783817,,,,,,,,,,,,,,,,,,,,338,2023-11-27_13h09.31.817,leap3,2022.2.5,60.47032657580103,
,,,,,,,,,,,,,,,,,,,,9,0,9,0,9,0,9,0,,,,,,harfing,nw,h,upper,,,,,,,1,nw,HiDemTar,h,1,0.6609300071140751,,,,,,,,,,,,,,,,,,,,338,2023-11-27_13h09.31.817,leap3,2022.2.5,60.47032657580103,
,,,,,,,,,,,,,,,,,,,,9,0,9,0,10,0,10,0,,,,,,snays,nw,h,upper,,,,,,,1,nw,HiDemTar,h,1,0.5930065356660634,,,,,,,,,,,,,,,,,,,,338,2023-11-27_13h09.31.817,leap3,2022.2.5,60.47032657580103,
,,,,,,,,,,,,,,,,,,,,9,0,9,0,11,0,11,0,,,,,,slooch,nw,h,upper,,,,,,,1,nw,HiDemTar,h,1,0.5196853127563372,,,,,,,,,,,,,,,,,,,,338,2023-11-27_13h09.31.817,leap3,2022.2.5,60.47032657580103,
,,,,,,,,,,,,,,,,,,,,9,0,9,0,12,0,12,0,,,,,,carbled,nw,h,upper,,,,,,,1,nw,HiDemTar,h,1,0.48015433188993484,,,,,,,,,,,,,,,,,,,,338,2023-11-27_13h09.31.817,leap3,2022.2.5,60.47032657580103,
,,,,,,,,,,,,,,,,,,,,9,0,9,0,13,0,13,0,,,,,,catgup,nw,h,upper,,,,,,,1,nw,HiDemTar,h,1,0.49958246282767504,,,,,,,,,,,,,,,,,,,,338,2023-11-27_13h09.31.817,leap3,2022.2.5,60.47032657580103,
,,,,,,,,,,,,,,,,,,,,9,0,9,0,14,0,14,0,,,,,,trecious,nw,h,upper,,,,,,,1,nw,HiDemTar,h,1,0.4862350790062919,,,,,,,,,,,,,,,,,,,,338,2023-11-27_13h09.31.817,leap3,2022.2.5,60.47032657580103,
,,,,,,,,,,,,,,,,,,,,9,0,9,0,15,0,15,0,,,,,,dredigest,nw,h,upper,,,,,,,1,nw,HiDemTar,h,1,1.712995928246528,,,,,,,,,,,,,,,,,,,,338,2023-11-27_13h09.31.817,leap3,2022.2.5,60.47032657580103,
,,,,,,,,,,,,,,,,,,,,9,0,9,0,16,0,16,0,,,,,,fallacy,w,g,upper,,,,,,,1,w,HiDemTar,g,1,0.6910205511376262,,,,,,,,,,,,,,,,,,,,338,2023-11-27_13h09.31.817,leap3,2022.2.5,60.47032657580103,
,,,,,,,,,,,,,,,,,,,,9,0,9,0,17,0,17,0,,,,,,tablet,w,g,upper,,,,,,,1,w,HiDemTar,g,1,0.49368446588050574,,,,,,,,,,,,,,,,,,,,338,2023-11-27_13h09.31.817,leap3,2022.2.5,60.47032657580103,
,,,,,,,,,,,,,,,,,,,,9,0,9,0,18,0,18,0,,,,,,presently,w,g,upper,,,,,,,1,w,HiDemTar,g,1,0.6164316645590588,,,,,,,,,,,,,,,,,,,,338,2023-11-27_13h09.31.817,leap3,2022.2.5,60.47032657580103,
,,,,,,,,,,,,,,,,,,,,9,0,9,0,19,0,19,0,,,,,,graveyard,w,g,upper,,,,,,,1,w,HiDemTar,g,1,0.7424998177448288,,,,,,,,,,,,,,,,,,,,338,2023-11-27_13h09.31.817,leap3,2022.2.5,60.47032657580103,
,,,,,,,,,,,,,,,,,,,,9,0,9,0,20,0,20,0,,,,,,esdings,nw,h,upper,,,,,,,1,nw,HiDemTar,h,1,0.614385326160118,,,,,,,,,,,,,,,,,,,,338,2023-11-27_13h09.31.817,leap3,2022.2.5,60.47032657580103,
,,,,,,,,,,,,,,,,,,,,9,0,9,0,21,0,21,0,,,,,,audience,w,g,upper,,,,,,,1,w,HiDemTar,g,1,0.7082530315965414,,,,,,,,,,,,,,,,,,,,338,2023-11-27_13h09.31.817,leap3,2022.2.5,60.47032657580103,
,,,,,,,,,,,,,,,,,,,,9,0,9,0,22,0,22,0,,,,,,butled,nw,h,upper,,,,,,,1,nw,HiDemTar,h,1,12.462890730937943,,,,,,,,,,,,,,,,,,,,338,2023-11-27_13h09.31.817,leap3,2022.2.5,60.47032657580103,
,,,,,,,,,,,,,,,,,,,,9,0,9,0,23,0,23,0,,,,,,porcupine,target,q,upper,,,,,,,1,target,HiDemTar,g,0,0.6579202573047951,1,,,1,,,,,,,,,,,,,,,,338,2023-11-27_13h09.31.817,leap3,2022.2.5,60.47032657580103,
,,,,,,,,,,,,,,,,,,,,9,0,9,0,24,0,24,0,,,,,,digest,w,g,upper,,,,,,,1,aftertar1,HiDemTar,g,1,1.0540190048050135,,,,,,,,,,,,,,,,,,,,338,2023-11-27_13h09.31.817,leap3,2022.2.5,60.47032657580103,
,,,,,,,,,,,,,,,,,,,,9,0,9,0,25,0,25,0,,,,,,riosk,nw,h,upper,,,,,,,1,aftertar2,HiDemTar,h,1,0.8901265320600942,,,,,,,,,,,,,,,,,,,,338,2023-11-27_13h09.31.817,leap3,2022.2.5,60.47032657580103,
,,,,,,,,,,,,,,,,,,,,9,0,9,0,26,0,26,0,,,,,,draze,nw,h,upper,,,,,,,1,aftertar3,HiDemTar,h,1,1.3569883308373392,,,,,,,,,,,,,,,,,,,,338,2023-11-27_13h09.31.817,leap3,2022.2.5,60.47032657580103,
,,,,,,,,,,,,,,,,,,,,9,0,9,0,27,0,27,0,,,,,,loached,nw,h,upper,,,,,,,1,nw,HiDemTar,h,1,0.5089398014824837,,,,,,,,,,,,,,,,,,,,338,2023-11-27_13h09.31.817,leap3,2022.2.5,60.47032657580103,
,,,,,,,,,,,,,,,,,,,,9,0,9,0,28,0,28,0,,,,,,anterior,w,g,upper,,,,,,,1,nw,HiDemTar,g,1,1.1907787051750347,,,,,,,,,,,,,,,,,,,,338,2023-11-27_13h09.31.817,leap3,2022.2.5,60.47032657580103,
,,,,,,,,,,,,,,,,,,,,9,0,9,0,29,0,29,0,,,,,,actual,w,g,upper,,,,,,,1,w,HiDemTar,g,1,0.6135040200315416,,,,,,,,,,,,,,,,,,,,338,2023-11-27_13h09.31.817,leap3,2022.2.5,60.47032657580103,
,,,,,,,,,,,,,,,,,,,,9,0,9,0,,,,,,,,,,,,,,,,,,,,,,,,,,,1,,,,,,,,,,,,,,,,,,338,2023-11-27_13h09.31.817,leap3,2022.2.5,60.47032657580103,
,,,,,,,,,,,,,,,,,,,,10,0,10,0,0,0,0,0,,,,,,frader,nw,h,lower,,,,,,,4,nw,LoDemTar,h,1,0.6434896151768044,,,,,,,,,,,,,,,,,,,,338,2023-11-27_13h09.31.817,leap3,2022.2.5,60.47032657580103,
,,,,,,,,,,,,,,,,,,,,10,0,10,0,1,0,1,0,,,,,,usually,w,g,lower,,,,,,,4,w,LoDemTar,g,1,0.6162922844523564,,,,,,,,,,,,,,,,,,,,338,2023-11-27_13h09.31.817,leap3,2022.2.5,60.47032657580103,
,,,,,,,,,,,,,,,,,,,,10,0,10,0,2,0,2,0,,,,,,border,w,g,lower,,,,,,,4,w,LoDemTar,g,1,0.5029765837825835,,,,,,,,,,,,,,,,,,,,338,2023-11-27_13h09.31.817,leap3,2022.2.5,60.47032657580103,
,,,,,,,,,,,,,,,,,,,,10,0,10,0,3,0,3,0,,,,,,whirlpool,w,g,lower,,,,,,,4,w,LoDemTar,g,1,0.6568936118856072,,,,,,,,,,,,,,,,,,,,338,2023-11-27_13h09.31.817,leap3,2022.2.5,60.47032657580103,
,,,,,,,,,,,,,,,,,,,,10,0,10,0,4,0,4,0,,,,,,bellicove,nw,h,lower,,,,,,,4,nw,LoDemTar,h,1,1.228929458768107,,,,,,,,,,,,,,,,,,,,338,2023-11-27_13h09.31.817,leap3,2022.2.5,60.47032657580103,
,,,,,,,,,,,,,,,,,,,,10,0,10,0,5,0,5,0,,,,,,blocking,w,g,lower,,,,,,,4,w,LoDemTar,g,1,0.8570027323439717,,,,,,,,,,,,,,,,,,,,338,2023-11-27_13h09.31.817,leap3,2022.2.5,60.47032657580103,
,,,,,,,,,,,,,,,,,,,,10,0,10,0,6,0,6,0,,,,,,saturate,w,g,lower,,,,,,,4,w,LoDemTar,g,1,5.55827274674084,,,,,,,,,,,,,,,,,,,,338,2023-11-27_13h09.31.817,leap3,2022.2.5,60.47032657580103,
,,,,,,,,,,,,,,,,,,,,10,0,10,0,7,0,7,0,,,,,,grefab,nw,h,lower,,,,,,,4,nw,LoDemTar,h,1,0.9743799893185496,,,,,,,,,,,,,,,,,,,,338,2023-11-27_13h09.31.817,leap3,2022.2.5,60.47032657580103,
,,,,,,,,,,,,,,,,,,,,10,0,10,0,8,0,8,0,,,,,,horks,nw,h,lower,,,,,,,4,nw,LoDemTar,h,1,7.324791193706915,,,,,,,,,,,,,,,,,,,,338,2023-11-27_13h09.31.817,leap3,2022.2.5,60.47032657580103,
,,,,,,,,,,,,,,,,,,,,10,0,10,0,9,0,9,0,,,,,,dislokes,nw,h,lower,,,,,,,4,nw,LoDemTar,h,1,1.0141036525601521,,,,,,,,,,,,,,,,,,,,338,2023-11-27_13h09.31.817,leap3,2022.2.5,60.47032657580103,
,,,,,,,,,,,,,,,,,,,,10,0,10,0,10,0,10,0,,,,,,gigglod,nw,h,lower,,,,,,,4,nw,LoDemTar,h,1,8.596452965517528,,,,,,,,,,,,,,,,,,,,338,2023-11-27_13h09.31.817,leap3,2022.2.5,60.47032657580103,
,,,,,,,,,,,,,,,,,,,,10,0,10,0,11,0,11,0,,,,,,static,w,g,lower,,,,,,,4,w,LoDemTar,g,1,1.7949170033680275,,,,,,,,,,,,,,,,,,,,338,2023-11-27_13h09.31.817,leap3,2022.2.5,60.47032657580103,
,,,,,,,,,,,,,,,,,,,,10,0,10,0,12,0,12,0,,,,,,nelvet,nw,h,lower,,,,,,,4,nw,LoDemTar,h,1,0.9766206652857363,,,,,,,,,,,,,,,,,,,,338,2023-11-27_13h09.31.817,leap3,2022.2.5,60.47032657580103,
,,,,,,,,,,,,,,,,,,,,10,0,10,0,13,0,13,0,,,,,,suddenly,w,g,lower,,,,,,,4,w,LoDemTar,g,1,0.5120117920450866,,,,,,,,,,,,,,,,,,,,338,2023-11-27_13h09.31.817,leap3,2022.2.5,60.47032657580103,
,,,,,,,,,,,,,,,,,,,,10,0,10,0,14,0,14,0,,,,,,asthmatic,w,g,lower,,,,,,,4,w,LoDemTar,h,0,0.6339386012405157,,,,,,,,,,,,,,,,,,,,338,2023-11-27_13h09.31.817,leap3,2022.2.5,60.47032657580103,
,,,,,,,,,,,,,,,,,,,,10,0,10,0,15,0,15,0,,,,,,huzzles,nw,h,lower,,,,,,,4,nw,LoDemTar,h,1,0.7432109543588012,,,,,,,,,,,,,,,,,,,,338,2023-11-27_13h09.31.817,leap3,2022.2.5,60.47032657580103,
,,,,,,,,,,,,,,,,,,,,10,0,10,0,16,0,16,0,,,,,,ulcer,w,g,lower,,,,,,,4,w,LoDemTar,h,0,0.6477292866911739,,,,,,,,,,,,,,,,,,,,338,2023-11-27_13h09.31.817,leap3,2022.2.5,60.47032657580103,
,,,,,,,,,,,,,,,,,,,,10,0,10,0,17,0,17,0,,,,,,classify,w,g,lower,,,,,,,4,w,LoDemTar,g,1,0.6374250904191285,,,,,,,,,,,,,,,,,,,,338,2023-11-27_13h09.31.817,leap3,2022.2.5,60.47032657580103,
,,,,,,,,,,,,,,,,,,,,10,0,10,0,18,0,18,0,,,,,,fullity,nw,h,lower,,,,,,,4,nw,LoDemTar,h,1,11.792799816001207,,,,,,,,,,,,,,,,,,,,338,2023-11-27_13h09.31.817,leap3,2022.2.5,60.47032657580103,
,,,,,,,,,,,,,,,,,,,,10,0,10,0,19,0,19,0,,,,,,primal,w,g,lower,,,,,,,4,w,LoDemTar,g,1,0.6154377949424088,,,,,,,,,,,,,,,,,,,,338,2023-11-27_13h09.31.817,leap3,2022.2.5,60.47032657580103,
,,,,,,,,,,,,,,,,,,,,10,0,10,0,20,0,20,0,,,,,,brimitar,nw,h,lower,,,,,,,4,nw,LoDemTar,h,1,0.58139693364501,,,,,,,,,,,,,,,,,,,,338,2023-11-27_13h09.31.817,leap3,2022.2.5,60.47032657580103,
,,,,,,,,,,,,,,,,,,,,10,0,10,0,21,0,21,0,,,,,,sefraud,nw,h,lower,,,,,,,4,nw,LoDemTar,h,1,0.5007945070974529,,,,,,,,,,,,,,,,,,,,338,2023-11-27_13h09.31.817,leap3,2022.2.5,60.47032657580103,
,,,,,,,,,,,,,,,,,,,,10,0,10,0,22,0,22,0,,,,,,mitro,nw,h,lower,,,,,,,4,nw,LoDemTar,h,1,0.47957396775018424,,,,,,,,,,,,,,,,,,,,338,2023-11-27_13h09.31.817,leap3,2022.2.5,60.47032657580103,
,,,,,,,,,,,,,,,,,,,,10,0,10,0,23,0,23,0,,,,,,dontrite,nw,h,lower,,,,,,,4,nw,LoDemTar,h,1,0.7549890703521669,,,,,,,,,,,,,,,,,,,,338,2023-11-27_13h09.31.817,leap3,2022.2.5,60.47032657580103,
,,,,,,,,,,,,,,,,,,,,10,0,10,0,24,0,24,0,,,,,,destroy,w,g,lower,,,,,,,4,w,LoDemTar,g,1,8.482419506995939,,,,,,,,,,,,,,,,,,,,338,2023-11-27_13h09.31.817,leap3,2022.2.5,60.47032657580103,
,,,,,,,,,,,,,,,,,,,,10,0,10,0,25,0,25,0,,,,,,couple,w,g,lower,,,,,,,4,w,LoDemTar,g,1,0.6457574388477951,,,,,,,,,,,,,,,,,,,,338,2023-11-27_13h09.31.817,leap3,2022.2.5,60.47032657580103,
,,,,,,,,,,,,,,,,,,,,10,0,10,0,26,0,26,0,,,,,,innocent,w,g,lower,,,,,,,4,w,LoDemTar,g,1,13.298102385131642,,,,,,,,,,,,,,,,,,,,338,2023-11-27_13h09.31.817,leap3,2022.2.5,60.47032657580103,
,,,,,,,,,,,,,,,,,,,,10,0,10,0,27,0,27,0,,,,,,beartiset,nw,h,lower,,,,,,,4,nw,LoDemTar,h,1,0.7958820699714124,,,,,,,,,,,,,,,,,,,,338,2023-11-27_13h09.31.817,leap3,2022.2.5,60.47032657580103,
,,,,,,,,,,,,,,,,,,,,10,0,10,0,28,0,28,0,,,,,,coyote,target,q,lower,,,,,,,4,target,LoDemTar,g,0,0.7794213116867468,1,,,1,,,,,,,,,,,,,,,,338,2023-11-27_13h09.31.817,leap3,2022.2.5,60.47032657580103,
,,,,,,,,,,,,,,,,,,,,10,0,10,0,29,0,29,0,,,,,,marinate,w,g,lower,,,,,,,4,aftertar1,LoDemTar,g,1,0.8341473734471947,,,,,,,,,,,,,,,,,,,,338,2023-11-27_13h09.31.817,leap3,2022.2.5,60.47032657580103,
,,,,,,,,,,,,,,,,,,,,10,0,10,0,,,,,,,,,,,,,,,,,,,,,,,,,,,1,,,,,,,,,,,,,,,,,,338,2023-11-27_13h09.31.817,leap3,2022.2.5,60.47032657580103,
,,,,,,,,,,,,,,,,,,,,11,0,11,0,0,0,0,0,,,,,,hivinity,nw,h,upper,,,,,,,1,nw,HiDemTar,h,1,0.7356092755217105,,,,,,,,,,,,,,,,,,,,338,2023-11-27_13h09.31.817,leap3,2022.2.5,60.47032657580103,
,,,,,,,,,,,,,,,,,,,,11,0,11,0,1,0,1,0,,,,,,apop,nw,h,upper,,,,,,,1,nw,HiDemTar,h,1,18.36883630254306,,,,,,,,,,,,,,,,,,,,338,2023-11-27_13h09.31.817,leap3,2022.2.5,60.47032657580103,
,,,,,,,,,,,,,,,,,,,,11,0,11,0,2,0,2,0,,,,,,buzzer,w,g,upper,,,,,,,1,w,HiDemTar,g,1,0.5688209409127012,,,,,,,,,,,,,,,,,,,,338,2023-11-27_13h09.31.817,leap3,2022.2.5,60.47032657580103,
,,,,,,,,,,,,,,,,,,,,11,0,11,0,3,0,3,0,,,,,,binder,w,g,upper,,,,,,,1,w,HiDemTar,g,1,0.544905498623848,,,,,,,,,,,,,,,,,,,,338,2023-11-27_13h09.31.817,leap3,2022.2.5,60.47032657580103,
,,,,,,,,,,,,,,,,,,,,11,0,11,0,4,0,4,0,,,,,,absent,w,g,upper,,,,,,,1,w,HiDemTar,g,1,0.5044915562029928,,,,,,,,,,,,,,,,,,,,338,2023-11-27_13h09.31.817,leap3,2022.2.5,60.47032657580103,
,,,,,,,,,,,,,,,,,,,,11,0,11,0,5,0,5,0,,,,,,duries,nw,h,upper,,,,,,,1,nw,HiDemTar,h,1,0.7229518397944048,,,,,,,,,,,,,,,,,,,,338,2023-11-27_13h09.31.817,leap3,2022.2.5,60.47032657580103,
,,,,,,,,,,,,,,,,,,,,11,0,11,0,6,0,6,0,,,,,,violate,w,g,upper,,,,,,,1,w,HiDemTar,g,1,0.6520911229308695,,,,,,,,,,,,,,,,,,,,338,2023-11-27_13h09.31.817,leap3,2022.2.5,60.47032657580103,
,,,,,,,,,,,,,,,,,,,,11,0,11,0,7,0,7,0,,,,,,brother,w,g,upper,,,,,,,1,w,HiDemTar,g,1,0.5208152518607676,,,,,,,,,,,,,,,,,,,,338,2023-11-27_13h09.31.817,leap3,2022.2.5,60.47032657580103,
,,,,,,,,,,,,,,,,,,,,11,0,11,0,8,0,8,0,,,,,,gensions,nw,h,upper,,,,,,,1,nw,HiDemTar,g,0,0.5541396795306355,,,,,,,,,,,,,,,,,,,,338,2023-11-27_13h09.31.817,leap3,2022.2.5,60.47032657580103,
,,,,,,,,,,,,,,,,,,,,11,0,11,0,9,0,9,0,,,,,,urgency,w,g,upper,,,,,,,1,w,HiDemTar,g,1,17.425988439121284,,,,,,,,,,,,,,,,,,,,338,2023-11-27_13h09.31.817,leap3,2022.2.5,60.47032657580103,
,,,,,,,,,,,,,,,,,,,,11,0,11,0,10,0,10,0,,,,,,currowing,nw,h,upper,,,,,,,1,nw,HiDemTar,h,1,0.8074042695807293,,,,,,,,,,,,,,,,,,,,338,2023-11-27_13h09.31.817,leap3,2022.2.5,60.47032657580103,
,,,,,,,,,,,,,,,,,,,,11,0,11,0,11,0,11,0,,,,,,aefated,nw,h,upper,,,,,,,1,nw,HiDemTar,h,1,0.5495149744674563,,,,,,,,,,,,,,,,,,,,338,2023-11-27_13h09.31.817,leap3,2022.2.5,60.47032657580103,
,,,,,,,,,,,,,,,,,,,,11,0,11,0,12,0,12,0,,,,,,other,w,g,upper,,,,,,,1,w,HiDemTar,g,1,0.6051994813606143,,,,,,,,,,,,,,,,,,,,338,2023-11-27_13h09.31.817,leap3,2022.2.5,60.47032657580103,
,,,,,,,,,,,,,,,,,,,,11,0,11,0,13,0,13,0,,,,,,slutches,nw,h,upper,,,,,,,1,nw,HiDemTar,h,1,0.8432590586598963,,,,,,,,,,,,,,,,,,,,338,2023-11-27_13h09.31.817,leap3,2022.2.5,60.47032657580103,
,,,,,,,,,,,,,,,,,,,,11,0,11,0,14,0,14,0,,,,,,elephant,target,q,upper,,,,,,,1,target,HiDemTar,q,1,0.5440437257057056,1,,,,,,,,,,,,,,,,,,,338,2023-11-27_13h09.31.817,leap3,2022.2.5,60.47032657580103,
,,,,,,,,,,,,,,,,,,,,11,0,11,0,15,0,15,0,,,,,,undue,w,g,upper,,,,,,,1,aftertar1,HiDemTar,g,1,0.7528000412276015,,,,,,,,,,,,,,,,,,,,338,2023-11-27_13h09.31.817,leap3,2022.2.5,60.47032657580103,
,,,,,,,,,,,,,,,,,,,,11,0,11,0,16,0,16,0,,,,,,pleamed,nw,h,upper,,,,,,,1,aftertar2,HiDemTar,h,1,0.896828033728525,,,,,,,,,,,,,,,,,,,,338,2023-11-27_13h09.31.817,leap3,2022.2.5,60.47032657580103,
,,,,,,,,,,,,,,,,,,,,11,0,11,0,17,0,17,0,,,,,,unsmilung,nw,h,upper,,,,,,,1,aftertar3,HiDemTar,h,1,7.226911261328496,,,,,,,,,,,,,,,,,,,,338,2023-11-27_13h09.31.817,leap3,2022.2.5,60.47032657580103,
,,,,,,,,,,,,,,,,,,,,11,0,11,0,18,0,18,0,,,,,,otiates,nw,h,upper,,,,,,,1,nw,HiDemTar,h,1,0.84810524887871,,,,,,,,,,,,,,,,,,,,338,2023-11-27_13h09.31.817,leap3,2022.2.5,60.47032657580103,
,,,,,,,,,,,,,,,,,,,,11,0,11,0,19,0,19,0,,,,,,oginous,nw,h,upper,,,,,,,1,nw,HiDemTar,h,1,0.5407724312972277,,,,,,,,,,,,,,,,,,,,338,2023-11-27_13h09.31.817,leap3,2022.2.5,60.47032657580103,
,,,,,,,,,,,,,,,,,,,,11,0,11,0,20,0,20,0,,,,,,target,w,g,upper,,,,,,,1,nw,HiDemTar,g,1,0.5414951553102583,,,,,,,,,,,,,,,,,,,,338,2023-11-27_13h09.31.817,leap3,2022.2.5,60.47032657580103,
,,,,,,,,,,,,,,,,,,,,11,0,11,0,21,0,21,0,,,,,,ofsters,nw,h,upper,,,,,,,1,w,HiDemTar,h,1,1.0542633337900043,,,,,,,,,,,,,,,,,,,,338,2023-11-27_13h09.31.817,leap3,2022.2.5,60.47032657580103,
,,,,,,,,,,,,,,,,,,,,11,0,11,0,22,0,22,0,,,,,,minimum,w,g,upper,,,,,,,1,nw,HiDemTar,g,1,0.6502142917597666,,,,,,,,,,,,,,,,,,,,338,2023-11-27_13h09.31.817,leap3,2022.2.5,60.47032657580103,
,,,,,,,,,,,,,,,,,,,,11,0,11,0,23,0,23,0,,,,,,preclude,w,g,upper,,,,,,,1,w,HiDemTar,g,1,0.7746549091534689,,,,,,,,,,,,,,,,,,,,338,2023-11-27_13h09.31.817,leap3,2022.2.5,60.47032657580103,
,,,,,,,,,,,,,,,,,,,,11,0,11,0,24,0,24,0,,,,,,exploit,w,g,upper,,,,,,,1,w,HiDemTar,g,1,6.597076699719764,,,,,,,,,,,,,,,,,,,,338,2023-11-27_13h09.31.817,leap3,2022.2.5,60.47032657580103,
,,,,,,,,,,,,,,,,,,,,11,0,11,0,25,0,25,0,,,,,,brouhuha,nw,h,upper,,,,,,,1,w,HiDemTar,h,1,1.7885260443435982,,,,,,,,,,,,,,,,,,,,338,2023-11-27_13h09.31.817,leap3,2022.2.5,60.47032657580103,
,,,,,,,,,,,,,,,,,,,,11,0,11,0,26,0,26,0,,,,,,handcuff,w,g,upper,,,,,,,1,nw,HiDemTar,g,1,0.5472345701418817,,,,,,,,,,,,,,,,,,,,338,2023-11-27_13h09.31.817,leap3,2022.2.5,60.47032657580103,
,,,,,,,,,,,,,,,,,,,,11,0,11,0,27,0,27,0,,,,,,moral,w,g,upper,,,,,,,1,w,HiDemTar,h,0,0.5079710930585861,,,,,,,,,,,,,,,,,,,,338,2023-11-27_13h09.31.817,leap3,2022.2.5,60.47032657580103,
,,,,,,,,,,,,,,,,,,,,11,0,11,0,28,0,28,0,,,,,,outflow,w,g,upper,,,,,,,1,w,HiDemTar,g,1,0.7020305867772549,,,,,,,,,,,,,,,,,,,,338,2023-11-27_13h09.31.817,leap3,2022.2.5,60.47032657580103,
,,,,,,,,,,,,,,,,,,,,11,0,11,0,29,0,29,0,,,,,,chyme,nw,h,upper,,,,,,,1,w,HiDemTar,h,1,0.6885703083826229,,,,,,,,,,,,,,,,,,,,338,2023-11-27_13h09.31.817,leap3,2022.2.5,60.47032657580103,
,,,,,,,,,,,,,,,,,,,,11,0,11,0,,,,,,,,,,,,,,,,,,,,,,,,,,,1,,,,,,,,,,,,,,,,,,338,2023-11-27_13h09.31.817,leap3,2022.2.5,60.47032657580103,
,,,,,,,,,,,,,,,,,,,,12,0,12,0,0,0,0,0,,,,,,roaned,nw,h,upper,,,,,,,2,nw,HiDemNoTar,h,1,3.491393798496574,,,,,,,,,,,,,,,,,,,,338,2023-11-27_13h09.31.817,leap3,2022.2.5,60.47032657580103,
,,,,,,,,,,,,,,,,,,,,12,0,12,0,1,0,1,0,,,,,,planar,w,g,upper,,,,,,,2,w,HiDemNoTar,h,0,1.2061876567313448,,,,,,,,,,,,,,,,,,,,338,2023-11-27_13h09.31.817,leap3,2022.2.5,60.47032657580103,
,,,,,,,,,,,,,,,,,,,,12,0,12,0,2,0,2,0,,,,,,scarlet,w,g,upper,,,,,,,2,w,HiDemNoTar,g,1,1.3482044041156769,,,,,,,,,,,,,,,,,,,,338,2023-11-27_13h09.31.817,leap3,2022.2.5,60.47032657580103,
,,,,,,,,,,,,,,,,,,,,12,0,12,0,3,0,3,0,,,,,,erithets,nw,h,upper,,,,,,,2,nw,HiDemNoTar,h,1,0.861088456818834,,,,,,,,,,,,,,,,,,,,338,2023-11-27_13h09.31.817,leap3,2022.2.5,60.47032657580103,
,,,,,,,,,,,,,,,,,,,,12,0,12,0,4,0,4,0,,,,,,rationale,w,g,upper,,,,,,,2,w,HiDemNoTar,g,1,0.7360625092405826,,,,,,,,,,,,,,,,,,,,338,2023-11-27_13h09.31.817,leap3,2022.2.5,60.47032657580103,
,,,,,,,,,,,,,,,,,,,,12,0,12,0,5,0,5,0,,,,,,hecture,nw,h,upper,,,,,,,2,nw,HiDemNoTar,h,1,2.104783824062906,,,,,,,,,,,,,,,,,,,,338,2023-11-27_13h09.31.817,leap3,2022.2.5,60.47032657580103,
,,,,,,,,,,,,,,,,,,,,12,0,12,0,6,0,6,0,,,,,,runabouk,nw,h,upper,,,,,,,2,nw,HiDemNoTar,h,1,0.9388340876903385,,,,,,,,,,,,,,,,,,,,338,2023-11-27_13h09.31.817,leap3,2022.2.5,60.47032657580103,
,,,,,,,,,,,,,,,,,,,,12,0,12,0,7,0,7,0,,,,,,efcorted,nw,h,upper,,,,,,,2,nw,HiDemNoTar,h,1,0.7235239272704348,,,,,,,,,,,,,,,,,,,,338,2023-11-27_13h09.31.817,leap3,2022.2.5,60.47032657580103,
,,,,,,,,,,,,,,,,,,,,12,0,12,0,8,0,8,0,,,,,,sazer,nw,h,upper,,,,,,,2,nw,HiDemNoTar,h,1,0.6290020291926339,,,,,,,,,,,,,,,,,,,,338,2023-11-27_13h09.31.817,leap3,2022.2.5,60.47032657580103,
,,,,,,,,,,,,,,,,,,,,12,0,12,0,9,0,9,0,,,,,,erony,nw,h,upper,,,,,,,2,nw,HiDemNoTar,h,1,0.4663202763767913,,,,,,,,,,,,,,,,,,,,338,2023-11-27_13h09.31.817,leap3,2022.2.5,60.47032657580103,
,,,,,,,,,,,,,,,,,,,,12,0,12,0,10,0,10,0,,,,,,splatter,w,g,upper,,,,,,,2,w,HiDemNoTar,g,1,0.7904085036134347,,,,,,,,,,,,,,,,,,,,338,2023-11-27_13h09.31.817,leap3,2022.2.5,60.47032657580103,
,,,,,,,,,,,,,,,,,,,,12,0,12,0,11,0,11,0,,,,,,student,w,g,upper,,,,,,,2,w,HiDemNoTar,g,1,0.7172723484691232,,,,,,,,,,,,,,,,,,,,338,2023-11-27_13h09.31.817,leap3,2022.2.5,60.47032657580103,
,,,,,,,,,,,,,,,,,,,,12,0,12,0,12,0,12,0,,,,,,addma,nw,h,upper,,,,,,,2,nw,HiDemNoTar,h,1,0.5504770614206791,,,,,,,,,,,,,,,,,,,,338,2023-11-27_13h09.31.817,leap3,2022.2.5,60.47032657580103,
,,,,,,,,,,,,,,,,,,,,12,0,12,0,13,0,13,0,,,,,,publish,w,g,upper,,,,,,,2,w,HiDemNoTar,g,1,0.4310746544506401,,,,,,,,,,,,,,,,,,,,338,2023-11-27_13h09.31.817,leap3,2022.2.5,60.47032657580103,
,,,,,,,,,,,,,,,,,,,,12,0,12,0,14,0,14,0,,,,,,menarthe,nw,h,upper,,,,,,,2,nw,HiDemNoTar,h,1,0.5324063139269128,,,,,,,,,,,,,,,,,,,,338,2023-11-27_13h09.31.817,leap3,2022.2.5,60.47032657580103,
,,,,,,,,,,,,,,,,,,,,12,0,12,0,15,0,15,0,,,,,,purpose,w,g,upper,,,,,,,2,w,HiDemNoTar,g,1,0.4537366689182818,,,,,,,,,,,,,,,,,,,,338,2023-11-27_13h09.31.817,leap3,2022.2.5,60.47032657580103,
,,,,,,,,,,,,,,,,,,,,12,0,12,0,16,0,16,0,,,,,,peahem,nw,h,upper,,,,,,,2,nw,HiDemNoTar,h,1,0.6017775506479666,,,,,,,,,,,,,,,,,,,,338,2023-11-27_13h09.31.817,leap3,2022.2.5,60.47032657580103,
,,,,,,,,,,,,,,,,,,,,12,0,12,0,17,0,17,0,,,,,,ilcurring,nw,h,upper,,,,,,,2,nw,HiDemNoTar,g,0,0.5758962198160589,,,,,,,,,,,,,,,,,,,,338,2023-11-27_13h09.31.817,leap3,2022.2.5,60.47032657580103,
,,,,,,,,,,,,,,,,,,,,12,0,12,0,18,0,18,0,,,,,,summon,w,g,upper,,,,,,,2,w,HiDemNoTar,g,1,0.5753019506810233,,,,,,,,,,,,,,,,,,,,338,2023-11-27_13h09.31.817,leap3,2022.2.5,60.47032657580103,
,,,,,,,,,,,,,,,,,,,,12,0,12,0,19,0,19,0,,,,,,standard,w,g,upper,,,,,,,2,w,HiDemNoTar,g,1,0.5506750406930223,,,,,,,,,,,,,,,,,,,,338,2023-11-27_13h09.31.817,leap3,2022.2.5,60.47032657580103,
,,,,,,,,,,,,,,,,,,,,12,0,12,0,20,0,20,0,,,,,,fonducts,nw,h,upper,,,,,,,2,nw,HiDemNoTar,h,1,0.9267831705510616,,,,,,,,,,,,,,,,,,,,338,2023-11-27_13h09.31.817,leap3,2022.2.5,60.47032657580103,
,,,,,,,,,,,,,,,,,,,,12,0,12,0,21,0,21,0,,,,,,surround,w,g,upper,,,,,,,2,w,HiDemNoTar,g,1,0.6472171228379011,,,,,,,,,,,,,,,,,,,,338,2023-11-27_13h09.31.817,leap3,2022.2.5,60.47032657580103,
,,,,,,,,,,,,,,,,,,,,12,0,12,0,22,0,22,0,,,,,,disuse,w,g,upper,,,,,,,2,w,HiDemNoTar,g,1,1.4039597599767148,,,,,,,,,,,,,,,,,,,,338,2023-11-27_13h09.31.817,leap3,2022.2.5,60.47032657580103,
,,,,,,,,,,,,,,,,,,,,12,0,12,0,23,0,23,0,,,,,,integral,w,g,upper,,,,,,,2,w,HiDemNoTar,g,1,0.6256373734213412,,,,,,,,,,,,,,,,,,,,338,2023-11-27_13h09.31.817,leap3,2022.2.5,60.47032657580103,
,,,,,,,,,,,,,,,,,,,,12,0,12,0,24,0,24,0,,,,,,disease,w,g,upper,,,,,,,2,w,HiDemNoTar,g,1,0.6235112473368645,,,,,,,,,,,,,,,,,,,,338,2023-11-27_13h09.31.817,leap3,2022.2.5,60.47032657580103,
,,,,,,,,,,,,,,,,,,,,12,0,12,0,25,0,25,0,,,,,,cogantly,nw,h,upper,,,,,,,2,nw,HiDemNoTar,h,1,0.6608568407827988,,,,,,,,,,,,,,,,,,,,338,2023-11-27_13h09.31.817,leap3,2022.2.5,60.47032657580103,
,,,,,,,,,,,,,,,,,,,,12,0,12,0,26,0,26,0,,,,,,supplier,w,g,upper,,,,,,,2,w,HiDemNoTar,g,1,0.5529051225166768,,,,,,,,,,,,,,,,,,,,338,2023-11-27_13h09.31.817,leap3,2022.2.5,60.47032657580103,
,,,,,,,,,,,,,,,,,,,,12,0,12,0,27,0,27,0,,,,,,reconcile,w,g,upper,,,,,,,2,w,HiDemNoTar,g,1,0.6490207875613123,,,,,,,,,,,,,,,,,,,,338,2023-11-27_13h09.31.817,leap3,2022.2.5,60.47032657580103,
,,,,,,,,,,,,,,,,,,,,12,0,12,0,28,0,28,0,,,,,,senalize,nw,h,upper,,,,,,,2,nw,HiDemNoTar,h,1,0.6457253250991926,,,,,,,,,,,,,,,,,,,,338,2023-11-27_13h09.31.817,leap3,2022.2.5,60.47032657580103,
,,,,,,,,,,,,,,,,,,,,12,0,12,0,29,0,29,0,,,,,,daining,nw,h,upper,,,,,,,2,nw,HiDemNoTar,h,1,0.778479088912718,,,,,,,,,,,,,,,,,,,,338,2023-11-27_13h09.31.817,leap3,2022.2.5,60.47032657580103,
,,,,,,,,,,,,,,,,,,,,12,0,12,0,,,,,,,,,,,,,,,,,,,,,,,,,,,NA,,,,,,,,,,,,,,,,,,338,2023-11-27_13h09.31.817,leap3,2022.2.5,60.47032657580103,
,,,,,,,,,,,,,,,,,,,,13,0,13,0,0,0,0,0,,,,,,disperse,w,g,lower,,,,,,,3,w,LoDemNoTar,g,1,0.9937723648035899,,,,,,,,,,,,,,,,,,,,338,2023-11-27_13h09.31.817,leap3,2022.2.5,60.47032657580103,
,,,,,,,,,,,,,,,,,,,,13,0,13,0,1,0,1,0,,,,,,offonents,nw,h,lower,,,,,,,3,nw,LoDemNoTar,h,1,1.216457752743736,,,,,,,,,,,,,,,,,,,,338,2023-11-27_13h09.31.817,leap3,2022.2.5,60.47032657580103,
,,,,,,,,,,,,,,,,,,,,13,0,13,0,2,0,2,0,,,,,,prillway,nw,h,lower,,,,,,,3,nw,LoDemNoTar,h,1,0.686654080171138,,,,,,,,,,,,,,,,,,,,338,2023-11-27_13h09.31.817,leap3,2022.2.5,60.47032657580103,
,,,,,,,,,,,,,,,,,,,,13,0,13,0,3,0,3,0,,,,,,inducing,w,g,lower,,,,,,,3,w,LoDemNoTar,g,1,0.928848379990086,,,,,,,,,,,,,,,,,,,,338,2023-11-27_13h09.31.817,leap3,2022.2.5,60.47032657580103,
,,,,,,,,,,,,,,,,,,,,13,0,13,0,4,0,4,0,,,,,,uncorked,w,g,lower,,,,,,,3,w,LoDemNoTar,h,0,0.7459194310940802,,,,,,,,,,,,,,,,,,,,338,2023-11-27_13h09.31.817,leap3,2022.2.5,60.47032657580103,
,,,,,,,,,,,,,,,,,,,,13,0,13,0,5,0,5,0,,,,,,grenavier,nw,h,lower,,,,,,,3,nw,LoDemNoTar,h,1,2.979221213492565,,,,,,,,,,,,,,,,,,,,338,2023-11-27_13h09.31.817,leap3,2022.2.5,60.47032657580103,
,,,,,,,,,,,,,,,,,,,,13,0,13,0,6,0,6,0,,,,,,fetching,w,g,lower,,,,,,,3,w,LoDemNoTar,g,1,0.7786717710550874,,,,,,,,,,,,,,,,,,,,338,2023-11-27_13h09.31.817,leap3,2022.2.5,60.47032657580103,
,,,,,,,,,,,,,,,,,,,,13,0,13,0,7,0,7,0,,,,,,asclibed,nw,h,lower,,,,,,,3,nw,LoDemNoTar,h,1,0.7060679751448333,,,,,,,,,,,,,,,,,,,,338,2023-11-27_13h09.31.817,leap3,2022.2.5,60.47032657580103,
,,,,,,,,,,,,,,,,,,,,13,0,13,0,8,0,8,0,,,,,,company,w,g,lower,,,,,,,3,w,LoDemNoTar,g,1,0.6201992315473035,,,,,,,,,,,,,,,,,,,,338,2023-11-27_13h09.31.817,leap3,2022.2.5,60.47032657580103,
,,,,,,,,,,,,,,,,,,,,13,0,13,0,9,0,9,0,,,,,,railroad,w,g,lower,,,,,,,3,w,LoDemNoTar,g,1,0.9455683652777225,,,,,,,,,,,,,,,,,,,,338,2023-11-27_13h09.31.817,leap3,2022.2.5,60.47032657580103,
,,,,,,,,,,,,,,,,,,,,13,0,13,0,10,0,10,0,,,,,,scrobby,nw,h,lower,,,,,,,3,nw,LoDemNoTar,h,1,0.8104070668341592,,,,,,,,,,,,,,,,,,,,338,2023-11-27_13h09.31.817,leap3,2022.2.5,60.47032657580103,
,,,,,,,,,,,,,,,,,,,,13,0,13,0,11,0,11,0,,,,,,deakers,nw,h,lower,,,,,,,3,nw,LoDemNoTar,h,1,0.7043629690306261,,,,,,,,,,,,,,,,,,,,338,2023-11-27_13h09.31.817,leap3,2022.2.5,60.47032657580103,
,,,,,,,,,,,,,,,,,,,,13,0,13,0,12,0,12,0,,,,,,gumdrep,nw,h,lower,,,,,,,3,nw,LoDemNoTar,h,1,0.9214330930262804,,,,,,,,,,,,,,,,,,,,338,2023-11-27_13h09.31.817,leap3,2022.2.5,60.47032657580103,
,,,,,,,,,,,,,,,,,,,,13,0,13,0,13,0,13,0,,,,,,pretzel,w,g,lower,,,,,,,3,w,LoDemNoTar,g,1,0.586896323482506,,,,,,,,,,,,,,,,,,,,338,2023-11-27_13h09.31.817,leap3,2022.2.5,60.47032657580103,
,,,,,,,,,,,,,,,,,,,,13,0,13,0,14,0,14,0,,,,,,apology,w,g,lower,,,,,,,3,w,LoDemNoTar,g,1,0.5935829270165414,,,,,,,,,,,,,,,,,,,,338,2023-11-27_13h09.31.817,leap3,2022.2.5,60.47032657580103,
,,,,,,,,,,,,,,,,,,,,13,0,13,0,15,0,15,0,,,,,,tenpince,nw,h,lower,,,,,,,3,nw,LoDemNoTar,h,1,0.7363240538397804,,,,,,,,,,,,,,,,,,,,338,2023-11-27_13h09.31.817,leap3,2022.2.5,60.47032657580103,
,,,,,,,,,,,,,,,,,,,,13,0,13,0,16,0,16,0,,,,,,attrove,nw,h,lower,,,,,,,3,nw,LoDemNoTar,h,1,1.0651598126860335,,,,,,,,,,,,,,,,,,,,338,2023-11-27_13h09.31.817,leap3,2022.2.5,60.47032657580103,
,,,,,,,,,,,,,,,,,,,,13,0,13,0,17,0,17,0,,,,,,checkout,w,g,lower,,,,,,,3,w,LoDemNoTar,g,1,0.6129491481697187,,,,,,,,,,,,,,,,,,,,338,2023-11-27_13h09.31.817,leap3,2022.2.5,60.47032657580103,
,,,,,,,,,,,,,,,,,,,,13,0,13,0,18,0,18,0,,,,,,sording,nw,h,lower,,,,,,,3,nw,LoDemNoTar,h,1,0.6512376265600324,,,,,,,,,,,,,,,,,,,,338,2023-11-27_13h09.31.817,leap3,2022.2.5,60.47032657580103,
,,,,,,,,,,,,,,,,,,,,13,0,13,0,19,0,19,0,,,,,,snife,nw,h,lower,,,,,,,3,nw,LoDemNoTar,h,1,0.7593105160631239,,,,,,,,,,,,,,,,,,,,338,2023-11-27_13h09.31.817,leap3,2022.2.5,60.47032657580103,
,,,,,,,,,,,,,,,,,,,,13,0,13,0,20,0,20,0,,,,,,number,w,g,lower,,,,,,,3,w,LoDemNoTar,g,1,0.5353591196471825,,,,,,,,,,,,,,,,,,,,338,2023-11-27_13h09.31.817,leap3,2022.2.5,60.47032657580103,
,,,,,,,,,,,,,,,,,,,,13,0,13,0,21,0,21,0,,,,,,peanimate,nw,h,lower,,,,,,,3,nw,LoDemNoTar,h,1,1.5991942180553451,,,,,,,,,,,,,,,,,,,,338,2023-11-27_13h09.31.817,leap3,2022.2.5,60.47032657580103,
,,,,,,,,,,,,,,,,,,,,13,0,13,0,22,0,22,0,,,,,,turntable,w,g,lower,,,,,,,3,w,LoDemNoTar,g,1,0.8298342045163736,,,,,,,,,,,,,,,,,,,,338,2023-11-27_13h09.31.817,leap3,2022.2.5,60.47032657580103,
,,,,,,,,,,,,,,,,,,,,13,0,13,0,23,0,23,0,,,,,,revising,w,g,lower,,,,,,,3,w,LoDemNoTar,g,1,0.4832448624074459,,,,,,,,,,,,,,,,,,,,338,2023-11-27_13h09.31.817,leap3,2022.2.5,60.47032657580103,
,,,,,,,,,,,,,,,,,,,,13,0,13,0,24,0,24,0,,,,,,latpin,nw,h,lower,,,,,,,3,nw,LoDemNoTar,h,1,0.8227552839089185,,,,,,,,,,,,,,,,,,,,338,2023-11-27_13h09.31.817,leap3,2022.2.5,60.47032657580103,
,,,,,,,,,,,,,,,,,,,,13,0,13,0,25,0,25,0,,,,,,massacre,w,g,lower,,,,,,,3,w,LoDemNoTar,g,1,0.7880095764994621,,,,,,,,,,,,,,,,,,,,338,2023-11-27_13h09.31.817,leap3,2022.2.5,60.47032657580103,
,,,,,,,,,,,,,,,,,,,,13,0,13,0,26,0,26,0,,,,,,vibrate,w,g,lower,,,,,,,3,w,LoDemNoTar,g,1,0.5467909374274313,,,,,,,,,,,,,,,,,,,,338,2023-11-27_13h09.31.817,leap3,2022.2.5,60.47032657580103,
,,,,,,,,,,,,,,,,,,,,13,0,13,0,27,0,27,0,,,,,,spiud,nw,h,lower,,,,,,,3,nw,LoDemNoTar,h,1,0.6442563714226708,,,,,,,,,,,,,,,,,,,,338,2023-11-27_13h09.31.817,leap3,2022.2.5,60.47032657580103,
,,,,,,,,,,,,,,,,,,,,13,0,13,0,28,0,28,0,,,,,,emergence,w,g,lower,,,,,,,3,w,LoDemNoTar,g,1,2.2712890945840627,,,,,,,,,,,,,,,,,,,,338,2023-11-27_13h09.31.817,leap3,2022.2.5,60.47032657580103,
,,,,,,,,,,,,,,,,,,,,13,0,13,0,29,0,29,0,,,,,,legalosm,nw,h,lower,,,,,,,3,nw,LoDemNoTar,h,1,0.6992737740511075,,,,,,,,,,,,,,,,,,,,338,2023-11-27_13h09.31.817,leap3,2022.2.5,60.47032657580103,
,,,,,,,,,,,,,,,,,,,,13,0,13,0,,,,,,,,,,,,,,,,,,,,,,,,,,,NA,,,,,,,,,,,,,,,,,,338,2023-11-27_13h09.31.817,leap3,2022.2.5,60.47032657580103,
,,,,,,,,,,,,,,,,,,,,14,0,14,0,0,0,0,0,,,,,,seartfelt,nw,h,lower,,,,,,,3,nw,LoDemNoTar,h,1,0.9343573707155883,,,,,,,,,,,,,,,,,,,,338,2023-11-27_13h09.31.817,leap3,2022.2.5,60.47032657580103,
,,,,,,,,,,,,,,,,,,,,14,0,14,0,1,0,1,0,,,,,,typical,w,g,lower,,,,,,,3,w,LoDemNoTar,g,1,0.5431154078105465,,,,,,,,,,,,,,,,,,,,338,2023-11-27_13h09.31.817,leap3,2022.2.5,60.47032657580103,
,,,,,,,,,,,,,,,,,,,,14,0,14,0,2,0,2,0,,,,,,chesume,nw,h,lower,,,,,,,3,nw,LoDemNoTar,h,1,0.751843913574703,,,,,,,,,,,,,,,,,,,,338,2023-11-27_13h09.31.817,leap3,2022.2.5,60.47032657580103,
,,,,,,,,,,,,,,,,,,,,14,0,14,0,3,0,3,0,,,,,,facienda,nw,h,lower,,,,,,,3,nw,LoDemNoTar,h,1,0.5832227801438421,,,,,,,,,,,,,,,,,,,,338,2023-11-27_13h09.31.817,leap3,2022.2.5,60.47032657580103,
,,,,,,,,,,,,,,,,,,,,14,0,14,0,4,0,4,0,,,,,,funtair,nw,h,lower,,,,,,,3,nw,LoDemNoTar,h,1,0.8703666697256267,,,,,,,,,,,,,,,,,,,,338,2023-11-27_13h09.31.817,leap3,2022.2.5,60.47032657580103,
,,,,,,,,,,,,,,,,,,,,14,0,14,0,5,0,5,0,,,,,,odacles,nw,h,lower,,,,,,,3,nw,LoDemNoTar,h,1,0.537806382868439,,,,,,,,,,,,,,,,,,,,338,2023-11-27_13h09.31.817,leap3,2022.2.5,60.47032657580103,
,,,,,,,,,,,,,,,,,,,,14,0,14,0,6,0,6,0,,,,,,trophy,w,g,lower,,,,,,,3,w,LoDemNoTar,h,0,0.787387166521512,,,,,,,,,,,,,,,,,,,,338,2023-11-27_13h09.31.817,leap3,2022.2.5,60.47032657580103,
,,,,,,,,,,,,,,,,,,,,14,0,14,0,7,0,7,0,,,,,,illness,w,g,lower,,,,,,,3,w,LoDemNoTar,g,1,0.48994901264086366,,,,,,,,,,,,,,,,,,,,338,2023-11-27_13h09.31.817,leap3,2022.2.5,60.47032657580103,
,,,,,,,,,,,,,,,,,,,,14,0,14,0,8,0,8,0,,,,,,geborn,nw,h,lower,,,,,,,3,nw,LoDemNoTar,h,1,0.580637130071409,,,,,,,,,,,,,,,,,,,,338,2023-11-27_13h09.31.817,leap3,2022.2.5,60.47032657580103,
,,,,,,,,,,,,,,,,,,,,14,0,14,0,9,0,9,0,,,,,,terrify,w,g,lower,,,,,,,3,w,LoDemNoTar,g,1,0.5560367057332769,,,,,,,,,,,,,,,,,,,,338,2023-11-27_13h09.31.817,leap3,2022.2.5,60.47032657580103,
,,,,,,,,,,,,,,,,,,,,14,0,14,0,10,0,10,0,,,,,,slooping,nw,h,lower,,,,,,,3,nw,LoDemNoTar,h,1,1.1161500902380794,,,,,,,,,,,,,,,,,,,,338,2023-11-27_13h09.31.817,leap3,2022.2.5,60.47032657580103,
,,,,,,,,,,,,,,,,,,,,14,0,14,0,11,0,11,0,,,,,,etuip,nw,h,lower,,,,,,,3,nw,LoDemNoTar,h,1,0.6540970709174871,,,,,,,,,,,,,,,,,,,,338,2023-11-27_13h09.31.817,leap3,2022.2.5,60.47032657580103,
,,,,,,,,,,,,,,,,,,,,14,0,14,0,12,0,12,0,,,,,,religious,w,g,lower,,,,,,,3,w,LoDemNoTar,g,1,0.6333112252177671,,,,,,,,,,,,,,,,,,,,338,2023-11-27_13h09.31.817,leap3,2022.2.5,60.47032657580103,
,,,,,,,,,,,,,,,,,,,,14,0,14,0,13,0,13,0,,,,,,observer,w,g,lower,,,,,,,3,w,LoDemNoTar,g,1,1.062605945393443,,,,,,,,,,,,,,,,,,,,338,2023-11-27_13h09.31.817,leap3,2022.2.5,60.47032657580103,
,,,,,,,,,,,,,,,,,,,,14,0,14,0,14,0,14,0,,,,,,lenie,nw,h,lower,,,,,,,3,nw,LoDemNoTar,g,0,0.5465903095901012,,,,,,,,,,,,,,,,,,,,338,2023-11-27_13h09.31.817,leap3,2022.2.5,60.47032657580103,
,,,,,,,,,,,,,,,,,,,,14,0,14,0,15,0,15,0,,,,,,kraums,nw,h,lower,,,,,,,3,nw,LoDemNoTar,h,1,0.7713064757408574,,,,,,,,,,,,,,,,,,,,338,2023-11-27_13h09.31.817,leap3,2022.2.5,60.47032657580103,
,,,,,,,,,,,,,,,,,,,,14,0,14,0,16,0,16,0,,,,,,grieving,w,g,lower,,,,,,,3,w,LoDemNoTar,g,1,0.6907106704311445,,,,,,,,,,,,,,,,,,,,338,2023-11-27_13h09.31.817,leap3,2022.2.5,60.47032657580103,
,,,,,,,,,,,,,,,,,,,,14,0,14,0,17,0,17,0,,,,,,renown,w,g,lower,,,,,,,3,w,LoDemNoTar,g,1,1.3894499922171235,,,,,,,,,,,,,,,,,,,,338,2023-11-27_13h09.31.817,leap3,2022.2.5,60.47032657580103,
,,,,,,,,,,,,,,,,,,,,14,0,14,0,18,0,18,0,,,,,,contain,w,g,lower,,,,,,,3,w,LoDemNoTar,g,1,0.6122343698516488,,,,,,,,,,,,,,,,,,,,338,2023-11-27_13h09.31.817,leap3,2022.2.5,60.47032657580103,
,,,,,,,,,,,,,,,,,,,,14,0,14,0,19,0,19,0,,,,,,chining,nw,h,lower,,,,,,,3,nw,LoDemNoTar,h,1,0.9776456553954631,,,,,,,,,,,,,,,,,,,,338,2023-11-27_13h09.31.817,leap3,2022.2.5,60.47032657580103,
,,,,,,,,,,,,,,,,,,,,14,0,14,0,20,0,20,0,,,,,,plunging,w,g,lower,,,,,,,3,w,LoDemNoTar,g,1,1.1526269582100213,,,,,,,,,,,,,,,,,,,,338,2023-11-27_13h09.31.817,leap3,2022.2.5,60.47032657580103,
,,,,,,,,,,,,,,,,,,,,14,0,14,0,21,0,21,0,,,,,,incidonts,nw,h,lower,,,,,,,3,nw,LoDemNoTar,h,1,0.952798253390938,,,,,,,,,,,,,,,,,,,,338,2023-11-27_13h09.31.817,leap3,2022.2.5,60.47032657580103,
,,,,,,,,,,,,,,,,,,,,14,0,14,0,22,0,22,0,,,,,,nature,w,g,lower,,,,,,,3,w,LoDemNoTar,g,1,0.9528800274711102,,,,,,,,,,,,,,,,,,,,338,2023-11-27_13h09.31.817,leap3,2022.2.5,60.47032657580103,
,,,,,,,,,,,,,,,,,,,,14,0,14,0,23,0,23,0,,,,,,iolize,nw,h,lower,,,,,,,3,nw,LoDemNoTar,h,1,7.433356714202091,,,,,,,,,,,,,,,,,,,,338,2023-11-27_13h09.31.817,leap3,2022.2.5,60.47032657580103,
,,,,,,,,,,,,,,,,,,,,14,0,14,0,24,0,24,0,,,,,,pracking,nw,h,lower,,,,,,,3,nw,LoDemNoTar,h,1,0.6547492770478129,,,,,,,,,,,,,,,,,,,,338,2023-11-27_13h09.31.817,leap3,2022.2.5,60.47032657580103,
,,,,,,,,,,,,,,,,,,,,14,0,14,0,25,0,25,0,,,,,,forecast,w,g,lower,,,,,,,3,w,LoDemNoTar,g,1,0.6738860672339797,,,,,,,,,,,,,,,,,,,,338,2023-11-27_13h09.31.817,leap3,2022.2.5,60.47032657580103,
,,,,,,,,,,,,,,,,,,,,14,0,14,0,26,0,26,0,,,,,,truthful,w,g,lower,,,,,,,3,w,LoDemNoTar,g,1,0.5012255591573194,,,,,,,,,,,,,,,,,,,,338,2023-11-27_13h09.31.817,leap3,2022.2.5,60.47032657580103,
,,,,,,,,,,,,,,,,,,,,14,0,14,0,27,0,27,0,,,,,,theery,nw,h,lower,,,,,,,3,nw,LoDemNoTar,h,1,0.7273120204918087,,,,,,,,,,,,,,,,,,,,338,2023-11-27_13h09.31.817,leap3,2022.2.5,60.47032657580103,
,,,,,,,,,,,,,,,,,,,,14,0,14,0,28,0,28,0,,,,,,region,w,g,lower,,,,,,,3,w,LoDemNoTar,g,1,0.560709084616974,,,,,,,,,,,,,,,,,,,,338,2023-11-27_13h09.31.817,leap3,2022.2.5,60.47032657580103,
,,,,,,,,,,,,,,,,,,,,14,0,14,0,29,0,29,0,,,,,,cobalt,w,g,lower,,,,,,,3,w,LoDemNoTar,g,1,0.7687592296861112,,,,,,,,,,,,,,,,,,,,338,2023-11-27_13h09.31.817,leap3,2022.2.5,60.47032657580103,
,,,,,,,,,,,,,,,,,,,,14,0,14,0,,,,,,,,,,,,,,,,,,,,,,,,,,,NA,,,,,,,,,,,,,,,,,,338,2023-11-27_13h09.31.817,leap3,2022.2.5,60.47032657580103,
,,,,,,,,,,,,,,,,,,,,15,0,15,0,0,0,0,0,,,,,,defensa,nw,h,lower,,,,,,,3,nw,LoDemNoTar,h,1,0.8235276682535186,,,,,,,,,,,,,,,,,,,,338,2023-11-27_13h09.31.817,leap3,2022.2.5,60.47032657580103,
,,,,,,,,,,,,,,,,,,,,15,0,15,0,1,0,1,0,,,,,,defeat,w,g,lower,,,,,,,3,w,LoDemNoTar,g,1,2.452974216779694,,,,,,,,,,,,,,,,,,,,338,2023-11-27_13h09.31.817,leap3,2022.2.5,60.47032657580103,
,,,,,,,,,,,,,,,,,,,,15,0,15,0,2,0,2,0,,,,,,outlaved,nw,h,lower,,,,,,,3,nw,LoDemNoTar,h,1,0.8169433650327846,,,,,,,,,,,,,,,,,,,,338,2023-11-27_13h09.31.817,leap3,2022.2.5,60.47032657580103,
,,,,,,,,,,,,,,,,,,,,15,0,15,0,3,0,3,0,,,,,,ignoble,w,g,lower,,,,,,,3,w,LoDemNoTar,h,0,1.5521141983335838,,,,,,,,,,,,,,,,,,,,338,2023-11-27_13h09.31.817,leap3,2022.2.5,60.47032657580103,
,,,,,,,,,,,,,,,,,,,,15,0,15,0,4,0,4,0,,,,,,machinery,w,g,lower,,,,,,,3,w,LoDemNoTar,g,1,1.6711901710368693,,,,,,,,,,,,,,,,,,,,338,2023-11-27_13h09.31.817,leap3,2022.2.5,60.47032657580103,
,,,,,,,,,,,,,,,,,,,,15,0,15,0,5,0,5,0,,,,,,omners,nw,h,lower,,,,,,,3,nw,LoDemNoTar,h,1,0.7225257537793368,,,,,,,,,,,,,,,,,,,,338,2023-11-27_13h09.31.817,leap3,2022.2.5,60.47032657580103,
,,,,,,,,,,,,,,,,,,,,15,0,15,0,6,0,6,0,,,,,,derisury,nw,h,lower,,,,,,,3,nw,LoDemNoTar,h,1,0.739523837226443,,,,,,,,,,,,,,,,,,,,338,2023-11-27_13h09.31.817,leap3,2022.2.5,60.47032657580103,
,,,,,,,,,,,,,,,,,,,,15,0,15,0,7,0,7,0,,,,,,organize,w,g,lower,,,,,,,3,w,LoDemNoTar,g,1,0.5476715815020725,,,,,,,,,,,,,,,,,,,,338,2023-11-27_13h09.31.817,leap3,2022.2.5,60.47032657580103,
,,,,,,,,,,,,,,,,,,,,15,0,15,0,8,0,8,0,,,,,,giving,w,g,lower,,,,,,,3,w,LoDemNoTar,g,1,0.9084108191309497,,,,,,,,,,,,,,,,,,,,338,2023-11-27_13h09.31.817,leap3,2022.2.5,60.47032657580103,
,,,,,,,,,,,,,,,,,,,,15,0,15,0,9,0,9,0,,,,,,servant,w,g,lower,,,,,,,3,w,LoDemNoTar,g,1,0.6785501694539562,,,,,,,,,,,,,,,,,,,,338,2023-11-27_13h09.31.817,leap3,2022.2.5,60.47032657580103,
,,,,,,,,,,,,,,,,,,,,15,0,15,0,10,0,10,0,,,,,,ringlat,nw,h,lower,,,,,,,3,nw,LoDemNoTar,h,1,0.5859809172106907,,,,,,,,,,,,,,,,,,,,338,2023-11-27_13h09.31.817,leap3,2022.2.5,60.47032657580103,
,,,,,,,,,,,,,,,,,,,,15,0,15,0,11,0,11,0,,,,,,pamine,nw,h,lower,,,,,,,3,nw,LoDemNoTar,h,1,1.120737053337507,,,,,,,,,,,,,,,,,,,,338,2023-11-27_13h09.31.817,leap3,2022.2.5,60.47032657580103,
,,,,,,,,,,,,,,,,,,,,15,0,15,0,12,0,12,0,,,,,,distrust,w,g,lower,,,,,,,3,w,LoDemNoTar,g,1,0.7302260911092162,,,,,,,,,,,,,,,,,,,,338,2023-11-27_13h09.31.817,leap3,2022.2.5,60.47032657580103,
,,,,,,,,,,,,,,,,,,,,15,0,15,0,13,0,13,0,,,,,,olerates,nw,h,lower,,,,,,,3,nw,LoDemNoTar,h,1,1.7794878566637635,,,,,,,,,,,,,,,,,,,,338,2023-11-27_13h09.31.817,leap3,2022.2.5,60.47032657580103,
,,,,,,,,,,,,,,,,,,,,15,0,15,0,14,0,14,0,,,,,,otoist,nw,h,lower,,,,,,,3,nw,LoDemNoTar,h,1,1.2020393601851538,,,,,,,,,,,,,,,,,,,,338,2023-11-27_13h09.31.817,leap3,2022.2.5,60.47032657580103,
,,,,,,,,,,,,,,,,,,,,15,0,15,0,15,0,15,0,,,,,,enacted,w,g,lower,,,,,,,3,w,LoDemNoTar,g,1,1.2240561209619045,,,,,,,,,,,,,,,,,,,,338,2023-11-27_13h09.31.817,leap3,2022.2.5,60.47032657580103,
,,,,,,,,,,,,,,,,,,,,15,0,15,0,16,0,16,0,,,,,,living,w,g,lower,,,,,,,3,w,LoDemNoTar,g,1,0.5974163766950369,,,,,,,,,,,,,,,,,,,,338,2023-11-27_13h09.31.817,leap3,2022.2.5,60.47032657580103,
,,,,,,,,,,,,,,,,,,,,15,0,15,0,17,0,17,0,,,,,,perform,w,g,lower,,,,,,,3,w,LoDemNoTar,g,1,0.7162294805748388,,,,,,,,,,,,,,,,,,,,338,2023-11-27_13h09.31.817,leap3,2022.2.5,60.47032657580103,
,,,,,,,,,,,,,,,,,,,,15,0,15,0,18,0,18,0,,,,,,nearsipe,nw,h,lower,,,,,,,3,nw,LoDemNoTar,h,1,1.1423379911575466,,,,,,,,,,,,,,,,,,,,338,2023-11-27_13h09.31.817,leap3,2022.2.5,60.47032657580103,
,,,,,,,,,,,,,,,,,,,,15,0,15,0,19,0,19,0,,,,,,pimorous,nw,h,lower,,,,,,,3,nw,LoDemNoTar,h,1,0.7506560374749824,,,,,,,,,,,,,,,,,,,,338,2023-11-27_13h09.31.817,leap3,2022.2.5,60.47032657580103,
,,,,,,,,,,,,,,,,,,,,15,0,15,0,20,0,20,0,,,,,,redefloy,nw,h,lower,,,,,,,3,nw,LoDemNoTar,h,1,0.6634964551776648,,,,,,,,,,,,,,,,,,,,338,2023-11-27_13h09.31.817,leap3,2022.2.5,60.47032657580103,
,,,,,,,,,,,,,,,,,,,,15,0,15,0,21,0,21,0,,,,,,finstrel,nw,h,lower,,,,,,,3,nw,LoDemNoTar,h,1,0.6677520179655403,,,,,,,,,,,,,,,,,,,,338,2023-11-27_13h09.31.817,leap3,2022.2.5,60.47032657580103,
,,,,,,,,,,,,,,,,,,,,15,0,15,0,22,0,22,0,,,,,,sopes,nw,h,lower,,,,,,,3,nw,LoDemNoTar,h,1,1.0229852446354926,,,,,,,,,,,,,,,,,,,,338,2023-11-27_13h09.31.817,leap3,2022.2.5,60.47032657580103,
,,,,,,,,,,,,,,,,,,,,15,0,15,0,23,0,23,0,,,,,,shests,nw,h,lower,,,,,,,3,nw,LoDemNoTar,g,0,1.1954004304716364,,,,,,,,,,,,,,,,,,,,338,2023-11-27_13h09.31.817,leap3,2022.2.5,60.47032657580103,
,,,,,,,,,,,,,,,,,,,,15,0,15,0,24,0,24,0,,,,,,roughly,w,g,lower,,,,,,,3,w,LoDemNoTar,g,1,0.8101968378759921,,,,,,,,,,,,,,,,,,,,338,2023-11-27_13h09.31.817,leap3,2022.2.5,60.47032657580103,
,,,,,,,,,,,,,,,,,,,,15,0,15,0,25,0,25,0,,,,,,lofty,w,g,lower,,,,,,,3,w,LoDemNoTar,h,0,11.527723009698093,,,,,,,,,,,,,,,,,,,,338,2023-11-27_13h09.31.817,leap3,2022.2.5,60.47032657580103,
,,,,,,,,,,,,,,,,,,,,15,0,15,0,26,0,26,0,,,,,,protest,w,g,lower,,,,,,,3,w,LoDemNoTar,g,1,0.5770970076555386,,,,,,,,,,,,,,,,,,,,338,2023-11-27_13h09.31.817,leap3,2022.2.5,60.47032657580103,
,,,,,,,,,,,,,,,,,,,,15,0,15,0,27,0,27,0,,,,,,assent,w,g,lower,,,,,,,3,w,LoDemNoTar,h,0,1.3604933598544449,,,,,,,,,,,,,,,,,,,,338,2023-11-27_13h09.31.817,leap3,2022.2.5,60.47032657580103,
,,,,,,,,,,,,,,,,,,,,15,0,15,0,28,0,28,0,,,,,,previous,w,g,lower,,,,,,,3,w,LoDemNoTar,g,1,0.6485745063982904,,,,,,,,,,,,,,,,,,,,338,2023-11-27_13h09.31.817,leap3,2022.2.5,60.47032657580103,
,,,,,,,,,,,,,,,,,,,,15,0,15,0,29,0,29,0,,,,,,fashing,nw,h,lower,,,,,,,3,nw,LoDemNoTar,h,1,0.7894255593419075,,,,,,,,,,,,,,,,,,,,338,2023-11-27_13h09.31.817,leap3,2022.2.5,60.47032657580103,
,,,,,,,,,,,,,,,,,,,,15,0,15,0,,,,,,,,,,,,,,,,,,,,,,,,,,,NA,,,,,,,,,,,,,,,,,,338,2023-11-27_13h09.31.817,leap3,2022.2.5,60.47032657580103,
,,,,,,,,,,,,,,,,,,,,16,0,16,0,0,0,0,0,,,,,,boutique,w,g,lower,,,,,,,3,w,LoDemNoTar,g,1,0.5560651776613668,,,,,,,,,,,,,,,,,,,,338,2023-11-27_13h09.31.817,leap3,2022.2.5,60.47032657580103,
,,,,,,,,,,,,,,,,,,,,16,0,16,0,1,0,1,0,,,,,,infested,w,g,lower,,,,,,,3,w,LoDemNoTar,g,1,0.6441971099702641,,,,,,,,,,,,,,,,,,,,338,2023-11-27_13h09.31.817,leap3,2022.2.5,60.47032657580103,
,,,,,,,,,,,,,,,,,,,,16,0,16,0,2,0,2,0,,,,,,phraining,nw,h,lower,,,,,,,3,nw,LoDemNoTar,h,1,0.6888917764881626,,,,,,,,,,,,,,,,,,,,338,2023-11-27_13h09.31.817,leap3,2022.2.5,60.47032657580103,
,,,,,,,,,,,,,,,,,,,,16,0,16,0,3,0,3,0,,,,,,podges,nw,h,lower,,,,,,,3,nw,LoDemNoTar,h,1,0.5956785947782919,,,,,,,,,,,,,,,,,,,,338,2023-11-27_13h09.31.817,leap3,2022.2.5,60.47032657580103,
,,,,,,,,,,,,,,,,,,,,16,0,16,0,4,0,4,0,,,,,,shockwave,w,g,lower,,,,,,,3,w,LoDemNoTar,h,0,0.5783944675931707,,,,,,,,,,,,,,,,,,,,338,2023-11-27_13h09.31.817,leap3,2022.2.5,60.47032657580103,
