demoRace_loop.thisRepN,demoRace_loop.thisTrialN,demoRace_loop.thisN,demoRace_loop.thisIndex,LDTunderstand.thisRepN,LDTunderstand.thisTrialN,LDTunderstand.thisN,LDTunderstand.thisIndex,pracBlocks.thisRepN,pracBlocks.thisTrialN,pracBlocks.thisN,pracBlocks.thisIndex,pracTrial.thisRepN,pracTrial.thisTrialN,pracTrial.thisN,pracTrial.thisIndex,PMunderstand.thisRepN,PMunderstand.thisTrialN,PMunderstand.thisN,PMunderstand.thisIndex,LDT_block.thisRepN,LDT_block.thisTrialN,LDT_block.thisN,LDT_block.thisIndex,LDT_trial.thisRepN,LDT_trial.thisTrialN,LDT_trial.thisN,LDT_trial.thisIndex,ageTextbox.text,genderTextbox.text,race,raceResp,LDTunderstand,stim,word_type,corr_key,stim_location,LDTpracKey.keys,LDTpracKey.corr,LDTpracKey.rt,PMunderstand,cueTextbox.text,intentionTextbox.text,block_type,role,block_desc,LDTResp.keys,LDTResp.corr,LDTResp.rt,pressedQ,PM_accuracy,postQ1,Q2Textbox.text,Q3Textbox.text,Q4,Q5,Q6Key.keys,Q6Key.rt,postQ7_correct,postQ7,Q8Textbox.text,education,medTextbox.text,health,healthLimit,psych,participant,date,expName,psychopyVersion,frameRate,
0,0,0,0,,,,,,,,,,,,,,,,,,,,,,,,,"
18
", female  ,American Indian or Alaska Native,n,,,,,,,,,,,,,,,,,,,,,,,,,,,,,,,,,,,339,2023-11-27_14h09.58.703,leap3,2022.2.5,60.094483406985056,
1,0,1,0,,,,,,,,,,,,,,,,,,,,,,,,,,,Asian,y,,,,,,,,,,,,,,,,,,,,,,,,,,,,,,,,,,,339,2023-11-27_14h09.58.703,leap3,2022.2.5,60.094483406985056,
2,0,2,0,,,,,,,,,,,,,,,,,,,,,,,,,,,Black or African American,n,,,,,,,,,,,,,,,,,,,,,,,,,,,,,,,,,,,339,2023-11-27_14h09.58.703,leap3,2022.2.5,60.094483406985056,
3,0,3,0,,,,,,,,,,,,,,,,,,,,,,,,,,,Native Hawaiian or other Pacific Islander,n,,,,,,,,,,,,,,,,,,,,,,,,,,,,,,,,,,,339,2023-11-27_14h09.58.703,leap3,2022.2.5,60.094483406985056,
4,0,4,0,,,,,,,,,,,,,,,,,,,,,,,,,,,White,y,,,,,,,,,,,,,,,,,,,,,,,,,,,,,,,,,,,339,2023-11-27_14h09.58.703,leap3,2022.2.5,60.094483406985056,
,,,,0,0,0,0,,,,,,,,,,,,,,,,,,,,,,,,,y,,,,,,,,,,,,,,,,,,,,,,,,,,,,,,,,,,339,2023-11-27_14h09.58.703,leap3,2022.2.5,60.094483406985056,
,,,,,,,,0,0,0,0,0,0,0,0,,,,,,,,,,,,,,,,,,turative,nw,h,lower,g,0,1.6061858884058893,,,,,,,,,,,,,,,,,,,,,,,,,,,339,2023-11-27_14h09.58.703,leap3,2022.2.5,60.094483406985056,
,,,,,,,,0,0,0,0,1,0,1,0,,,,,,,,,,,,,,,,,,alolition,nw,h,lower,h,1,1.2325160829350352,,,,,,,,,,,,,,,,,,,,,,,,,,,339,2023-11-27_14h09.58.703,leap3,2022.2.5,60.094483406985056,
,,,,,,,,0,0,0,0,2,0,2,0,,,,,,,,,,,,,,,,,,latador,nw,h,lower,h,1,1.063697301200591,,,,,,,,,,,,,,,,,,,,,,,,,,,339,2023-11-27_14h09.58.703,leap3,2022.2.5,60.094483406985056,
,,,,,,,,0,0,0,0,3,0,3,0,,,,,,,,,,,,,,,,,,hiring,w,g,lower,g,1,0.6520475737052038,,,,,,,,,,,,,,,,,,,,,,,,,,,339,2023-11-27_14h09.58.703,leap3,2022.2.5,60.094483406985056,
,,,,,,,,0,0,0,0,4,0,4,0,,,,,,,,,,,,,,,,,,lumbigo,nw,h,lower,h,1,0.8766667365562171,,,,,,,,,,,,,,,,,,,,,,,,,,,339,2023-11-27_14h09.58.703,leap3,2022.2.5,60.094483406985056,
,,,,,,,,0,0,0,0,5,0,5,0,,,,,,,,,,,,,,,,,,slumber,w,g,lower,g,1,0.5302243890473619,,,,,,,,,,,,,,,,,,,,,,,,,,,339,2023-11-27_14h09.58.703,leap3,2022.2.5,60.094483406985056,
,,,,,,,,0,0,0,0,6,0,6,0,,,,,,,,,,,,,,,,,,grutch,nw,h,lower,h,1,1.0359050392871723,,,,,,,,,,,,,,,,,,,,,,,,,,,339,2023-11-27_14h09.58.703,leap3,2022.2.5,60.094483406985056,
,,,,,,,,0,0,0,0,7,0,7,0,,,,,,,,,,,,,,,,,,picture,w,g,lower,g,1,0.46463164454326034,,,,,,,,,,,,,,,,,,,,,,,,,,,339,2023-11-27_14h09.58.703,leap3,2022.2.5,60.094483406985056,
,,,,,,,,0,0,0,0,8,0,8,0,,,,,,,,,,,,,,,,,,revival,w,g,lower,g,1,0.6688463535392657,,,,,,,,,,,,,,,,,,,,,,,,,,,339,2023-11-27_14h09.58.703,leap3,2022.2.5,60.094483406985056,
,,,,,,,,0,0,0,0,9,0,9,0,,,,,,,,,,,,,,,,,,grimace,w,g,lower,g,1,0.599485048907809,,,,,,,,,,,,,,,,,,,,,,,,,,,339,2023-11-27_14h09.58.703,leap3,2022.2.5,60.094483406985056,
,,,,,,,,0,0,0,0,10,0,10,0,,,,,,,,,,,,,,,,,,umpire,w,g,lower,g,1,0.4700982583453879,,,,,,,,,,,,,,,,,,,,,,,,,,,339,2023-11-27_14h09.58.703,leap3,2022.2.5,60.094483406985056,
,,,,,,,,0,0,0,0,11,0,11,0,,,,,,,,,,,,,,,,,,raestro,nw,h,lower,h,1,0.7293720847228542,,,,,,,,,,,,,,,,,,,,,,,,,,,339,2023-11-27_14h09.58.703,leap3,2022.2.5,60.094483406985056,
,,,,,,,,0,0,0,0,12,0,12,0,,,,,,,,,,,,,,,,,,curlecs,nw,h,lower,h,1,0.8509463052032515,,,,,,,,,,,,,,,,,,,,,,,,,,,339,2023-11-27_14h09.58.703,leap3,2022.2.5,60.094483406985056,
,,,,,,,,0,0,0,0,13,0,13,0,,,,,,,,,,,,,,,,,,busted,w,g,lower,h,0,0.4624012317508459,,,,,,,,,,,,,,,,,,,,,,,,,,,339,2023-11-27_14h09.58.703,leap3,2022.2.5,60.094483406985056,
,,,,,,,,0,0,0,0,,,,,,,,,,,,,,,,,,,,,,,,,,,,,,,,,,,,,,,,,,,,,,,,,,,,,,,339,2023-11-27_14h09.58.703,leap3,2022.2.5,60.094483406985056,
,,,,,,,,1,0,1,0,0,0,0,0,,,,,,,,,,,,,,,,,,grocus,nw,h,upper,h,1,0.7382758584572002,,,,,,,,,,,,,,,,,,,,,,,,,,,339,2023-11-27_14h09.58.703,leap3,2022.2.5,60.094483406985056,
,,,,,,,,1,0,1,0,1,0,1,0,,,,,,,,,,,,,,,,,,julled,nw,h,upper,h,1,0.704764376860112,,,,,,,,,,,,,,,,,,,,,,,,,,,339,2023-11-27_14h09.58.703,leap3,2022.2.5,60.094483406985056,
,,,,,,,,1,0,1,0,2,0,2,0,,,,,,,,,,,,,,,,,,treeps,nw,h,upper,h,1,0.725936911185272,,,,,,,,,,,,,,,,,,,,,,,,,,,339,2023-11-27_14h09.58.703,leap3,2022.2.5,60.094483406985056,
,,,,,,,,1,0,1,0,3,0,3,0,,,,,,,,,,,,,,,,,,tricycle,w,g,upper,g,1,0.4790136195952073,,,,,,,,,,,,,,,,,,,,,,,,,,,339,2023-11-27_14h09.58.703,leap3,2022.2.5,60.094483406985056,
,,,,,,,,1,0,1,0,4,0,4,0,,,,,,,,,,,,,,,,,,hasking,nw,h,upper,h,1,0.6259507167851552,,,,,,,,,,,,,,,,,,,,,,,,,,,339,2023-11-27_14h09.58.703,leap3,2022.2.5,60.094483406985056,
,,,,,,,,1,0,1,0,5,0,5,0,,,,,,,,,,,,,,,,,,reputable,w,g,upper,g,1,0.6634217854589224,,,,,,,,,,,,,,,,,,,,,,,,,,,339,2023-11-27_14h09.58.703,leap3,2022.2.5,60.094483406985056,
,,,,,,,,1,0,1,0,6,0,6,0,,,,,,,,,,,,,,,,,,lurshing,nw,h,upper,h,1,0.6194375933846459,,,,,,,,,,,,,,,,,,,,,,,,,,,339,2023-11-27_14h09.58.703,leap3,2022.2.5,60.094483406985056,
,,,,,,,,1,0,1,0,7,0,7,0,,,,,,,,,,,,,,,,,,overshoot,w,g,upper,g,1,0.5049068690277636,,,,,,,,,,,,,,,,,,,,,,,,,,,339,2023-11-27_14h09.58.703,leap3,2022.2.5,60.094483406985056,
,,,,,,,,1,0,1,0,8,0,8,0,,,,,,,,,,,,,,,,,,summary,w,g,upper,g,1,0.523006419534795,,,,,,,,,,,,,,,,,,,,,,,,,,,339,2023-11-27_14h09.58.703,leap3,2022.2.5,60.094483406985056,
,,,,,,,,1,0,1,0,9,0,9,0,,,,,,,,,,,,,,,,,,infinity,w,g,upper,g,1,0.44385904178489,,,,,,,,,,,,,,,,,,,,,,,,,,,339,2023-11-27_14h09.58.703,leap3,2022.2.5,60.094483406985056,
,,,,,,,,1,0,1,0,10,0,10,0,,,,,,,,,,,,,,,,,,unscrew,w,g,upper,g,1,0.5363392364233732,,,,,,,,,,,,,,,,,,,,,,,,,,,339,2023-11-27_14h09.58.703,leap3,2022.2.5,60.094483406985056,
,,,,,,,,1,0,1,0,11,0,11,0,,,,,,,,,,,,,,,,,,crinklo,nw,h,upper,h,1,0.6090161985484883,,,,,,,,,,,,,,,,,,,,,,,,,,,339,2023-11-27_14h09.58.703,leap3,2022.2.5,60.094483406985056,
,,,,,,,,1,0,1,0,12,0,12,0,,,,,,,,,,,,,,,,,,trotch,nw,h,upper,h,1,0.6791194293182343,,,,,,,,,,,,,,,,,,,,,,,,,,,339,2023-11-27_14h09.58.703,leap3,2022.2.5,60.094483406985056,
,,,,,,,,1,0,1,0,13,0,13,0,,,,,,,,,,,,,,,,,,sponsor,w,g,upper,g,1,0.6345628186827525,,,,,,,,,,,,,,,,,,,,,,,,,,,339,2023-11-27_14h09.58.703,leap3,2022.2.5,60.094483406985056,
,,,,,,,,1,0,1,0,,,,,,,,,,,,,,,,,,,,,,,,,,,,,,,,,,,,,,,,,,,,,,,,,,,,,,,339,2023-11-27_14h09.58.703,leap3,2022.2.5,60.094483406985056,
,,,,,,,,,,,,,,,,0,0,0,0,,,,,,,,,,,,,,,,,,,,,y,,,,,,,,,,,,,,,,,,,,,,,,,,339,2023-11-27_14h09.58.703,leap3,2022.2.5,60.094483406985056,
,,,,,,,,,,,,,,,,,,,,0,0,0,0,0,0,0,0,,,,,,observer,w,g,lower,,,,,"animal
","q
",1,w,HiDemTar,g,1,0.703251390834339,,,,,,,,,,,,,,,,,,339,2023-11-27_14h09.58.703,leap3,2022.2.5,60.094483406985056,
,,,,,,,,,,,,,,,,,,,,0,0,0,0,1,0,1,0,,,,,,crazy,w,g,lower,,,,,,,1,w,HiDemTar,g,1,0.5692955150734633,,,,,,,,,,,,,,,,,,339,2023-11-27_14h09.58.703,leap3,2022.2.5,60.094483406985056,
,,,,,,,,,,,,,,,,,,,,0,0,0,0,2,0,2,0,,,,,,vaporize,w,g,lower,,,,,,,1,w,HiDemTar,g,1,0.666144167073071,,,,,,,,,,,,,,,,,,339,2023-11-27_14h09.58.703,leap3,2022.2.5,60.094483406985056,
,,,,,,,,,,,,,,,,,,,,0,0,0,0,3,0,3,0,,,,,,urique,nw,h,lower,,,,,,,1,nw,HiDemTar,h,1,0.7338494639843702,,,,,,,,,,,,,,,,,,339,2023-11-27_14h09.58.703,leap3,2022.2.5,60.094483406985056,
,,,,,,,,,,,,,,,,,,,,0,0,0,0,4,0,4,0,,,,,,budget,w,g,lower,,,,,,,1,w,HiDemTar,g,1,0.5922306615393609,,,,,,,,,,,,,,,,,,339,2023-11-27_14h09.58.703,leap3,2022.2.5,60.094483406985056,
,,,,,,,,,,,,,,,,,,,,0,0,0,0,5,0,5,0,,,,,,kraums,nw,h,lower,,,,,,,1,nw,HiDemTar,h,1,0.6476390569005162,,,,,,,,,,,,,,,,,,339,2023-11-27_14h09.58.703,leap3,2022.2.5,60.094483406985056,
,,,,,,,,,,,,,,,,,,,,0,0,0,0,6,0,6,0,,,,,,oldest,w,g,lower,,,,,,,1,w,HiDemTar,g,1,0.5401157421292737,,,,,,,,,,,,,,,,,,339,2023-11-27_14h09.58.703,leap3,2022.2.5,60.094483406985056,
,,,,,,,,,,,,,,,,,,,,0,0,0,0,7,0,7,0,,,,,,slightly,w,g,lower,,,,,,,1,w,HiDemTar,g,1,0.5815377901308239,,,,,,,,,,,,,,,,,,339,2023-11-27_14h09.58.703,leap3,2022.2.5,60.094483406985056,
,,,,,,,,,,,,,,,,,,,,0,0,0,0,8,0,8,0,,,,,,dumult,nw,h,lower,,,,,,,1,nw,HiDemTar,h,1,0.6375397924566641,,,,,,,,,,,,,,,,,,339,2023-11-27_14h09.58.703,leap3,2022.2.5,60.094483406985056,
,,,,,,,,,,,,,,,,,,,,0,0,0,0,9,0,9,0,,,,,,mubby,nw,h,lower,,,,,,,1,nw,HiDemTar,h,1,0.8269192927982658,,,,,,,,,,,,,,,,,,339,2023-11-27_14h09.58.703,leap3,2022.2.5,60.094483406985056,
,,,,,,,,,,,,,,,,,,,,0,0,0,0,10,0,10,0,,,,,,gorilla,target,q,lower,,,,,,,1,target,HiDemTar,q,1,0.5450023228768259,1,,,,,,,,,,,,,,,,,339,2023-11-27_14h09.58.703,leap3,2022.2.5,60.094483406985056,
,,,,,,,,,,,,,,,,,,,,0,0,0,0,11,0,11,0,,,,,,leather,w,g,lower,,,,,,,1,aftertar1,HiDemTar,g,1,0.5703946646535769,,,,,,,,,,,,,,,,,,339,2023-11-27_14h09.58.703,leap3,2022.2.5,60.094483406985056,
,,,,,,,,,,,,,,,,,,,,0,0,0,0,12,0,12,0,,,,,,shazer,nw,h,lower,,,,,,,1,aftertar2,HiDemTar,h,1,0.8904739755671471,,,,,,,,,,,,,,,,,,339,2023-11-27_14h09.58.703,leap3,2022.2.5,60.094483406985056,
,,,,,,,,,,,,,,,,,,,,0,0,0,0,13,0,13,0,,,,,,miability,nw,h,lower,,,,,,,1,aftertar3,HiDemTar,h,1,0.7419229162624106,,,,,,,,,,,,,,,,,,339,2023-11-27_14h09.58.703,leap3,2022.2.5,60.094483406985056,
,,,,,,,,,,,,,,,,,,,,0,0,0,0,14,0,14,0,,,,,,colored,w,g,lower,,,,,,,1,nw,HiDemTar,g,1,0.535356623120606,,,,,,,,,,,,,,,,,,339,2023-11-27_14h09.58.703,leap3,2022.2.5,60.094483406985056,
,,,,,,,,,,,,,,,,,,,,0,0,0,0,15,0,15,0,,,,,,hindsight,w,g,lower,,,,,,,1,w,HiDemTar,g,1,0.656632550409995,,,,,,,,,,,,,,,,,,339,2023-11-27_14h09.58.703,leap3,2022.2.5,60.094483406985056,
,,,,,,,,,,,,,,,,,,,,0,0,0,0,16,0,16,0,,,,,,hegacy,nw,h,lower,,,,,,,1,w,HiDemTar,h,1,0.620488406973891,,,,,,,,,,,,,,,,,,339,2023-11-27_14h09.58.703,leap3,2022.2.5,60.094483406985056,
,,,,,,,,,,,,,,,,,,,,0,0,0,0,17,0,17,0,,,,,,splinging,nw,h,lower,,,,,,,1,nw,HiDemTar,h,1,0.738508269074373,,,,,,,,,,,,,,,,,,339,2023-11-27_14h09.58.703,leap3,2022.2.5,60.094483406985056,
,,,,,,,,,,,,,,,,,,,,0,0,0,0,18,0,18,0,,,,,,naxis,nw,h,lower,,,,,,,1,nw,HiDemTar,h,1,0.5691948699532077,,,,,,,,,,,,,,,,,,339,2023-11-27_14h09.58.703,leap3,2022.2.5,60.094483406985056,
,,,,,,,,,,,,,,,,,,,,0,0,0,0,19,0,19,0,,,,,,plashed,nw,h,lower,,,,,,,1,nw,HiDemTar,h,1,0.707792004221119,,,,,,,,,,,,,,,,,,339,2023-11-27_14h09.58.703,leap3,2022.2.5,60.094483406985056,
,,,,,,,,,,,,,,,,,,,,0,0,0,0,20,0,20,0,,,,,,amkles,nw,h,lower,,,,,,,1,nw,HiDemTar,h,1,0.6850839712424204,,,,,,,,,,,,,,,,,,339,2023-11-27_14h09.58.703,leap3,2022.2.5,60.094483406985056,
,,,,,,,,,,,,,,,,,,,,0,0,0,0,21,0,21,0,,,,,,threaded,w,g,lower,,,,,,,1,nw,HiDemTar,g,1,0.6021829312667251,,,,,,,,,,,,,,,,,,339,2023-11-27_14h09.58.703,leap3,2022.2.5,60.094483406985056,
,,,,,,,,,,,,,,,,,,,,0,0,0,0,22,0,22,0,,,,,,decantel,nw,h,lower,,,,,,,1,w,HiDemTar,h,1,0.7295336464885622,,,,,,,,,,,,,,,,,,339,2023-11-27_14h09.58.703,leap3,2022.2.5,60.094483406985056,
,,,,,,,,,,,,,,,,,,,,0,0,0,0,23,0,23,0,,,,,,duplex,w,g,lower,,,,,,,1,nw,HiDemTar,g,1,0.9235414934810251,,,,,,,,,,,,,,,,,,339,2023-11-27_14h09.58.703,leap3,2022.2.5,60.094483406985056,
,,,,,,,,,,,,,,,,,,,,0,0,0,0,24,0,24,0,,,,,,volder,nw,h,lower,,,,,,,1,w,HiDemTar,h,1,0.6527696355478838,,,,,,,,,,,,,,,,,,339,2023-11-27_14h09.58.703,leap3,2022.2.5,60.094483406985056,
,,,,,,,,,,,,,,,,,,,,0,0,0,0,25,0,25,0,,,,,,envelop,w,g,lower,,,,,,,1,nw,HiDemTar,g,1,0.7054827968822792,,,,,,,,,,,,,,,,,,339,2023-11-27_14h09.58.703,leap3,2022.2.5,60.094483406985056,
,,,,,,,,,,,,,,,,,,,,0,0,0,0,26,0,26,0,,,,,,sequence,w,g,lower,,,,,,,1,w,HiDemTar,g,1,0.6842506701359525,,,,,,,,,,,,,,,,,,339,2023-11-27_14h09.58.703,leap3,2022.2.5,60.094483406985056,
,,,,,,,,,,,,,,,,,,,,0,0,0,0,27,0,27,0,,,,,,coster,nw,h,lower,,,,,,,1,w,HiDemTar,h,1,0.6956245508044958,,,,,,,,,,,,,,,,,,339,2023-11-27_14h09.58.703,leap3,2022.2.5,60.094483406985056,
,,,,,,,,,,,,,,,,,,,,0,0,0,0,28,0,28,0,,,,,,gestalion,nw,h,lower,,,,,,,1,nw,HiDemTar,h,1,0.9629913624376059,,,,,,,,,,,,,,,,,,339,2023-11-27_14h09.58.703,leap3,2022.2.5,60.094483406985056,
,,,,,,,,,,,,,,,,,,,,0,0,0,0,29,0,29,0,,,,,,bickering,w,g,lower,,,,,,,1,nw,HiDemTar,h,0,1.0357785708038136,,,,,,,,,,,,,,,,,,339,2023-11-27_14h09.58.703,leap3,2022.2.5,60.094483406985056,
,,,,,,,,,,,,,,,,,,,,0,0,0,0,,,,,,,,,,,,,,,,,,,,,,,,,,,1,,,,,,,,,,,,,,,,339,2023-11-27_14h09.58.703,leap3,2022.2.5,60.094483406985056,
,,,,,,,,,,,,,,,,,,,,1,0,1,0,0,0,0,0,,,,,,noils,nw,h,lower,,,,,,,2,nw,HiDemNoTar,h,1,0.7045455400366336,,,,,,,,,,,,,,,,,,339,2023-11-27_14h09.58.703,leap3,2022.2.5,60.094483406985056,
,,,,,,,,,,,,,,,,,,,,1,0,1,0,1,0,1,0,,,,,,measure,w,g,lower,,,,,,,2,w,HiDemNoTar,g,1,0.6032198399771005,,,,,,,,,,,,,,,,,,339,2023-11-27_14h09.58.703,leap3,2022.2.5,60.094483406985056,
,,,,,,,,,,,,,,,,,,,,1,0,1,0,2,0,2,0,,,,,,acroad,nw,h,lower,,,,,,,2,nw,HiDemNoTar,h,1,0.921985468477942,,,,,,,,,,,,,,,,,,339,2023-11-27_14h09.58.703,leap3,2022.2.5,60.094483406985056,
,,,,,,,,,,,,,,,,,,,,1,0,1,0,3,0,3,0,,,,,,release,w,g,lower,,,,,,,2,w,HiDemNoTar,g,1,0.4841077806195244,,,,,,,,,,,,,,,,,,339,2023-11-27_14h09.58.703,leap3,2022.2.5,60.094483406985056,
,,,,,,,,,,,,,,,,,,,,1,0,1,0,4,0,4,0,,,,,,permeable,w,g,lower,,,,,,,2,w,HiDemNoTar,g,1,0.8634749552002177,,,,,,,,,,,,,,,,,,339,2023-11-27_14h09.58.703,leap3,2022.2.5,60.094483406985056,
,,,,,,,,,,,,,,,,,,,,1,0,1,0,5,0,5,0,,,,,,catgup,nw,h,lower,,,,,,,2,nw,HiDemNoTar,h,1,0.676206020754762,,,,,,,,,,,,,,,,,,339,2023-11-27_14h09.58.703,leap3,2022.2.5,60.094483406985056,
,,,,,,,,,,,,,,,,,,,,1,0,1,0,6,0,6,0,,,,,,cervical,w,g,lower,,,,,,,2,w,HiDemNoTar,g,1,0.6962429879931733,,,,,,,,,,,,,,,,,,339,2023-11-27_14h09.58.703,leap3,2022.2.5,60.094483406985056,
,,,,,,,,,,,,,,,,,,,,1,0,1,0,7,0,7,0,,,,,,heuls,nw,h,lower,,,,,,,2,nw,HiDemNoTar,h,1,0.5872864748816937,,,,,,,,,,,,,,,,,,339,2023-11-27_14h09.58.703,leap3,2022.2.5,60.094483406985056,
,,,,,,,,,,,,,,,,,,,,1,0,1,0,8,0,8,0,,,,,,carbled,nw,h,lower,,,,,,,2,nw,HiDemNoTar,h,1,0.6590669018914923,,,,,,,,,,,,,,,,,,339,2023-11-27_14h09.58.703,leap3,2022.2.5,60.094483406985056,
,,,,,,,,,,,,,,,,,,,,1,0,1,0,9,0,9,0,,,,,,meteoroid,w,g,lower,,,,,,,2,w,HiDemNoTar,h,0,0.5829997914843261,,,,,,,,,,,,,,,,,,339,2023-11-27_14h09.58.703,leap3,2022.2.5,60.094483406985056,
,,,,,,,,,,,,,,,,,,,,1,0,1,0,10,0,10,0,,,,,,artifact,w,g,lower,,,,,,,2,w,HiDemNoTar,g,1,0.5989026981405914,,,,,,,,,,,,,,,,,,339,2023-11-27_14h09.58.703,leap3,2022.2.5,60.094483406985056,
,,,,,,,,,,,,,,,,,,,,1,0,1,0,11,0,11,0,,,,,,chonemic,nw,h,lower,,,,,,,2,nw,HiDemNoTar,h,1,0.7665190367260948,,,,,,,,,,,,,,,,,,339,2023-11-27_14h09.58.703,leap3,2022.2.5,60.094483406985056,
,,,,,,,,,,,,,,,,,,,,1,0,1,0,12,0,12,0,,,,,,reconcile,w,g,lower,,,,,,,2,w,HiDemNoTar,g,1,0.8309361546998844,,,,,,,,,,,,,,,,,,339,2023-11-27_14h09.58.703,leap3,2022.2.5,60.094483406985056,
,,,,,,,,,,,,,,,,,,,,1,0,1,0,13,0,13,0,,,,,,pakened,nw,h,lower,,,,,,,2,nw,HiDemNoTar,h,1,0.861052853288129,,,,,,,,,,,,,,,,,,339,2023-11-27_14h09.58.703,leap3,2022.2.5,60.094483406985056,
,,,,,,,,,,,,,,,,,,,,1,0,1,0,14,0,14,0,,,,,,statute,w,g,lower,,,,,,,2,w,HiDemNoTar,g,1,0.649626465048641,,,,,,,,,,,,,,,,,,339,2023-11-27_14h09.58.703,leap3,2022.2.5,60.094483406985056,
,,,,,,,,,,,,,,,,,,,,1,0,1,0,15,0,15,0,,,,,,golemic,nw,h,lower,,,,,,,2,nw,HiDemNoTar,h,1,0.8873079613549635,,,,,,,,,,,,,,,,,,339,2023-11-27_14h09.58.703,leap3,2022.2.5,60.094483406985056,
,,,,,,,,,,,,,,,,,,,,1,0,1,0,16,0,16,0,,,,,,talent,w,g,lower,,,,,,,2,w,HiDemNoTar,g,1,0.5706492568133399,,,,,,,,,,,,,,,,,,339,2023-11-27_14h09.58.703,leap3,2022.2.5,60.094483406985056,
,,,,,,,,,,,,,,,,,,,,1,0,1,0,17,0,17,0,,,,,,describe,w,g,lower,,,,,,,2,w,HiDemNoTar,g,1,0.6418453467776999,,,,,,,,,,,,,,,,,,339,2023-11-27_14h09.58.703,leap3,2022.2.5,60.094483406985056,
,,,,,,,,,,,,,,,,,,,,1,0,1,0,18,0,18,0,,,,,,mosary,nw,h,lower,,,,,,,2,nw,HiDemNoTar,h,1,0.7032388101797551,,,,,,,,,,,,,,,,,,339,2023-11-27_14h09.58.703,leap3,2022.2.5,60.094483406985056,
,,,,,,,,,,,,,,,,,,,,1,0,1,0,19,0,19,0,,,,,,pexts,nw,h,lower,,,,,,,2,nw,HiDemNoTar,h,1,0.617937519098632,,,,,,,,,,,,,,,,,,339,2023-11-27_14h09.58.703,leap3,2022.2.5,60.094483406985056,
,,,,,,,,,,,,,,,,,,,,1,0,1,0,20,0,20,0,,,,,,scarlet,w,g,lower,,,,,,,2,w,HiDemNoTar,g,1,0.7440361306071281,,,,,,,,,,,,,,,,,,339,2023-11-27_14h09.58.703,leap3,2022.2.5,60.094483406985056,
,,,,,,,,,,,,,,,,,,,,1,0,1,0,21,0,21,0,,,,,,hecture,nw,h,lower,,,,,,,2,nw,HiDemNoTar,h,1,0.817518915166147,,,,,,,,,,,,,,,,,,339,2023-11-27_14h09.58.703,leap3,2022.2.5,60.094483406985056,
,,,,,,,,,,,,,,,,,,,,1,0,1,0,22,0,22,0,,,,,,cartles,nw,h,lower,,,,,,,2,nw,HiDemNoTar,h,1,0.6475003388477489,,,,,,,,,,,,,,,,,,339,2023-11-27_14h09.58.703,leap3,2022.2.5,60.094483406985056,
,,,,,,,,,,,,,,,,,,,,1,0,1,0,23,0,23,0,,,,,,smolvers,nw,h,lower,,,,,,,2,nw,HiDemNoTar,h,1,0.6928958788048476,,,,,,,,,,,,,,,,,,339,2023-11-27_14h09.58.703,leap3,2022.2.5,60.094483406985056,
,,,,,,,,,,,,,,,,,,,,1,0,1,0,24,0,24,0,,,,,,bentler,nw,h,lower,,,,,,,2,nw,HiDemNoTar,h,1,0.7123259962536395,,,,,,,,,,,,,,,,,,339,2023-11-27_14h09.58.703,leap3,2022.2.5,60.094483406985056,
,,,,,,,,,,,,,,,,,,,,1,0,1,0,25,0,25,0,,,,,,diatonic,w,g,lower,,,,,,,2,w,HiDemNoTar,h,0,0.9230875975918025,,,,,,,,,,,,,,,,,,339,2023-11-27_14h09.58.703,leap3,2022.2.5,60.094483406985056,
,,,,,,,,,,,,,,,,,,,,1,0,1,0,26,0,26,0,,,,,,calcify,w,g,lower,,,,,,,2,w,HiDemNoTar,h,0,0.685354454559274,,,,,,,,,,,,,,,,,,339,2023-11-27_14h09.58.703,leap3,2022.2.5,60.094483406985056,
,,,,,,,,,,,,,,,,,,,,1,0,1,0,27,0,27,0,,,,,,efcorted,nw,h,lower,,,,,,,2,nw,HiDemNoTar,h,1,0.7836515342351049,,,,,,,,,,,,,,,,,,339,2023-11-27_14h09.58.703,leap3,2022.2.5,60.094483406985056,
,,,,,,,,,,,,,,,,,,,,1,0,1,0,28,0,28,0,,,,,,rewrite,w,g,lower,,,,,,,2,w,HiDemNoTar,g,1,0.6396467165322974,,,,,,,,,,,,,,,,,,339,2023-11-27_14h09.58.703,leap3,2022.2.5,60.094483406985056,
,,,,,,,,,,,,,,,,,,,,1,0,1,0,29,0,29,0,,,,,,miracle,w,g,lower,,,,,,,2,w,HiDemNoTar,g,1,0.6130565665662289,,,,,,,,,,,,,,,,,,339,2023-11-27_14h09.58.703,leap3,2022.2.5,60.094483406985056,
,,,,,,,,,,,,,,,,,,,,1,0,1,0,,,,,,,,,,,,,,,,,,,,,,,,,,,NA,,,,,,,,,,,,,,,,339,2023-11-27_14h09.58.703,leap3,2022.2.5,60.094483406985056,
,,,,,,,,,,,,,,,,,,,,2,0,2,0,0,0,0,0,,,,,,ahead,w,g,upper,,,,,,,4,w,LoDemTar,g,1,0.4920822433196008,,,,,,,,,,,,,,,,,,339,2023-11-27_14h09.58.703,leap3,2022.2.5,60.094483406985056,
,,,,,,,,,,,,,,,,,,,,2,0,2,0,1,0,1,0,,,,,,latpin,nw,h,upper,,,,,,,4,nw,LoDemTar,h,1,0.6074820242356509,,,,,,,,,,,,,,,,,,339,2023-11-27_14h09.58.703,leap3,2022.2.5,60.094483406985056,
,,,,,,,,,,,,,,,,,,,,2,0,2,0,2,0,2,0,,,,,,pastnoss,nw,h,upper,,,,,,,4,nw,LoDemTar,h,1,0.9495178412180394,,,,,,,,,,,,,,,,,,339,2023-11-27_14h09.58.703,leap3,2022.2.5,60.094483406985056,
,,,,,,,,,,,,,,,,,,,,2,0,2,0,3,0,3,0,,,,,,withep,nw,h,upper,,,,,,,4,nw,LoDemTar,h,1,0.6305876713013276,,,,,,,,,,,,,,,,,,339,2023-11-27_14h09.58.703,leap3,2022.2.5,60.094483406985056,
,,,,,,,,,,,,,,,,,,,,2,0,2,0,4,0,4,0,,,,,,galashes,nw,h,upper,,,,,,,4,nw,LoDemTar,h,1,0.8610243812436238,,,,,,,,,,,,,,,,,,339,2023-11-27_14h09.58.703,leap3,2022.2.5,60.094483406985056,
,,,,,,,,,,,,,,,,,,,,2,0,2,0,5,0,5,0,,,,,,gackpedal,nw,h,upper,,,,,,,4,nw,LoDemTar,h,1,0.5373976645059884,,,,,,,,,,,,,,,,,,339,2023-11-27_14h09.58.703,leap3,2022.2.5,60.094483406985056,
,,,,,,,,,,,,,,,,,,,,2,0,2,0,6,0,6,0,,,,,,hackal,nw,h,upper,,,,,,,4,nw,LoDemTar,h,1,0.6827972765313461,,,,,,,,,,,,,,,,,,339,2023-11-27_14h09.58.703,leap3,2022.2.5,60.094483406985056,
,,,,,,,,,,,,,,,,,,,,2,0,2,0,7,0,7,0,,,,,,massacre,w,g,upper,,,,,,,4,w,LoDemTar,g,1,0.6789770695613697,,,,,,,,,,,,,,,,,,339,2023-11-27_14h09.58.703,leap3,2022.2.5,60.094483406985056,
,,,,,,,,,,,,,,,,,,,,2,0,2,0,8,0,8,0,,,,,,frunted,nw,h,upper,,,,,,,4,nw,LoDemTar,h,1,0.6830141268437728,,,,,,,,,,,,,,,,,,339,2023-11-27_14h09.58.703,leap3,2022.2.5,60.094483406985056,
,,,,,,,,,,,,,,,,,,,,2,0,2,0,9,0,9,0,,,,,,servant,w,g,upper,,,,,,,4,w,LoDemTar,g,1,0.647058030590415,,,,,,,,,,,,,,,,,,339,2023-11-27_14h09.58.703,leap3,2022.2.5,60.094483406985056,
,,,,,,,,,,,,,,,,,,,,2,0,2,0,10,0,10,0,,,,,,border,w,g,upper,,,,,,,4,w,LoDemTar,g,1,0.5236152557190508,,,,,,,,,,,,,,,,,,339,2023-11-27_14h09.58.703,leap3,2022.2.5,60.094483406985056,
,,,,,,,,,,,,,,,,,,,,2,0,2,0,11,0,11,0,,,,,,sludding,nw,h,upper,,,,,,,4,nw,LoDemTar,h,1,0.7976842313073575,,,,,,,,,,,,,,,,,,339,2023-11-27_14h09.58.703,leap3,2022.2.5,60.094483406985056,
,,,,,,,,,,,,,,,,,,,,2,0,2,0,12,0,12,0,,,,,,railway,w,g,upper,,,,,,,4,w,LoDemTar,q,0,0.5569764318643138,,,,,,,,,,,,,,,,,,339,2023-11-27_14h09.58.703,leap3,2022.2.5,60.094483406985056,
,,,,,,,,,,,,,,,,,,,,2,0,2,0,13,0,13,0,,,,,,roaned,nw,h,upper,,,,,,,4,nw,LoDemTar,h,1,0.885760543984361,,,,,,,,,,,,,,,,,,339,2023-11-27_14h09.58.703,leap3,2022.2.5,60.094483406985056,
,,,,,,,,,,,,,,,,,,,,2,0,2,0,14,0,14,0,,,,,,stranded,w,g,upper,,,,,,,4,w,LoDemTar,g,1,0.8411853935103863,,,,,,,,,,,,,,,,,,339,2023-11-27_14h09.58.703,leap3,2022.2.5,60.094483406985056,
,,,,,,,,,,,,,,,,,,,,2,0,2,0,15,0,15,0,,,,,,lonnote,nw,h,upper,,,,,,,4,nw,LoDemTar,h,1,0.6305906509514898,,,,,,,,,,,,,,,,,,339,2023-11-27_14h09.58.703,leap3,2022.2.5,60.094483406985056,
,,,,,,,,,,,,,,,,,,,,2,0,2,0,16,0,16,0,,,,,,require,w,g,upper,,,,,,,4,w,LoDemTar,h,0,0.5006499817827716,,,,,,,,,,,,,,,,,,339,2023-11-27_14h09.58.703,leap3,2022.2.5,60.094483406985056,
,,,,,,,,,,,,,,,,,,,,2,0,2,0,17,0,17,0,,,,,,issue,w,g,upper,,,,,,,4,w,LoDemTar,g,1,0.527381498250179,,,,,,,,,,,,,,,,,,339,2023-11-27_14h09.58.703,leap3,2022.2.5,60.094483406985056,
,,,,,,,,,,,,,,,,,,,,2,0,2,0,18,0,18,0,,,,,,grenavier,nw,h,upper,,,,,,,4,nw,LoDemTar,h,1,0.6335249168332666,,,,,,,,,,,,,,,,,,339,2023-11-27_14h09.58.703,leap3,2022.2.5,60.094483406985056,
,,,,,,,,,,,,,,,,,,,,2,0,2,0,19,0,19,0,,,,,,module,w,g,upper,,,,,,,4,w,LoDemTar,g,1,0.5755080276867375,,,,,,,,,,,,,,,,,,339,2023-11-27_14h09.58.703,leap3,2022.2.5,60.094483406985056,
,,,,,,,,,,,,,,,,,,,,2,0,2,0,20,0,20,0,,,,,,butterfly,target,q,upper,,,,,,,4,target,LoDemTar,q,1,0.8547453237697482,1,,,,,,,,,,,,,,,,,339,2023-11-27_14h09.58.703,leap3,2022.2.5,60.094483406985056,
,,,,,,,,,,,,,,,,,,,,2,0,2,0,21,0,21,0,,,,,,pepperoni,w,g,upper,,,,,,,4,aftertar1,LoDemTar,g,1,1.0113956588320434,,,,,,,,,,,,,,,,,,339,2023-11-27_14h09.58.703,leap3,2022.2.5,60.094483406985056,
,,,,,,,,,,,,,,,,,,,,2,0,2,0,22,0,22,0,,,,,,congraks,nw,h,upper,,,,,,,4,aftertar2,LoDemTar,h,1,0.7858591033145785,,,,,,,,,,,,,,,,,,339,2023-11-27_14h09.58.703,leap3,2022.2.5,60.094483406985056,
,,,,,,,,,,,,,,,,,,,,2,0,2,0,23,0,23,0,,,,,,dislokes,nw,h,upper,,,,,,,4,aftertar3,LoDemTar,h,1,0.7295316600939259,,,,,,,,,,,,,,,,,,339,2023-11-27_14h09.58.703,leap3,2022.2.5,60.094483406985056,
,,,,,,,,,,,,,,,,,,,,2,0,2,0,24,0,24,0,,,,,,combat,w,g,upper,,,,,,,4,nw,LoDemTar,g,1,0.6035992451943457,,,,,,,,,,,,,,,,,,339,2023-11-27_14h09.58.703,leap3,2022.2.5,60.094483406985056,
,,,,,,,,,,,,,,,,,,,,2,0,2,0,25,0,25,0,,,,,,purpose,w,g,upper,,,,,,,4,w,LoDemTar,g,1,0.5304121053777635,,,,,,,,,,,,,,,,,,339,2023-11-27_14h09.58.703,leap3,2022.2.5,60.094483406985056,
,,,,,,,,,,,,,,,,,,,,2,0,2,0,26,0,26,0,,,,,,fictional,w,g,upper,,,,,,,4,w,LoDemTar,g,1,0.49241529882419854,,,,,,,,,,,,,,,,,,339,2023-11-27_14h09.58.703,leap3,2022.2.5,60.094483406985056,
,,,,,,,,,,,,,,,,,,,,2,0,2,0,27,0,27,0,,,,,,company,w,g,upper,,,,,,,4,w,LoDemTar,g,1,0.5198361013317481,,,,,,,,,,,,,,,,,,339,2023-11-27_14h09.58.703,leap3,2022.2.5,60.094483406985056,
,,,,,,,,,,,,,,,,,,,,2,0,2,0,28,0,28,0,,,,,,halents,nw,h,upper,,,,,,,4,w,LoDemTar,h,1,0.6499581963289529,,,,,,,,,,,,,,,,,,339,2023-11-27_14h09.58.703,leap3,2022.2.5,60.094483406985056,
,,,,,,,,,,,,,,,,,,,,2,0,2,0,29,0,29,0,,,,,,prison,w,g,upper,,,,,,,4,nw,LoDemTar,g,1,0.4943702621385455,,,,,,,,,,,,,,,,,,339,2023-11-27_14h09.58.703,leap3,2022.2.5,60.094483406985056,
,,,,,,,,,,,,,,,,,,,,2,0,2,0,,,,,,,,,,,,,,,,,,,,,,,,,,,1,,,,,,,,,,,,,,,,339,2023-11-27_14h09.58.703,leap3,2022.2.5,60.094483406985056,
,,,,,,,,,,,,,,,,,,,,3,0,3,0,0,0,0,0,,,,,,binder,w,g,lower,,,,,,,1,w,HiDemTar,g,1,0.6099041261477396,,,,,,,,,,,,,,,,,,339,2023-11-27_14h09.58.703,leap3,2022.2.5,60.094483406985056,
,,,,,,,,,,,,,,,,,,,,3,0,3,0,1,0,1,0,,,,,,glaims,nw,h,lower,,,,,,,1,nw,HiDemTar,h,1,0.6003958201035857,,,,,,,,,,,,,,,,,,339,2023-11-27_14h09.58.703,leap3,2022.2.5,60.094483406985056,
,,,,,,,,,,,,,,,,,,,,3,0,3,0,2,0,2,0,,,,,,edasion,nw,h,lower,,,,,,,1,nw,HiDemTar,h,1,0.6235862208995968,,,,,,,,,,,,,,,,,,339,2023-11-27_14h09.58.703,leap3,2022.2.5,60.094483406985056,
,,,,,,,,,,,,,,,,,,,,3,0,3,0,3,0,3,0,,,,,,clarms,nw,h,lower,,,,,,,1,nw,HiDemTar,h,1,0.7262885067611933,,,,,,,,,,,,,,,,,,339,2023-11-27_14h09.58.703,leap3,2022.2.5,60.094483406985056,
,,,,,,,,,,,,,,,,,,,,3,0,3,0,4,0,4,0,,,,,,courier,w,g,lower,,,,,,,1,w,HiDemTar,g,1,0.6153177687665448,,,,,,,,,,,,,,,,,,339,2023-11-27_14h09.58.703,leap3,2022.2.5,60.094483406985056,
,,,,,,,,,,,,,,,,,,,,3,0,3,0,5,0,5,0,,,,,,angry,w,g,lower,,,,,,,1,w,HiDemTar,g,1,0.638030105852522,,,,,,,,,,,,,,,,,,339,2023-11-27_14h09.58.703,leap3,2022.2.5,60.094483406985056,
,,,,,,,,,,,,,,,,,,,,3,0,3,0,6,0,6,0,,,,,,deeper,w,g,lower,,,,,,,1,w,HiDemTar,g,1,0.4675748493755236,,,,,,,,,,,,,,,,,,339,2023-11-27_14h09.58.703,leap3,2022.2.5,60.094483406985056,
,,,,,,,,,,,,,,,,,,,,3,0,3,0,7,0,7,0,,,,,,unsmilung,nw,h,lower,,,,,,,1,nw,HiDemTar,h,1,0.6315245969453827,,,,,,,,,,,,,,,,,,339,2023-11-27_14h09.58.703,leap3,2022.2.5,60.094483406985056,
,,,,,,,,,,,,,,,,,,,,3,0,3,0,8,0,8,0,,,,,,arrive,w,g,lower,,,,,,,1,w,HiDemTar,g,1,0.5015971706015989,,,,,,,,,,,,,,,,,,339,2023-11-27_14h09.58.703,leap3,2022.2.5,60.094483406985056,
,,,,,,,,,,,,,,,,,,,,3,0,3,0,9,0,9,0,,,,,,manage,w,g,lower,,,,,,,1,w,HiDemTar,g,1,0.47232238098513335,,,,,,,,,,,,,,,,,,339,2023-11-27_14h09.58.703,leap3,2022.2.5,60.094483406985056,
,,,,,,,,,,,,,,,,,,,,3,0,3,0,10,0,10,0,,,,,,snocks,nw,h,lower,,,,,,,1,nw,HiDemTar,h,1,0.6123494028579444,,,,,,,,,,,,,,,,,,339,2023-11-27_14h09.58.703,leap3,2022.2.5,60.094483406985056,
,,,,,,,,,,,,,,,,,,,,3,0,3,0,11,0,11,0,,,,,,lawsuit,w,g,lower,,,,,,,1,w,HiDemTar,g,1,0.7310224644606933,,,,,,,,,,,,,,,,,,339,2023-11-27_14h09.58.703,leap3,2022.2.5,60.094483406985056,
,,,,,,,,,,,,,,,,,,,,3,0,3,0,12,0,12,0,,,,,,squadroim,nw,h,lower,,,,,,,1,nw,HiDemTar,h,1,0.6611211859853938,,,,,,,,,,,,,,,,,,339,2023-11-27_14h09.58.703,leap3,2022.2.5,60.094483406985056,
,,,,,,,,,,,,,,,,,,,,3,0,3,0,13,0,13,0,,,,,,outfit,w,g,lower,,,,,,,1,w,HiDemTar,g,1,0.5617759415181354,,,,,,,,,,,,,,,,,,339,2023-11-27_14h09.58.703,leap3,2022.2.5,60.094483406985056,
,,,,,,,,,,,,,,,,,,,,3,0,3,0,14,0,14,0,,,,,,culinary,w,g,lower,,,,,,,1,w,HiDemTar,g,1,0.7377338982187212,,,,,,,,,,,,,,,,,,339,2023-11-27_14h09.58.703,leap3,2022.2.5,60.094483406985056,
,,,,,,,,,,,,,,,,,,,,3,0,3,0,15,0,15,0,,,,,,sullen,w,g,lower,,,,,,,1,w,HiDemTar,h,0,0.6749684843234718,,,,,,,,,,,,,,,,,,339,2023-11-27_14h09.58.703,leap3,2022.2.5,60.094483406985056,
,,,,,,,,,,,,,,,,,,,,3,0,3,0,16,0,16,0,,,,,,bailmenz,nw,h,lower,,,,,,,1,nw,HiDemTar,h,1,0.7270642016083002,,,,,,,,,,,,,,,,,,339,2023-11-27_14h09.58.703,leap3,2022.2.5,60.094483406985056,
,,,,,,,,,,,,,,,,,,,,3,0,3,0,17,0,17,0,,,,,,blassed,nw,h,lower,,,,,,,1,nw,HiDemTar,h,1,0.9611469762166962,,,,,,,,,,,,,,,,,,339,2023-11-27_14h09.58.703,leap3,2022.2.5,60.094483406985056,
,,,,,,,,,,,,,,,,,,,,3,0,3,0,18,0,18,0,,,,,,saucer,w,g,lower,,,,,,,1,w,HiDemTar,g,1,0.7699605005327612,,,,,,,,,,,,,,,,,,339,2023-11-27_14h09.58.703,leap3,2022.2.5,60.094483406985056,
,,,,,,,,,,,,,,,,,,,,3,0,3,0,19,0,19,0,,,,,,retreat,w,g,lower,,,,,,,1,w,HiDemTar,g,1,0.7540076024597511,,,,,,,,,,,,,,,,,,339,2023-11-27_14h09.58.703,leap3,2022.2.5,60.094483406985056,
,,,,,,,,,,,,,,,,,,,,3,0,3,0,20,0,20,0,,,,,,outrank,w,g,lower,,,,,,,1,w,HiDemTar,g,1,0.7706862041959539,,,,,,,,,,,,,,,,,,339,2023-11-27_14h09.58.703,leap3,2022.2.5,60.094483406985056,
,,,,,,,,,,,,,,,,,,,,3,0,3,0,21,0,21,0,,,,,,porcupine,target,q,lower,,,,,,,1,target,HiDemTar,q,1,1.0348244294291362,1,,,,,,,,,,,,,,,,,339,2023-11-27_14h09.58.703,leap3,2022.2.5,60.094483406985056,
,,,,,,,,,,,,,,,,,,,,3,0,3,0,22,0,22,0,,,,,,pypecast,nw,h,lower,,,,,,,1,aftertar1,HiDemTar,h,1,0.7994448570534587,,,,,,,,,,,,,,,,,,339,2023-11-27_14h09.58.703,leap3,2022.2.5,60.094483406985056,
,,,,,,,,,,,,,,,,,,,,3,0,3,0,23,0,23,0,,,,,,mandlers,nw,h,lower,,,,,,,1,aftertar2,HiDemTar,h,1,0.7506455952534452,,,,,,,,,,,,,,,,,,339,2023-11-27_14h09.58.703,leap3,2022.2.5,60.094483406985056,
,,,,,,,,,,,,,,,,,,,,3,0,3,0,24,0,24,0,,,,,,selongs,nw,h,lower,,,,,,,1,aftertar3,HiDemTar,h,1,0.7273681231308728,,,,,,,,,,,,,,,,,,339,2023-11-27_14h09.58.703,leap3,2022.2.5,60.094483406985056,
,,,,,,,,,,,,,,,,,,,,3,0,3,0,25,0,25,0,,,,,,ephically,nw,h,lower,,,,,,,1,nw,HiDemTar,h,1,0.6335394838824868,,,,,,,,,,,,,,,,,,339,2023-11-27_14h09.58.703,leap3,2022.2.5,60.094483406985056,
,,,,,,,,,,,,,,,,,,,,3,0,3,0,26,0,26,0,,,,,,hutting,nw,h,lower,,,,,,,1,nw,HiDemTar,h,1,1.071425117435865,,,,,,,,,,,,,,,,,,339,2023-11-27_14h09.58.703,leap3,2022.2.5,60.094483406985056,
,,,,,,,,,,,,,,,,,,,,3,0,3,0,27,0,27,0,,,,,,chyme,nw,h,lower,,,,,,,1,nw,HiDemTar,h,1,0.6194882469717413,,,,,,,,,,,,,,,,,,339,2023-11-27_14h09.58.703,leap3,2022.2.5,60.094483406985056,
,,,,,,,,,,,,,,,,,,,,3,0,3,0,28,0,28,0,,,,,,miurnal,nw,h,lower,,,,,,,1,nw,HiDemTar,h,1,0.6176097606075928,,,,,,,,,,,,,,,,,,339,2023-11-27_14h09.58.703,leap3,2022.2.5,60.094483406985056,
,,,,,,,,,,,,,,,,,,,,3,0,3,0,29,0,29,0,,,,,,target,w,g,lower,,,,,,,1,nw,HiDemTar,g,1,0.47754334146156907,,,,,,,,,,,,,,,,,,339,2023-11-27_14h09.58.703,leap3,2022.2.5,60.094483406985056,
,,,,,,,,,,,,,,,,,,,,3,0,3,0,,,,,,,,,,,,,,,,,,,,,,,,,,,1,,,,,,,,,,,,,,,,339,2023-11-27_14h09.58.703,leap3,2022.2.5,60.094483406985056,
,,,,,,,,,,,,,,,,,,,,4,0,4,0,0,0,0,0,,,,,,demise,w,g,upper,,,,,,,3,w,LoDemNoTar,g,1,0.9791137680877,,,,,,,,,,,,,,,,,,339,2023-11-27_14h09.58.703,leap3,2022.2.5,60.094483406985056,
,,,,,,,,,,,,,,,,,,,,4,0,4,0,1,0,1,0,,,,,,stalemate,w,g,upper,,,,,,,3,w,LoDemNoTar,g,1,0.6431520766345784,,,,,,,,,,,,,,,,,,339,2023-11-27_14h09.58.703,leap3,2022.2.5,60.094483406985056,
,,,,,,,,,,,,,,,,,,,,4,0,4,0,2,0,2,0,,,,,,gaioty,nw,h,upper,,,,,,,3,nw,LoDemNoTar,h,1,0.5925895405234769,,,,,,,,,,,,,,,,,,339,2023-11-27_14h09.58.703,leap3,2022.2.5,60.094483406985056,
,,,,,,,,,,,,,,,,,,,,4,0,4,0,3,0,3,0,,,,,,prillway,nw,h,upper,,,,,,,3,nw,LoDemNoTar,h,1,0.5359876409638673,,,,,,,,,,,,,,,,,,339,2023-11-27_14h09.58.703,leap3,2022.2.5,60.094483406985056,
,,,,,,,,,,,,,,,,,,,,4,0,4,0,4,0,4,0,,,,,,ronic,nw,h,upper,,,,,,,3,nw,LoDemNoTar,h,1,0.6414017140632495,,,,,,,,,,,,,,,,,,339,2023-11-27_14h09.58.703,leap3,2022.2.5,60.094483406985056,
,,,,,,,,,,,,,,,,,,,,4,0,4,0,5,0,5,0,,,,,,advantage,w,g,upper,,,,,,,3,w,LoDemNoTar,g,1,0.60680896055419,,,,,,,,,,,,,,,,,,339,2023-11-27_14h09.58.703,leap3,2022.2.5,60.094483406985056,
,,,,,,,,,,,,,,,,,,,,4,0,4,0,6,0,6,0,,,,,,lofty,w,g,upper,,,,,,,3,w,LoDemNoTar,g,1,0.6446259965887293,,,,,,,,,,,,,,,,,,339,2023-11-27_14h09.58.703,leap3,2022.2.5,60.094483406985056,
,,,,,,,,,,,,,,,,,,,,4,0,4,0,7,0,7,0,,,,,,addition,w,g,upper,,,,,,,3,w,LoDemNoTar,g,1,0.46641974907834083,,,,,,,,,,,,,,,,,,339,2023-11-27_14h09.58.703,leap3,2022.2.5,60.094483406985056,
,,,,,,,,,,,,,,,,,,,,4,0,4,0,8,0,8,0,,,,,,pegend,nw,h,upper,,,,,,,3,nw,LoDemNoTar,h,1,0.7425052667967975,,,,,,,,,,,,,,,,,,339,2023-11-27_14h09.58.703,leap3,2022.2.5,60.094483406985056,
,,,,,,,,,,,,,,,,,,,,4,0,4,0,9,0,9,0,,,,,,otoist,nw,h,upper,,,,,,,3,nw,LoDemNoTar,h,1,0.5841499257367104,,,,,,,,,,,,,,,,,,339,2023-11-27_14h09.58.703,leap3,2022.2.5,60.094483406985056,
,,,,,,,,,,,,,,,,,,,,4,0,4,0,10,0,10,0,,,,,,potent,w,g,upper,,,,,,,3,w,LoDemNoTar,g,1,1.015503233880736,,,,,,,,,,,,,,,,,,339,2023-11-27_14h09.58.703,leap3,2022.2.5,60.094483406985056,
,,,,,,,,,,,,,,,,,,,,4,0,4,0,11,0,11,0,,,,,,painter,w,g,upper,,,,,,,3,w,LoDemNoTar,g,1,0.5102632368216291,,,,,,,,,,,,,,,,,,339,2023-11-27_14h09.58.703,leap3,2022.2.5,60.094483406985056,
,,,,,,,,,,,,,,,,,,,,4,0,4,0,12,0,12,0,,,,,,eightiech,nw,h,upper,,,,,,,3,nw,LoDemNoTar,h,1,1.0809986439999193,,,,,,,,,,,,,,,,,,339,2023-11-27_14h09.58.703,leap3,2022.2.5,60.094483406985056,
,,,,,,,,,,,,,,,,,,,,4,0,4,0,13,0,13,0,,,,,,scrib,nw,h,upper,,,,,,,3,nw,LoDemNoTar,h,1,0.5250746085075662,,,,,,,,,,,,,,,,,,339,2023-11-27_14h09.58.703,leap3,2022.2.5,60.094483406985056,
,,,,,,,,,,,,,,,,,,,,4,0,4,0,14,0,14,0,,,,,,ralliep,nw,h,upper,,,,,,,3,nw,LoDemNoTar,h,1,0.5671366130700335,,,,,,,,,,,,,,,,,,339,2023-11-27_14h09.58.703,leap3,2022.2.5,60.094483406985056,
,,,,,,,,,,,,,,,,,,,,4,0,4,0,15,0,15,0,,,,,,uncorked,w,g,upper,,,,,,,3,w,LoDemNoTar,g,1,0.7272039128001779,,,,,,,,,,,,,,,,,,339,2023-11-27_14h09.58.703,leap3,2022.2.5,60.094483406985056,
,,,,,,,,,,,,,,,,,,,,4,0,4,0,16,0,16,0,,,,,,mitro,nw,h,upper,,,,,,,3,nw,LoDemNoTar,h,1,0.7763988022925332,,,,,,,,,,,,,,,,,,339,2023-11-27_14h09.58.703,leap3,2022.2.5,60.094483406985056,
,,,,,,,,,,,,,,,,,,,,4,0,4,0,17,0,17,0,,,,,,nearsipe,nw,h,upper,,,,,,,3,nw,LoDemNoTar,g,0,0.5924008311703801,,,,,,,,,,,,,,,,,,339,2023-11-27_14h09.58.703,leap3,2022.2.5,60.094483406985056,
,,,,,,,,,,,,,,,,,,,,4,0,4,0,18,0,18,0,,,,,,tusied,nw,h,upper,,,,,,,3,nw,LoDemNoTar,h,1,0.6077256910502911,,,,,,,,,,,,,,,,,,339,2023-11-27_14h09.58.703,leap3,2022.2.5,60.094483406985056,
,,,,,,,,,,,,,,,,,,,,4,0,4,0,19,0,19,0,,,,,,acorn,w,g,upper,,,,,,,3,w,LoDemNoTar,g,1,0.6384548676433042,,,,,,,,,,,,,,,,,,339,2023-11-27_14h09.58.703,leap3,2022.2.5,60.094483406985056,
,,,,,,,,,,,,,,,,,,,,4,0,4,0,20,0,20,0,,,,,,aggepting,nw,h,upper,,,,,,,3,nw,LoDemNoTar,h,1,0.6919076374033466,,,,,,,,,,,,,,,,,,339,2023-11-27_14h09.58.703,leap3,2022.2.5,60.094483406985056,
,,,,,,,,,,,,,,,,,,,,4,0,4,0,21,0,21,0,,,,,,deadly,w,g,upper,,,,,,,3,w,LoDemNoTar,g,1,0.6232962042558938,,,,,,,,,,,,,,,,,,339,2023-11-27_14h09.58.703,leap3,2022.2.5,60.094483406985056,
,,,,,,,,,,,,,,,,,,,,4,0,4,0,22,0,22,0,,,,,,venturous,w,g,upper,,,,,,,3,w,LoDemNoTar,g,1,0.8613306203624234,,,,,,,,,,,,,,,,,,339,2023-11-27_14h09.58.703,leap3,2022.2.5,60.094483406985056,
,,,,,,,,,,,,,,,,,,,,4,0,4,0,23,0,23,0,,,,,,ignoble,w,g,upper,,,,,,,3,w,LoDemNoTar,h,0,0.8896271006669849,,,,,,,,,,,,,,,,,,339,2023-11-27_14h09.58.703,leap3,2022.2.5,60.094483406985056,
,,,,,,,,,,,,,,,,,,,,4,0,4,0,24,0,24,0,,,,,,saturate,w,g,upper,,,,,,,3,w,LoDemNoTar,g,1,0.6284562482032925,,,,,,,,,,,,,,,,,,339,2023-11-27_14h09.58.703,leap3,2022.2.5,60.094483406985056,
,,,,,,,,,,,,,,,,,,,,4,0,4,0,25,0,25,0,,,,,,deceit,w,g,upper,,,,,,,3,w,LoDemNoTar,g,1,0.7226715761935338,,,,,,,,,,,,,,,,,,339,2023-11-27_14h09.58.703,leap3,2022.2.5,60.094483406985056,
,,,,,,,,,,,,,,,,,,,,4,0,4,0,26,0,26,0,,,,,,crudios,nw,h,upper,,,,,,,3,nw,LoDemNoTar,h,1,0.6687092909123749,,,,,,,,,,,,,,,,,,339,2023-11-27_14h09.58.703,leap3,2022.2.5,60.094483406985056,
,,,,,,,,,,,,,,,,,,,,4,0,4,0,27,0,27,0,,,,,,doads,nw,h,upper,,,,,,,3,nw,LoDemNoTar,h,1,0.7047832477837801,,,,,,,,,,,,,,,,,,339,2023-11-27_14h09.58.703,leap3,2022.2.5,60.094483406985056,
,,,,,,,,,,,,,,,,,,,,4,0,4,0,28,0,28,0,,,,,,gettle,nw,h,upper,,,,,,,3,nw,LoDemNoTar,h,1,0.6195637307828292,,,,,,,,,,,,,,,,,,339,2023-11-27_14h09.58.703,leap3,2022.2.5,60.094483406985056,
,,,,,,,,,,,,,,,,,,,,4,0,4,0,29,0,29,0,,,,,,telecast,w,g,upper,,,,,,,3,w,LoDemNoTar,h,0,0.7537116265157238,,,,,,,,,,,,,,,,,,339,2023-11-27_14h09.58.703,leap3,2022.2.5,60.094483406985056,
,,,,,,,,,,,,,,,,,,,,4,0,4,0,,,,,,,,,,,,,,,,,,,,,,,,,,,NA,,,,,,,,,,,,,,,,339,2023-11-27_14h09.58.703,leap3,2022.2.5,60.094483406985056,
,,,,,,,,,,,,,,,,,,,,5,0,5,0,0,0,0,0,,,,,,ements,nw,h,upper,,,,,,,3,nw,LoDemNoTar,h,1,0.7698184719774872,,,,,,,,,,,,,,,,,,339,2023-11-27_14h09.58.703,leap3,2022.2.5,60.094483406985056,
,,,,,,,,,,,,,,,,,,,,5,0,5,0,1,0,1,0,,,,,,quickel,nw,h,upper,,,,,,,3,nw,LoDemNoTar,h,1,0.5698179422179237,,,,,,,,,,,,,,,,,,339,2023-11-27_14h09.58.703,leap3,2022.2.5,60.094483406985056,
,,,,,,,,,,,,,,,,,,,,5,0,5,0,2,0,2,0,,,,,,amidst,w,g,upper,,,,,,,3,w,LoDemNoTar,h,0,0.44991231011226773,,,,,,,,,,,,,,,,,,339,2023-11-27_14h09.58.703,leap3,2022.2.5,60.094483406985056,
,,,,,,,,,,,,,,,,,,,,5,0,5,0,3,0,3,0,,,,,,ciping,nw,h,upper,,,,,,,3,nw,LoDemNoTar,h,1,0.6072476272238418,,,,,,,,,,,,,,,,,,339,2023-11-27_14h09.58.703,leap3,2022.2.5,60.094483406985056,
,,,,,,,,,,,,,,,,,,,,5,0,5,0,4,0,4,0,,,,,,pamine,nw,h,upper,,,,,,,3,nw,LoDemNoTar,h,1,0.6379817697452381,,,,,,,,,,,,,,,,,,339,2023-11-27_14h09.58.703,leap3,2022.2.5,60.094483406985056,
,,,,,,,,,,,,,,,,,,,,5,0,5,0,5,0,5,0,,,,,,geissue,nw,h,upper,,,,,,,3,nw,LoDemNoTar,h,1,0.47541125619318336,,,,,,,,,,,,,,,,,,339,2023-11-27_14h09.58.703,leap3,2022.2.5,60.094483406985056,
,,,,,,,,,,,,,,,,,,,,5,0,5,0,6,0,6,0,,,,,,hasks,nw,h,upper,,,,,,,3,nw,LoDemNoTar,h,1,0.7995405360125005,,,,,,,,,,,,,,,,,,339,2023-11-27_14h09.58.703,leap3,2022.2.5,60.094483406985056,
,,,,,,,,,,,,,,,,,,,,5,0,5,0,7,0,7,0,,,,,,goblet,w,g,upper,,,,,,,3,w,LoDemNoTar,g,1,0.7188947392860427,,,,,,,,,,,,,,,,,,339,2023-11-27_14h09.58.703,leap3,2022.2.5,60.094483406985056,
,,,,,,,,,,,,,,,,,,,,5,0,5,0,8,0,8,0,,,,,,bamboo,w,g,upper,,,,,,,3,w,LoDemNoTar,g,1,0.5449476965004578,,,,,,,,,,,,,,,,,,339,2023-11-27_14h09.58.703,leap3,2022.2.5,60.094483406985056,
,,,,,,,,,,,,,,,,,,,,5,0,5,0,9,0,9,0,,,,,,mineluyer,nw,h,upper,,,,,,,3,nw,LoDemNoTar,h,1,0.6894484558142722,,,,,,,,,,,,,,,,,,339,2023-11-27_14h09.58.703,leap3,2022.2.5,60.094483406985056,
,,,,,,,,,,,,,,,,,,,,5,0,5,0,10,0,10,0,,,,,,trake,nw,h,upper,,,,,,,3,nw,LoDemNoTar,h,1,0.6847701176302508,,,,,,,,,,,,,,,,,,339,2023-11-27_14h09.58.703,leap3,2022.2.5,60.094483406985056,
,,,,,,,,,,,,,,,,,,,,5,0,5,0,11,0,11,0,,,,,,burning,w,g,upper,,,,,,,3,w,LoDemNoTar,g,1,0.7761938705807552,,,,,,,,,,,,,,,,,,339,2023-11-27_14h09.58.703,leap3,2022.2.5,60.094483406985056,
,,,,,,,,,,,,,,,,,,,,5,0,5,0,12,0,12,0,,,,,,fomrade,nw,h,upper,,,,,,,3,nw,LoDemNoTar,h,1,0.7682329817907885,,,,,,,,,,,,,,,,,,339,2023-11-27_14h09.58.703,leap3,2022.2.5,60.094483406985056,
,,,,,,,,,,,,,,,,,,,,5,0,5,0,13,0,13,0,,,,,,clooped,nw,h,upper,,,,,,,3,nw,LoDemNoTar,h,1,0.8559305514208972,,,,,,,,,,,,,,,,,,339,2023-11-27_14h09.58.703,leap3,2022.2.5,60.094483406985056,
,,,,,,,,,,,,,,,,,,,,5,0,5,0,14,0,14,0,,,,,,throttle,w,g,upper,,,,,,,3,w,LoDemNoTar,h,0,0.5650690862676129,,,,,,,,,,,,,,,,,,339,2023-11-27_14h09.58.703,leap3,2022.2.5,60.094483406985056,
,,,,,,,,,,,,,,,,,,,,5,0,5,0,15,0,15,0,,,,,,mandate,w,g,upper,,,,,,,3,w,LoDemNoTar,g,1,0.6937367944046855,,,,,,,,,,,,,,,,,,339,2023-11-27_14h09.58.703,leap3,2022.2.5,60.094483406985056,
,,,,,,,,,,,,,,,,,,,,5,0,5,0,16,0,16,0,,,,,,despise,w,g,upper,,,,,,,3,w,LoDemNoTar,g,1,0.5051247125957161,,,,,,,,,,,,,,,,,,339,2023-11-27_14h09.58.703,leap3,2022.2.5,60.094483406985056,
,,,,,,,,,,,,,,,,,,,,5,0,5,0,17,0,17,0,,,,,,terming,w,g,upper,,,,,,,3,w,LoDemNoTar,h,0,0.6675793518079445,,,,,,,,,,,,,,,,,,339,2023-11-27_14h09.58.703,leap3,2022.2.5,60.094483406985056,
,,,,,,,,,,,,,,,,,,,,5,0,5,0,18,0,18,0,,,,,,priant,nw,h,upper,,,,,,,3,nw,LoDemNoTar,h,1,0.623766322620213,,,,,,,,,,,,,,,,,,339,2023-11-27_14h09.58.703,leap3,2022.2.5,60.094483406985056,
,,,,,,,,,,,,,,,,,,,,5,0,5,0,19,0,19,0,,,,,,filny,nw,h,upper,,,,,,,3,nw,LoDemNoTar,h,1,0.7257591270608827,,,,,,,,,,,,,,,,,,339,2023-11-27_14h09.58.703,leap3,2022.2.5,60.094483406985056,
,,,,,,,,,,,,,,,,,,,,5,0,5,0,20,0,20,0,,,,,,ecistle,nw,h,upper,,,,,,,3,nw,LoDemNoTar,h,1,0.5597978031728417,,,,,,,,,,,,,,,,,,339,2023-11-27_14h09.58.703,leap3,2022.2.5,60.094483406985056,
,,,,,,,,,,,,,,,,,,,,5,0,5,0,21,0,21,0,,,,,,slowning,nw,h,upper,,,,,,,3,nw,LoDemNoTar,h,1,0.8400922032305971,,,,,,,,,,,,,,,,,,339,2023-11-27_14h09.58.703,leap3,2022.2.5,60.094483406985056,
,,,,,,,,,,,,,,,,,,,,5,0,5,0,22,0,22,0,,,,,,butler,w,g,upper,,,,,,,3,w,LoDemNoTar,g,1,0.7820187011966482,,,,,,,,,,,,,,,,,,339,2023-11-27_14h09.58.703,leap3,2022.2.5,60.094483406985056,
,,,,,,,,,,,,,,,,,,,,5,0,5,0,23,0,23,0,,,,,,giving,w,g,upper,,,,,,,3,w,LoDemNoTar,g,1,0.6460850182920694,,,,,,,,,,,,,,,,,,339,2023-11-27_14h09.58.703,leap3,2022.2.5,60.094483406985056,
,,,,,,,,,,,,,,,,,,,,5,0,5,0,24,0,24,0,,,,,,populace,w,g,upper,,,,,,,3,w,LoDemNoTar,h,0,1.1235718193929642,,,,,,,,,,,,,,,,,,339,2023-11-27_14h09.58.703,leap3,2022.2.5,60.094483406985056,
,,,,,,,,,,,,,,,,,,,,5,0,5,0,25,0,25,0,,,,,,suspect,w,g,upper,,,,,,,3,w,LoDemNoTar,g,1,0.7335809668293223,,,,,,,,,,,,,,,,,,339,2023-11-27_14h09.58.703,leap3,2022.2.5,60.094483406985056,
,,,,,,,,,,,,,,,,,,,,5,0,5,0,26,0,26,0,,,,,,system,w,g,upper,,,,,,,3,w,LoDemNoTar,g,1,0.7997888377867639,,,,,,,,,,,,,,,,,,339,2023-11-27_14h09.58.703,leap3,2022.2.5,60.094483406985056,
,,,,,,,,,,,,,,,,,,,,5,0,5,0,27,0,27,0,,,,,,mebase,nw,h,upper,,,,,,,3,nw,LoDemNoTar,h,1,0.7102803199086338,,,,,,,,,,,,,,,,,,339,2023-11-27_14h09.58.703,leap3,2022.2.5,60.094483406985056,
,,,,,,,,,,,,,,,,,,,,5,0,5,0,28,0,28,0,,,,,,intercede,w,g,upper,,,,,,,3,w,LoDemNoTar,h,0,0.9369180114008486,,,,,,,,,,,,,,,,,,339,2023-11-27_14h09.58.703,leap3,2022.2.5,60.094483406985056,
,,,,,,,,,,,,,,,,,,,,5,0,5,0,29,0,29,0,,,,,,epic,w,g,upper,,,,,,,3,w,LoDemNoTar,g,1,0.7622849934268743,,,,,,,,,,,,,,,,,,339,2023-11-27_14h09.58.703,leap3,2022.2.5,60.094483406985056,
,,,,,,,,,,,,,,,,,,,,5,0,5,0,,,,,,,,,,,,,,,,,,,,,,,,,,,NA,,,,,,,,,,,,,,,,339,2023-11-27_14h09.58.703,leap3,2022.2.5,60.094483406985056,
,,,,,,,,,,,,,,,,,,,,6,0,6,0,0,0,0,0,,,,,,odacles,nw,h,lower,,,,,,,1,nw,HiDemTar,h,1,0.7393236923962831,,,,,,,,,,,,,,,,,,339,2023-11-27_14h09.58.703,leap3,2022.2.5,60.094483406985056,
,,,,,,,,,,,,,,,,,,,,6,0,6,0,1,0,1,0,,,,,,ascending,w,g,lower,,,,,,,1,w,HiDemTar,g,1,0.7398007629672065,,,,,,,,,,,,,,,,,,339,2023-11-27_14h09.58.703,leap3,2022.2.5,60.094483406985056,
,,,,,,,,,,,,,,,,,,,,6,0,6,0,2,0,2,0,,,,,,knowledge,w,g,lower,,,,,,,1,w,HiDemTar,g,1,0.5252967559499666,,,,,,,,,,,,,,,,,,339,2023-11-27_14h09.58.703,leap3,2022.2.5,60.094483406985056,
,,,,,,,,,,,,,,,,,,,,6,0,6,0,3,0,3,0,,,,,,formation,w,g,lower,,,,,,,1,w,HiDemTar,g,1,0.6711734386626631,,,,,,,,,,,,,,,,,,339,2023-11-27_14h09.58.703,leap3,2022.2.5,60.094483406985056,
,,,,,,,,,,,,,,,,,,,,6,0,6,0,4,0,4,0,,,,,,religious,w,g,lower,,,,,,,1,w,HiDemTar,g,1,0.6833024880615994,,,,,,,,,,,,,,,,,,339,2023-11-27_14h09.58.703,leap3,2022.2.5,60.094483406985056,
,,,,,,,,,,,,,,,,,,,,6,0,6,0,5,0,5,0,,,,,,baladroit,nw,h,lower,,,,,,,1,nw,HiDemTar,h,1,0.743310758145526,,,,,,,,,,,,,,,,,,339,2023-11-27_14h09.58.703,leap3,2022.2.5,60.094483406985056,
,,,,,,,,,,,,,,,,,,,,6,0,6,0,6,0,6,0,,,,,,imotope,nw,h,lower,,,,,,,1,nw,HiDemTar,h,1,0.5846978452755138,,,,,,,,,,,,,,,,,,339,2023-11-27_14h09.58.703,leap3,2022.2.5,60.094483406985056,
,,,,,,,,,,,,,,,,,,,,6,0,6,0,7,0,7,0,,,,,,booster,w,g,lower,,,,,,,1,w,HiDemTar,g,1,0.6801182649796829,,,,,,,,,,,,,,,,,,339,2023-11-27_14h09.58.703,leap3,2022.2.5,60.094483406985056,
,,,,,,,,,,,,,,,,,,,,6,0,6,0,8,0,8,0,,,,,,standard,w,g,lower,,,,,,,1,w,HiDemTar,g,1,0.5323054897598922,,,,,,,,,,,,,,,,,,339,2023-11-27_14h09.58.703,leap3,2022.2.5,60.094483406985056,
,,,,,,,,,,,,,,,,,,,,6,0,6,0,9,0,9,0,,,,,,peags,nw,h,lower,,,,,,,1,nw,HiDemTar,h,1,0.7181048082420602,,,,,,,,,,,,,,,,,,339,2023-11-27_14h09.58.703,leap3,2022.2.5,60.094483406985056,
,,,,,,,,,,,,,,,,,,,,6,0,6,0,10,0,10,0,,,,,,graiking,nw,h,lower,,,,,,,1,nw,HiDemTar,h,1,0.4961927979020402,,,,,,,,,,,,,,,,,,339,2023-11-27_14h09.58.703,leap3,2022.2.5,60.094483406985056,
,,,,,,,,,,,,,,,,,,,,6,0,6,0,11,0,11,0,,,,,,delegate,w,g,lower,,,,,,,1,w,HiDemTar,g,1,0.6415321553358808,,,,,,,,,,,,,,,,,,339,2023-11-27_14h09.58.703,leap3,2022.2.5,60.094483406985056,
,,,,,,,,,,,,,,,,,,,,6,0,6,0,12,0,12,0,,,,,,ready,w,g,lower,,,,,,,1,w,HiDemTar,g,1,0.5668657985515893,,,,,,,,,,,,,,,,,,339,2023-11-27_14h09.58.703,leap3,2022.2.5,60.094483406985056,
,,,,,,,,,,,,,,,,,,,,6,0,6,0,13,0,13,0,,,,,,joadbed,nw,h,lower,,,,,,,1,nw,HiDemTar,h,1,0.6247797252144665,,,,,,,,,,,,,,,,,,339,2023-11-27_14h09.58.703,leap3,2022.2.5,60.094483406985056,
,,,,,,,,,,,,,,,,,,,,6,0,6,0,14,0,14,0,,,,,,plunging,w,g,lower,,,,,,,1,w,HiDemTar,g,1,1.0229377227369696,,,,,,,,,,,,,,,,,,339,2023-11-27_14h09.58.703,leap3,2022.2.5,60.094483406985056,
,,,,,,,,,,,,,,,,,,,,6,0,6,0,15,0,15,0,,,,,,elephant,target,q,lower,,,,,,,1,target,HiDemTar,q,1,0.6769545681308955,1,,,,,,,,,,,,,,,,,339,2023-11-27_14h09.58.703,leap3,2022.2.5,60.094483406985056,
,,,,,,,,,,,,,,,,,,,,6,0,6,0,16,0,16,0,,,,,,oppose,w,g,lower,,,,,,,1,aftertar1,HiDemTar,g,1,0.6571486871689558,,,,,,,,,,,,,,,,,,339,2023-11-27_14h09.58.703,leap3,2022.2.5,60.094483406985056,
,,,,,,,,,,,,,,,,,,,,6,0,6,0,17,0,17,0,,,,,,seartfelt,nw,h,lower,,,,,,,1,aftertar2,HiDemTar,h,1,0.6858033844036981,,,,,,,,,,,,,,,,,,339,2023-11-27_14h09.58.703,leap3,2022.2.5,60.094483406985056,
,,,,,,,,,,,,,,,,,,,,6,0,6,0,18,0,18,0,,,,,,bypassed,w,g,lower,,,,,,,1,aftertar3,HiDemTar,g,1,0.7452524786349386,,,,,,,,,,,,,,,,,,339,2023-11-27_14h09.58.703,leap3,2022.2.5,60.094483406985056,
,,,,,,,,,,,,,,,,,,,,6,0,6,0,19,0,19,0,,,,,,pregs,nw,h,lower,,,,,,,1,w,HiDemTar,h,1,0.6026345096761361,,,,,,,,,,,,,,,,,,339,2023-11-27_14h09.58.703,leap3,2022.2.5,60.094483406985056,
,,,,,,,,,,,,,,,,,,,,6,0,6,0,20,0,20,0,,,,,,melodic,w,g,lower,,,,,,,1,nw,HiDemTar,g,1,0.9125291403615847,,,,,,,,,,,,,,,,,,339,2023-11-27_14h09.58.703,leap3,2022.2.5,60.094483406985056,
,,,,,,,,,,,,,,,,,,,,6,0,6,0,21,0,21,0,,,,,,paterways,nw,h,lower,,,,,,,1,w,HiDemTar,h,1,0.6995139512000605,,,,,,,,,,,,,,,,,,339,2023-11-27_14h09.58.703,leap3,2022.2.5,60.094483406985056,
,,,,,,,,,,,,,,,,,,,,6,0,6,0,22,0,22,0,,,,,,mystery,w,g,lower,,,,,,,1,nw,HiDemTar,g,1,0.5905630661873147,,,,,,,,,,,,,,,,,,339,2023-11-27_14h09.58.703,leap3,2022.2.5,60.094483406985056,
,,,,,,,,,,,,,,,,,,,,6,0,6,0,23,0,23,0,,,,,,eggays,nw,h,lower,,,,,,,1,w,HiDemTar,h,1,0.5979766978416592,,,,,,,,,,,,,,,,,,339,2023-11-27_14h09.58.703,leap3,2022.2.5,60.094483406985056,
,,,,,,,,,,,,,,,,,,,,6,0,6,0,24,0,24,0,,,,,,ebuating,nw,h,lower,,,,,,,1,nw,HiDemTar,h,1,0.5494373252149671,,,,,,,,,,,,,,,,,,339,2023-11-27_14h09.58.703,leap3,2022.2.5,60.094483406985056,
,,,,,,,,,,,,,,,,,,,,6,0,6,0,25,0,25,0,,,,,,abraid,nw,h,lower,,,,,,,1,nw,HiDemTar,h,1,0.6947432446759194,,,,,,,,,,,,,,,,,,339,2023-11-27_14h09.58.703,leap3,2022.2.5,60.094483406985056,
,,,,,,,,,,,,,,,,,,,,6,0,6,0,26,0,26,0,,,,,,optional,w,g,lower,,,,,,,1,nw,HiDemTar,g,1,0.6821659276029095,,,,,,,,,,,,,,,,,,339,2023-11-27_14h09.58.703,leap3,2022.2.5,60.094483406985056,
,,,,,,,,,,,,,,,,,,,,6,0,6,0,27,0,27,0,,,,,,gigoho,nw,h,lower,,,,,,,1,w,HiDemTar,h,1,0.5982485056156293,,,,,,,,,,,,,,,,,,339,2023-11-27_14h09.58.703,leap3,2022.2.5,60.094483406985056,
,,,,,,,,,,,,,,,,,,,,6,0,6,0,28,0,28,0,,,,,,smabled,nw,h,lower,,,,,,,1,nw,HiDemTar,h,1,0.8937138182809576,,,,,,,,,,,,,,,,,,339,2023-11-27_14h09.58.703,leap3,2022.2.5,60.094483406985056,
,,,,,,,,,,,,,,,,,,,,6,0,6,0,29,0,29,0,,,,,,maroon,w,g,lower,,,,,,,1,nw,HiDemTar,g,1,0.8561781911412254,,,,,,,,,,,,,,,,,,339,2023-11-27_14h09.58.703,leap3,2022.2.5,60.094483406985056,
,,,,,,,,,,,,,,,,,,,,6,0,6,0,,,,,,,,,,,,,,,,,,,,,,,,,,,1,,,,,,,,,,,,,,,,339,2023-11-27_14h09.58.703,leap3,2022.2.5,60.094483406985056,
,,,,,,,,,,,,,,,,,,,,7,0,7,0,0,0,0,0,,,,,,atsless,nw,h,upper,,,,,,,3,nw,LoDemNoTar,h,1,0.7250559361418709,,,,,,,,,,,,,,,,,,339,2023-11-27_14h09.58.703,leap3,2022.2.5,60.094483406985056,
,,,,,,,,,,,,,,,,,,,,7,0,7,0,1,0,1,0,,,,,,trophy,w,g,upper,,,,,,,3,w,LoDemNoTar,g,1,0.6391812333604321,,,,,,,,,,,,,,,,,,339,2023-11-27_14h09.58.703,leap3,2022.2.5,60.094483406985056,
,,,,,,,,,,,,,,,,,,,,7,0,7,0,2,0,2,0,,,,,,athcan,nw,h,upper,,,,,,,3,nw,LoDemNoTar,h,1,0.5405153426108882,,,,,,,,,,,,,,,,,,339,2023-11-27_14h09.58.703,leap3,2022.2.5,60.094483406985056,
,,,,,,,,,,,,,,,,,,,,7,0,7,0,3,0,3,0,,,,,,primal,w,g,upper,,,,,,,3,w,LoDemNoTar,g,1,0.5819592410698533,,,,,,,,,,,,,,,,,,339,2023-11-27_14h09.58.703,leap3,2022.2.5,60.094483406985056,
,,,,,,,,,,,,,,,,,,,,7,0,7,0,4,0,4,0,,,,,,frader,nw,h,upper,,,,,,,3,nw,LoDemNoTar,h,1,0.5307451609987766,,,,,,,,,,,,,,,,,,339,2023-11-27_14h09.58.703,leap3,2022.2.5,60.094483406985056,
,,,,,,,,,,,,,,,,,,,,7,0,7,0,5,0,5,0,,,,,,bingu,nw,h,upper,,,,,,,3,nw,LoDemNoTar,h,1,0.4711374845355749,,,,,,,,,,,,,,,,,,339,2023-11-27_14h09.58.703,leap3,2022.2.5,60.094483406985056,
,,,,,,,,,,,,,,,,,,,,7,0,7,0,6,0,6,0,,,,,,airmen,w,g,upper,,,,,,,3,w,LoDemNoTar,g,1,0.7471342757344246,,,,,,,,,,,,,,,,,,339,2023-11-27_14h09.58.703,leap3,2022.2.5,60.094483406985056,
,,,,,,,,,,,,,,,,,,,,7,0,7,0,7,0,7,0,,,,,,desert,w,g,upper,,,,,,,3,w,LoDemNoTar,g,1,0.5966345433844253,,,,,,,,,,,,,,,,,,339,2023-11-27_14h09.58.703,leap3,2022.2.5,60.094483406985056,
,,,,,,,,,,,,,,,,,,,,7,0,7,0,8,0,8,0,,,,,,incidonts,nw,h,upper,,,,,,,3,nw,LoDemNoTar,h,1,0.7150099738501012,,,,,,,,,,,,,,,,,,339,2023-11-27_14h09.58.703,leap3,2022.2.5,60.094483406985056,
,,,,,,,,,,,,,,,,,,,,7,0,7,0,9,0,9,0,,,,,,scack,nw,h,upper,,,,,,,3,nw,LoDemNoTar,h,1,0.6060998104512691,,,,,,,,,,,,,,,,,,339,2023-11-27_14h09.58.703,leap3,2022.2.5,60.094483406985056,
,,,,,,,,,,,,,,,,,,,,7,0,7,0,10,0,10,0,,,,,,shests,nw,h,upper,,,,,,,3,nw,LoDemNoTar,h,1,0.5968235839391127,,,,,,,,,,,,,,,,,,339,2023-11-27_14h09.58.703,leap3,2022.2.5,60.094483406985056,
,,,,,,,,,,,,,,,,,,,,7,0,7,0,11,0,11,0,,,,,,gairs,nw,h,upper,,,,,,,3,nw,LoDemNoTar,h,1,0.38823280297219753,,,,,,,,,,,,,,,,,,339,2023-11-27_14h09.58.703,leap3,2022.2.5,60.094483406985056,
,,,,,,,,,,,,,,,,,,,,7,0,7,0,12,0,12,0,,,,,,brother,w,g,upper,,,,,,,3,w,LoDemNoTar,q,0,0.6356689205858856,,,,,,,,,,,,,,,,,,339,2023-11-27_14h09.58.703,leap3,2022.2.5,60.094483406985056,
,,,,,,,,,,,,,,,,,,,,7,0,7,0,13,0,13,0,,,,,,funtair,nw,h,upper,,,,,,,3,nw,LoDemNoTar,h,1,1.3441350541543216,,,,,,,,,,,,,,,,,,339,2023-11-27_14h09.58.703,leap3,2022.2.5,60.094483406985056,
,,,,,,,,,,,,,,,,,,,,7,0,7,0,14,0,14,0,,,,,,curtail,w,g,upper,,,,,,,3,w,LoDemNoTar,h,0,0.6408686927752569,,,,,,,,,,,,,,,,,,339,2023-11-27_14h09.58.703,leap3,2022.2.5,60.094483406985056,
,,,,,,,,,,,,,,,,,,,,7,0,7,0,15,0,15,0,,,,,,column,w,g,upper,,,,,,,3,w,LoDemNoTar,g,1,0.6302317719673738,,,,,,,,,,,,,,,,,,339,2023-11-27_14h09.58.703,leap3,2022.2.5,60.094483406985056,
,,,,,,,,,,,,,,,,,,,,7,0,7,0,16,0,16,0,,,,,,ronvince,nw,h,upper,,,,,,,3,nw,LoDemNoTar,h,1,0.7003803590778261,,,,,,,,,,,,,,,,,,339,2023-11-27_14h09.58.703,leap3,2022.2.5,60.094483406985056,
,,,,,,,,,,,,,,,,,,,,7,0,7,0,17,0,17,0,,,,,,ofsters,nw,h,upper,,,,,,,3,nw,LoDemNoTar,h,1,0.7671070154756308,,,,,,,,,,,,,,,,,,339,2023-11-27_14h09.58.703,leap3,2022.2.5,60.094483406985056,
,,,,,,,,,,,,,,,,,,,,7,0,7,0,18,0,18,0,,,,,,addma,nw,h,upper,,,,,,,3,nw,LoDemNoTar,h,1,0.5350927610415965,,,,,,,,,,,,,,,,,,339,2023-11-27_14h09.58.703,leap3,2022.2.5,60.094483406985056,
,,,,,,,,,,,,,,,,,,,,7,0,7,0,19,0,19,0,,,,,,gures,nw,h,upper,,,,,,,3,nw,LoDemNoTar,h,1,0.5044903840171173,,,,,,,,,,,,,,,,,,339,2023-11-27_14h09.58.703,leap3,2022.2.5,60.094483406985056,
,,,,,,,,,,,,,,,,,,,,7,0,7,0,20,0,20,0,,,,,,omission,w,g,upper,,,,,,,3,w,LoDemNoTar,g,1,0.7072566653368995,,,,,,,,,,,,,,,,,,339,2023-11-27_14h09.58.703,leap3,2022.2.5,60.094483406985056,
,,,,,,,,,,,,,,,,,,,,7,0,7,0,21,0,21,0,,,,,,region,w,g,upper,,,,,,,3,w,LoDemNoTar,g,1,0.7660667962627485,,,,,,,,,,,,,,,,,,339,2023-11-27_14h09.58.703,leap3,2022.2.5,60.094483406985056,
,,,,,,,,,,,,,,,,,,,,7,0,7,0,22,0,22,0,,,,,,handed,w,g,upper,,,,,,,3,w,LoDemNoTar,g,1,0.9251720090396702,,,,,,,,,,,,,,,,,,339,2023-11-27_14h09.58.703,leap3,2022.2.5,60.094483406985056,
,,,,,,,,,,,,,,,,,,,,7,0,7,0,23,0,23,0,,,,,,guitar,w,g,upper,,,,,,,3,w,LoDemNoTar,g,1,0.8392734691733494,,,,,,,,,,,,,,,,,,339,2023-11-27_14h09.58.703,leap3,2022.2.5,60.094483406985056,
,,,,,,,,,,,,,,,,,,,,7,0,7,0,24,0,24,0,,,,,,splatter,w,g,upper,,,,,,,3,w,LoDemNoTar,g,1,0.9805949713336304,,,,,,,,,,,,,,,,,,339,2023-11-27_14h09.58.703,leap3,2022.2.5,60.094483406985056,
,,,,,,,,,,,,,,,,,,,,7,0,7,0,25,0,25,0,,,,,,comment,w,g,upper,,,,,,,3,w,LoDemNoTar,g,1,0.5079401246039197,,,,,,,,,,,,,,,,,,339,2023-11-27_14h09.58.703,leap3,2022.2.5,60.094483406985056,
,,,,,,,,,,,,,,,,,,,,7,0,7,0,26,0,26,0,,,,,,slogan,w,g,upper,,,,,,,3,w,LoDemNoTar,g,1,0.5987600074149668,,,,,,,,,,,,,,,,,,339,2023-11-27_14h09.58.703,leap3,2022.2.5,60.094483406985056,
,,,,,,,,,,,,,,,,,,,,7,0,7,0,27,0,27,0,,,,,,defeat,w,g,upper,,,,,,,3,w,LoDemNoTar,g,1,0.6130701404763386,,,,,,,,,,,,,,,,,,339,2023-11-27_14h09.58.703,leap3,2022.2.5,60.094483406985056,
,,,,,,,,,,,,,,,,,,,,7,0,7,0,28,0,28,0,,,,,,walsams,nw,h,upper,,,,,,,3,nw,LoDemNoTar,h,1,0.6195723385317251,,,,,,,,,,,,,,,,,,339,2023-11-27_14h09.58.703,leap3,2022.2.5,60.094483406985056,
,,,,,,,,,,,,,,,,,,,,7,0,7,0,29,0,29,0,,,,,,wrecber,nw,h,upper,,,,,,,3,nw,LoDemNoTar,h,1,0.8569422987056896,,,,,,,,,,,,,,,,,,339,2023-11-27_14h09.58.703,leap3,2022.2.5,60.094483406985056,
,,,,,,,,,,,,,,,,,,,,7,0,7,0,,,,,,,,,,,,,,,,,,,,,,,,,,,NA,,,,,,,,,,,,,,,,339,2023-11-27_14h09.58.703,leap3,2022.2.5,60.094483406985056,
,,,,,,,,,,,,,,,,,,,,8,0,8,0,0,0,0,0,,,,,,churnad,nw,h,upper,,,,,,,3,nw,LoDemNoTar,h,1,0.5967745857778937,,,,,,,,,,,,,,,,,,339,2023-11-27_14h09.58.703,leap3,2022.2.5,60.094483406985056,
,,,,,,,,,,,,,,,,,,,,8,0,8,0,1,0,1,0,,,,,,ilterfere,nw,h,upper,,,,,,,3,nw,LoDemNoTar,h,1,0.5074762967415154,,,,,,,,,,,,,,,,,,339,2023-11-27_14h09.58.703,leap3,2022.2.5,60.094483406985056,
,,,,,,,,,,,,,,,,,,,,8,0,8,0,2,0,2,0,,,,,,roughly,w,g,upper,,,,,,,3,w,LoDemNoTar,g,1,1.0295905573293567,,,,,,,,,,,,,,,,,,339,2023-11-27_14h09.58.703,leap3,2022.2.5,60.094483406985056,
,,,,,,,,,,,,,,,,,,,,8,0,8,0,3,0,3,0,,,,,,unlined,w,g,upper,,,,,,,3,w,LoDemNoTar,g,1,0.5630518819671124,,,,,,,,,,,,,,,,,,339,2023-11-27_14h09.58.703,leap3,2022.2.5,60.094483406985056,
,,,,,,,,,,,,,,,,,,,,8,0,8,0,4,0,4,0,,,,,,dests,nw,h,upper,,,,,,,3,nw,LoDemNoTar,h,1,0.7071335077052936,,,,,,,,,,,,,,,,,,339,2023-11-27_14h09.58.703,leap3,2022.2.5,60.094483406985056,
,,,,,,,,,,,,,,,,,,,,8,0,8,0,5,0,5,0,,,,,,iflaid,nw,h,upper,,,,,,,3,nw,LoDemNoTar,h,1,0.5972298057749867,,,,,,,,,,,,,,,,,,339,2023-11-27_14h09.58.703,leap3,2022.2.5,60.094483406985056,
,,,,,,,,,,,,,,,,,,,,8,0,8,0,6,0,6,0,,,,,,failure,w,g,upper,,,,,,,3,w,LoDemNoTar,g,1,0.8350602830760181,,,,,,,,,,,,,,,,,,339,2023-11-27_14h09.58.703,leap3,2022.2.5,60.094483406985056,
,,,,,,,,,,,,,,,,,,,,8,0,8,0,7,0,7,0,,,,,,elormity,nw,h,upper,,,,,,,3,nw,LoDemNoTar,h,1,0.5925047869095579,,,,,,,,,,,,,,,,,,339,2023-11-27_14h09.58.703,leap3,2022.2.5,60.094483406985056,
,,,,,,,,,,,,,,,,,,,,8,0,8,0,8,0,8,0,,,,,,labitable,nw,h,upper,,,,,,,3,nw,LoDemNoTar,h,1,0.8151938165538013,,,,,,,,,,,,,,,,,,339,2023-11-27_14h09.58.703,leap3,2022.2.5,60.094483406985056,
,,,,,,,,,,,,,,,,,,,,8,0,8,0,9,0,9,0,,,,,,mamps,nw,h,upper,,,,,,,3,nw,LoDemNoTar,h,1,0.5092306322185323,,,,,,,,,,,,,,,,,,339,2023-11-27_14h09.58.703,leap3,2022.2.5,60.094483406985056,
,,,,,,,,,,,,,,,,,,,,8,0,8,0,10,0,10,0,,,,,,protest,w,g,upper,,,,,,,3,w,LoDemNoTar,g,1,0.6632479741238058,,,,,,,,,,,,,,,,,,339,2023-11-27_14h09.58.703,leap3,2022.2.5,60.094483406985056,
,,,,,,,,,,,,,,,,,,,,8,0,8,0,11,0,11,0,,,,,,germeated,nw,h,upper,,,,,,,3,nw,LoDemNoTar,h,1,0.4913313784636557,,,,,,,,,,,,,,,,,,339,2023-11-27_14h09.58.703,leap3,2022.2.5,60.094483406985056,
,,,,,,,,,,,,,,,,,,,,8,0,8,0,12,0,12,0,,,,,,arrested,w,g,upper,,,,,,,3,w,LoDemNoTar,g,1,0.7342987247975543,,,,,,,,,,,,,,,,,,339,2023-11-27_14h09.58.703,leap3,2022.2.5,60.094483406985056,
,,,,,,,,,,,,,,,,,,,,8,0,8,0,13,0,13,0,,,,,,ucility,nw,h,upper,,,,,,,3,nw,LoDemNoTar,h,1,0.5676196430576965,,,,,,,,,,,,,,,,,,339,2023-11-27_14h09.58.703,leap3,2022.2.5,60.094483406985056,
,,,,,,,,,,,,,,,,,,,,8,0,8,0,14,0,14,0,,,,,,volume,w,g,upper,,,,,,,3,w,LoDemNoTar,g,1,0.5996406513731927,,,,,,,,,,,,,,,,,,339,2023-11-27_14h09.58.703,leap3,2022.2.5,60.094483406985056,
,,,,,,,,,,,,,,,,,,,,8,0,8,0,15,0,15,0,,,,,,encounter,w,g,upper,,,,,,,3,w,LoDemNoTar,g,1,0.5894215399166569,,,,,,,,,,,,,,,,,,339,2023-11-27_14h09.58.703,leap3,2022.2.5,60.094483406985056,
,,,,,,,,,,,,,,,,,,,,8,0,8,0,16,0,16,0,,,,,,omners,nw,h,upper,,,,,,,3,nw,LoDemNoTar,h,1,0.5960968871368095,,,,,,,,,,,,,,,,,,339,2023-11-27_14h09.58.703,leap3,2022.2.5,60.094483406985056,
,,,,,,,,,,,,,,,,,,,,8,0,8,0,17,0,17,0,,,,,,armada,w,g,upper,,,,,,,3,w,LoDemNoTar,h,0,0.5946901743300259,,,,,,,,,,,,,,,,,,339,2023-11-27_14h09.58.703,leap3,2022.2.5,60.094483406985056,
,,,,,,,,,,,,,,,,,,,,8,0,8,0,18,0,18,0,,,,,,volition,w,g,upper,,,,,,,3,w,LoDemNoTar,h,0,0.7935021658195183,,,,,,,,,,,,,,,,,,339,2023-11-27_14h09.58.703,leap3,2022.2.5,60.094483406985056,
,,,,,,,,,,,,,,,,,,,,8,0,8,0,19,0,19,0,,,,,,reborn,w,g,upper,,,,,,,3,w,LoDemNoTar,g,1,0.6489951161202043,,,,,,,,,,,,,,,,,,339,2023-11-27_14h09.58.703,leap3,2022.2.5,60.094483406985056,
,,,,,,,,,,,,,,,,,,,,8,0,8,0,20,0,20,0,,,,,,ghists,nw,h,upper,,,,,,,3,nw,LoDemNoTar,h,1,0.5177215626463294,,,,,,,,,,,,,,,,,,339,2023-11-27_14h09.58.703,leap3,2022.2.5,60.094483406985056,
,,,,,,,,,,,,,,,,,,,,8,0,8,0,21,0,21,0,,,,,,hotplate,w,g,upper,,,,,,,3,w,LoDemNoTar,g,1,0.911663394421339,,,,,,,,,,,,,,,,,,339,2023-11-27_14h09.58.703,leap3,2022.2.5,60.094483406985056,
,,,,,,,,,,,,,,,,,,,,8,0,8,0,22,0,22,0,,,,,,detrabe,nw,h,upper,,,,,,,3,nw,LoDemNoTar,h,1,0.6020349434111267,,,,,,,,,,,,,,,,,,339,2023-11-27_14h09.58.703,leap3,2022.2.5,60.094483406985056,
,,,,,,,,,,,,,,,,,,,,8,0,8,0,23,0,23,0,,,,,,oppose,w,g,upper,,,,,,,3,w,LoDemNoTar,g,1,0.5045556045370176,,,,,,,,,,,,,,,,,,339,2023-11-27_14h09.58.703,leap3,2022.2.5,60.094483406985056,
,,,,,,,,,,,,,,,,,,,,8,0,8,0,24,0,24,0,,,,,,chiffol,nw,h,upper,,,,,,,3,nw,LoDemNoTar,h,1,0.49851425481028855,,,,,,,,,,,,,,,,,,339,2023-11-27_14h09.58.703,leap3,2022.2.5,60.094483406985056,
,,,,,,,,,,,,,,,,,,,,8,0,8,0,25,0,25,0,,,,,,solidity,w,g,upper,,,,,,,3,w,LoDemNoTar,g,1,0.573064737371169,,,,,,,,,,,,,,,,,,339,2023-11-27_14h09.58.703,leap3,2022.2.5,60.094483406985056,
,,,,,,,,,,,,,,,,,,,,8,0,8,0,26,0,26,0,,,,,,martial,w,g,upper,,,,,,,3,w,LoDemNoTar,h,0,0.8362657059915364,,,,,,,,,,,,,,,,,,339,2023-11-27_14h09.58.703,leap3,2022.2.5,60.094483406985056,
,,,,,,,,,,,,,,,,,,,,8,0,8,0,27,0,27,0,,,,,,dentures,w,g,upper,,,,,,,3,w,LoDemNoTar,g,1,0.5597838984103873,,,,,,,,,,,,,,,,,,339,2023-11-27_14h09.58.703,leap3,2022.2.5,60.094483406985056,
,,,,,,,,,,,,,,,,,,,,8,0,8,0,28,0,28,0,,,,,,shurk,nw,h,upper,,,,,,,3,nw,LoDemNoTar,h,1,0.8731464783195406,,,,,,,,,,,,,,,,,,339,2023-11-27_14h09.58.703,leap3,2022.2.5,60.094483406985056,
,,,,,,,,,,,,,,,,,,,,8,0,8,0,29,0,29,0,,,,,,finstrel,nw,h,upper,,,,,,,3,nw,LoDemNoTar,h,1,0.6205287972697988,,,,,,,,,,,,,,,,,,339,2023-11-27_14h09.58.703,leap3,2022.2.5,60.094483406985056,
,,,,,,,,,,,,,,,,,,,,8,0,8,0,,,,,,,,,,,,,,,,,,,,,,,,,,,NA,,,,,,,,,,,,,,,,339,2023-11-27_14h09.58.703,leap3,2022.2.5,60.094483406985056,
,,,,,,,,,,,,,,,,,,,,9,0,9,0,0,0,0,0,,,,,,mabit,nw,h,lower,,,,,,,1,nw,HiDemTar,h,1,0.9134154124185443,,,,,,,,,,,,,,,,,,339,2023-11-27_14h09.58.703,leap3,2022.2.5,60.094483406985056,
,,,,,,,,,,,,,,,,,,,,9,0,9,0,1,0,1,0,,,,,,reddar,nw,h,lower,,,,,,,1,nw,HiDemTar,h,1,0.7554182881722227,,,,,,,,,,,,,,,,,,339,2023-11-27_14h09.58.703,leap3,2022.2.5,60.094483406985056,
,,,,,,,,,,,,,,,,,,,,9,0,9,0,2,0,2,0,,,,,,trooper,w,g,lower,,,,,,,1,w,HiDemTar,g,1,0.7155188272008672,,,,,,,,,,,,,,,,,,339,2023-11-27_14h09.58.703,leap3,2022.2.5,60.094483406985056,
,,,,,,,,,,,,,,,,,,,,9,0,9,0,3,0,3,0,,,,,,potter,w,g,lower,,,,,,,1,w,HiDemTar,g,1,0.6135078137740493,,,,,,,,,,,,,,,,,,339,2023-11-27_14h09.58.703,leap3,2022.2.5,60.094483406985056,
,,,,,,,,,,,,,,,,,,,,9,0,9,0,4,0,4,0,,,,,,mining,w,g,lower,,,,,,,1,w,HiDemTar,g,1,0.5475777097744867,,,,,,,,,,,,,,,,,,339,2023-11-27_14h09.58.703,leap3,2022.2.5,60.094483406985056,
,,,,,,,,,,,,,,,,,,,,9,0,9,0,5,0,5,0,,,,,,atabaster,nw,h,lower,,,,,,,1,nw,HiDemTar,h,1,0.6523951963754371,,,,,,,,,,,,,,,,,,339,2023-11-27_14h09.58.703,leap3,2022.2.5,60.094483406985056,
,,,,,,,,,,,,,,,,,,,,9,0,9,0,6,0,6,0,,,,,,flicking,w,g,lower,,,,,,,1,w,HiDemTar,g,1,0.641079252702184,,,,,,,,,,,,,,,,,,339,2023-11-27_14h09.58.703,leap3,2022.2.5,60.094483406985056,
,,,,,,,,,,,,,,,,,,,,9,0,9,0,7,0,7,0,,,,,,oleandur,nw,h,lower,,,,,,,1,nw,HiDemTar,h,1,0.5818261513486505,,,,,,,,,,,,,,,,,,339,2023-11-27_14h09.58.703,leap3,2022.2.5,60.094483406985056,
,,,,,,,,,,,,,,,,,,,,9,0,9,0,8,0,8,0,,,,,,compose,w,g,lower,,,,,,,1,w,HiDemTar,g,1,0.6772012145956978,,,,,,,,,,,,,,,,,,339,2023-11-27_14h09.58.703,leap3,2022.2.5,60.094483406985056,
,,,,,,,,,,,,,,,,,,,,9,0,9,0,9,0,9,0,,,,,,planar,w,g,lower,,,,,,,1,w,HiDemTar,g,1,1.6237712885485962,,,,,,,,,,,,,,,,,,339,2023-11-27_14h09.58.703,leap3,2022.2.5,60.094483406985056,
,,,,,,,,,,,,,,,,,,,,9,0,9,0,10,0,10,0,,,,,,peahem,nw,h,lower,,,,,,,1,nw,HiDemTar,h,1,0.5810941575327888,,,,,,,,,,,,,,,,,,339,2023-11-27_14h09.58.703,leap3,2022.2.5,60.094483406985056,
,,,,,,,,,,,,,,,,,,,,9,0,9,0,11,0,11,0,,,,,,caloric,w,g,lower,,,,,,,1,w,HiDemTar,g,1,0.6758219805778936,,,,,,,,,,,,,,,,,,339,2023-11-27_14h09.58.703,leap3,2022.2.5,60.094483406985056,
,,,,,,,,,,,,,,,,,,,,9,0,9,0,12,0,12,0,,,,,,casino,w,g,lower,,,,,,,1,w,HiDemTar,g,1,0.5839079142315313,,,,,,,,,,,,,,,,,,339,2023-11-27_14h09.58.703,leap3,2022.2.5,60.094483406985056,
,,,,,,,,,,,,,,,,,,,,9,0,9,0,13,0,13,0,,,,,,welayed,nw,h,lower,,,,,,,1,nw,HiDemTar,h,1,0.96733002376277,,,,,,,,,,,,,,,,,,339,2023-11-27_14h09.58.703,leap3,2022.2.5,60.094483406985056,
,,,,,,,,,,,,,,,,,,,,9,0,9,0,14,0,14,0,,,,,,drine,nw,h,lower,,,,,,,1,nw,HiDemTar,h,1,0.8071448632981628,,,,,,,,,,,,,,,,,,339,2023-11-27_14h09.58.703,leap3,2022.2.5,60.094483406985056,
,,,,,,,,,,,,,,,,,,,,9,0,9,0,15,0,15,0,,,,,,overflow,w,g,lower,,,,,,,1,w,HiDemTar,g,1,0.6611953453393653,,,,,,,,,,,,,,,,,,339,2023-11-27_14h09.58.703,leap3,2022.2.5,60.094483406985056,
,,,,,,,,,,,,,,,,,,,,9,0,9,0,16,0,16,0,,,,,,glapula,nw,h,lower,,,,,,,1,nw,HiDemTar,g,0,0.6732307022903115,,,,,,,,,,,,,,,,,,339,2023-11-27_14h09.58.703,leap3,2022.2.5,60.094483406985056,
,,,,,,,,,,,,,,,,,,,,9,0,9,0,17,0,17,0,,,,,,intrude,w,g,lower,,,,,,,1,w,HiDemTar,g,1,0.6116832917323336,,,,,,,,,,,,,,,,,,339,2023-11-27_14h09.58.703,leap3,2022.2.5,60.094483406985056,
,,,,,,,,,,,,,,,,,,,,9,0,9,0,18,0,18,0,,,,,,larger,w,g,lower,,,,,,,1,w,HiDemTar,g,1,0.5537667165044695,,,,,,,,,,,,,,,,,,339,2023-11-27_14h09.58.703,leap3,2022.2.5,60.094483406985056,
,,,,,,,,,,,,,,,,,,,,9,0,9,0,19,0,19,0,,,,,,nelvet,nw,h,lower,,,,,,,1,nw,HiDemTar,h,1,0.5544228955404833,,,,,,,,,,,,,,,,,,339,2023-11-27_14h09.58.703,leap3,2022.2.5,60.094483406985056,
,,,,,,,,,,,,,,,,,,,,9,0,9,0,20,0,20,0,,,,,,numbled,nw,h,lower,,,,,,,1,nw,HiDemTar,g,0,0.9061938009690493,,,,,,,,,,,,,,,,,,339,2023-11-27_14h09.58.703,leap3,2022.2.5,60.094483406985056,
,,,,,,,,,,,,,,,,,,,,9,0,9,0,21,0,21,0,,,,,,gunrunker,nw,h,lower,,,,,,,1,nw,HiDemTar,h,1,0.6847353553166613,,,,,,,,,,,,,,,,,,339,2023-11-27_14h09.58.703,leap3,2022.2.5,60.094483406985056,
,,,,,,,,,,,,,,,,,,,,9,0,9,0,22,0,22,0,,,,,,crocodile,target,q,lower,,,,,,,1,target,HiDemTar,g,0,0.6400089061353356,,,,,,,,,,,,,,,,,,339,2023-11-27_14h09.58.703,leap3,2022.2.5,60.094483406985056,
,,,,,,,,,,,,,,,,,,,,9,0,9,0,23,0,23,0,,,,,,frigs,nw,h,lower,,,,,,,1,aftertar1,HiDemTar,h,1,0.6608480538707227,,,,,,,,,,,,,,,,,,339,2023-11-27_14h09.58.703,leap3,2022.2.5,60.094483406985056,
,,,,,,,,,,,,,,,,,,,,9,0,9,0,24,0,24,0,,,,,,presently,w,g,lower,,,,,,,1,aftertar2,HiDemTar,g,1,1.2249223497929052,,,,,,,,,,,,,,,,,,339,2023-11-27_14h09.58.703,leap3,2022.2.5,60.094483406985056,
,,,,,,,,,,,,,,,,,,,,9,0,9,0,25,0,25,0,,,,,,donastic,nw,h,lower,,,,,,,1,aftertar3,HiDemTar,h,1,0.6783496935386211,,,,,,,,,,,,,,,,,,339,2023-11-27_14h09.58.703,leap3,2022.2.5,60.094483406985056,
,,,,,,,,,,,,,,,,,,,,9,0,9,0,26,0,26,0,,,,,,tablet,w,g,lower,,,,,,,1,nw,HiDemTar,g,1,0.5528910385910422,,,,,,,,,,,,,,,,,,339,2023-11-27_14h09.58.703,leap3,2022.2.5,60.094483406985056,
,,,,,,,,,,,,,,,,,,,,9,0,9,0,27,0,27,0,,,,,,riosk,nw,h,lower,,,,,,,1,w,HiDemTar,h,1,0.5608522584661841,,,,,,,,,,,,,,,,,,339,2023-11-27_14h09.58.703,leap3,2022.2.5,60.094483406985056,
,,,,,,,,,,,,,,,,,,,,9,0,9,0,28,0,28,0,,,,,,destroy,w,g,lower,,,,,,,1,nw,HiDemTar,g,1,0.576911429874599,,,,,,,,,,,,,,,,,,339,2023-11-27_14h09.58.703,leap3,2022.2.5,60.094483406985056,
,,,,,,,,,,,,,,,,,,,,9,0,9,0,29,0,29,0,,,,,,female,w,g,lower,,,,,,,1,w,HiDemTar,g,1,0.7042939275270328,,,,,,,,,,,,,,,,,,339,2023-11-27_14h09.58.703,leap3,2022.2.5,60.094483406985056,
,,,,,,,,,,,,,,,,,,,,9,0,9,0,,,,,,,,,,,,,,,,,,,,,,,,,,,0,,,,,,,,,,,,,,,,339,2023-11-27_14h09.58.703,leap3,2022.2.5,60.094483406985056,
,,,,,,,,,,,,,,,,,,,,10,0,10,0,0,0,0,0,,,,,,burrowing,w,g,lower,,,,,,,1,w,HiDemTar,g,1,0.8193338363198563,,,,,,,,,,,,,,,,,,339,2023-11-27_14h09.58.703,leap3,2022.2.5,60.094483406985056,
,,,,,,,,,,,,,,,,,,,,10,0,10,0,1,0,1,0,,,,,,official,w,g,lower,,,,,,,1,w,HiDemTar,g,1,0.45589042583014816,,,,,,,,,,,,,,,,,,339,2023-11-27_14h09.58.703,leap3,2022.2.5,60.094483406985056,
,,,,,,,,,,,,,,,,,,,,10,0,10,0,2,0,2,0,,,,,,gazes,w,g,lower,,,,,,,1,w,HiDemTar,g,1,0.8118791521992534,,,,,,,,,,,,,,,,,,339,2023-11-27_14h09.58.703,leap3,2022.2.5,60.094483406985056,
,,,,,,,,,,,,,,,,,,,,10,0,10,0,3,0,3,0,,,,,,rejoiced,w,g,lower,,,,,,,1,w,HiDemTar,g,1,0.6579031938454136,,,,,,,,,,,,,,,,,,339,2023-11-27_14h09.58.703,leap3,2022.2.5,60.094483406985056,
,,,,,,,,,,,,,,,,,,,,10,0,10,0,4,0,4,0,,,,,,comply,w,g,lower,,,,,,,1,w,HiDemTar,g,1,0.5419789993902668,,,,,,,,,,,,,,,,,,339,2023-11-27_14h09.58.703,leap3,2022.2.5,60.094483406985056,
,,,,,,,,,,,,,,,,,,,,10,0,10,0,5,0,5,0,,,,,,rangel,nw,h,lower,,,,,,,1,nw,HiDemTar,h,1,0.6227082255063578,,,,,,,,,,,,,,,,,,339,2023-11-27_14h09.58.703,leap3,2022.2.5,60.094483406985056,
,,,,,,,,,,,,,,,,,,,,10,0,10,0,6,0,6,0,,,,,,schides,nw,h,lower,,,,,,,1,nw,HiDemTar,h,1,0.5961544931633398,,,,,,,,,,,,,,,,,,339,2023-11-27_14h09.58.703,leap3,2022.2.5,60.094483406985056,
,,,,,,,,,,,,,,,,,,,,10,0,10,0,7,0,7,0,,,,,,rantho,nw,h,lower,,,,,,,1,nw,HiDemTar,h,1,0.5386689699953422,,,,,,,,,,,,,,,,,,339,2023-11-27_14h09.58.703,leap3,2022.2.5,60.094483406985056,
,,,,,,,,,,,,,,,,,,,,10,0,10,0,8,0,8,0,,,,,,ufionize,nw,h,lower,,,,,,,1,nw,HiDemTar,h,1,0.5313983603846282,,,,,,,,,,,,,,,,,,339,2023-11-27_14h09.58.703,leap3,2022.2.5,60.094483406985056,
,,,,,,,,,,,,,,,,,,,,10,0,10,0,9,0,9,0,,,,,,ragtam,nw,h,lower,,,,,,,1,nw,HiDemTar,h,1,0.5246174019994214,,,,,,,,,,,,,,,,,,339,2023-11-27_14h09.58.703,leap3,2022.2.5,60.094483406985056,
,,,,,,,,,,,,,,,,,,,,10,0,10,0,10,0,10,0,,,,,,borrent,nw,h,lower,,,,,,,1,nw,HiDemTar,h,1,0.7339332244591787,,,,,,,,,,,,,,,,,,339,2023-11-27_14h09.58.703,leap3,2022.2.5,60.094483406985056,
,,,,,,,,,,,,,,,,,,,,10,0,10,0,11,0,11,0,,,,,,cabinet,w,g,lower,,,,,,,1,w,HiDemTar,g,1,0.7184852067148313,,,,,,,,,,,,,,,,,,339,2023-11-27_14h09.58.703,leap3,2022.2.5,60.094483406985056,
,,,,,,,,,,,,,,,,,,,,10,0,10,0,12,0,12,0,,,,,,uncle,w,g,lower,,,,,,,1,w,HiDemTar,g,1,0.5686522477772087,,,,,,,,,,,,,,,,,,339,2023-11-27_14h09.58.703,leap3,2022.2.5,60.094483406985056,
,,,,,,,,,,,,,,,,,,,,10,0,10,0,13,0,13,0,,,,,,explosion,w,g,lower,,,,,,,1,w,HiDemTar,g,1,0.5985189890488982,,,,,,,,,,,,,,,,,,339,2023-11-27_14h09.58.703,leap3,2022.2.5,60.094483406985056,
,,,,,,,,,,,,,,,,,,,,10,0,10,0,14,0,14,0,,,,,,pircus,nw,h,lower,,,,,,,1,nw,HiDemTar,h,1,0.6712717661866918,,,,,,,,,,,,,,,,,,339,2023-11-27_14h09.58.703,leap3,2022.2.5,60.094483406985056,
,,,,,,,,,,,,,,,,,,,,10,0,10,0,15,0,15,0,,,,,,alarm,w,g,lower,,,,,,,1,w,HiDemTar,g,1,0.6746890619397163,,,,,,,,,,,,,,,,,,339,2023-11-27_14h09.58.703,leap3,2022.2.5,60.094483406985056,
,,,,,,,,,,,,,,,,,,,,10,0,10,0,16,0,16,0,,,,,,childhood,w,g,lower,,,,,,,1,w,HiDemTar,g,1,0.6380814214935526,,,,,,,,,,,,,,,,,,339,2023-11-27_14h09.58.703,leap3,2022.2.5,60.094483406985056,
,,,,,,,,,,,,,,,,,,,,10,0,10,0,17,0,17,0,,,,,,crundle,nw,h,lower,,,,,,,1,nw,HiDemTar,h,1,0.6828638213919476,,,,,,,,,,,,,,,,,,339,2023-11-27_14h09.58.703,leap3,2022.2.5,60.094483406985056,
,,,,,,,,,,,,,,,,,,,,10,0,10,0,18,0,18,0,,,,,,joses,nw,h,lower,,,,,,,1,nw,HiDemTar,h,1,0.558061676681973,,,,,,,,,,,,,,,,,,339,2023-11-27_14h09.58.703,leap3,2022.2.5,60.094483406985056,
,,,,,,,,,,,,,,,,,,,,10,0,10,0,19,0,19,0,,,,,,handbook,w,g,lower,,,,,,,1,w,HiDemTar,g,1,0.6459575566696003,,,,,,,,,,,,,,,,,,339,2023-11-27_14h09.58.703,leap3,2022.2.5,60.094483406985056,
,,,,,,,,,,,,,,,,,,,,10,0,10,0,20,0,20,0,,,,,,rebool,nw,h,lower,,,,,,,1,nw,HiDemTar,h,1,0.561624311725609,,,,,,,,,,,,,,,,,,339,2023-11-27_14h09.58.703,leap3,2022.2.5,60.094483406985056,
,,,,,,,,,,,,,,,,,,,,10,0,10,0,21,0,21,0,,,,,,impirt,nw,h,lower,,,,,,,1,nw,HiDemTar,h,1,0.6255742911016569,,,,,,,,,,,,,,,,,,339,2023-11-27_14h09.58.703,leap3,2022.2.5,60.094483406985056,
,,,,,,,,,,,,,,,,,,,,10,0,10,0,22,0,22,0,,,,,,paranoid,w,g,lower,,,,,,,1,w,HiDemTar,g,1,0.6789466112386435,,,,,,,,,,,,,,,,,,339,2023-11-27_14h09.58.703,leap3,2022.2.5,60.094483406985056,
,,,,,,,,,,,,,,,,,,,,10,0,10,0,23,0,23,0,,,,,,gund,nw,h,lower,,,,,,,1,nw,HiDemTar,h,1,0.5303733702749014,,,,,,,,,,,,,,,,,,339,2023-11-27_14h09.58.703,leap3,2022.2.5,60.094483406985056,
,,,,,,,,,,,,,,,,,,,,10,0,10,0,24,0,24,0,,,,,,chappef,nw,h,lower,,,,,,,1,nw,HiDemTar,h,1,0.5954175333026797,,,,,,,,,,,,,,,,,,339,2023-11-27_14h09.58.703,leap3,2022.2.5,60.094483406985056,
,,,,,,,,,,,,,,,,,,,,10,0,10,0,25,0,25,0,,,,,,kettle,w,g,lower,,,,,,,1,w,HiDemTar,g,1,0.6821798324817792,,,,,,,,,,,,,,,,,,339,2023-11-27_14h09.58.703,leap3,2022.2.5,60.094483406985056,
,,,,,,,,,,,,,,,,,,,,10,0,10,0,26,0,26,0,,,,,,guffy,nw,h,lower,,,,,,,1,nw,HiDemTar,h,1,0.5575899030081928,,,,,,,,,,,,,,,,,,339,2023-11-27_14h09.58.703,leap3,2022.2.5,60.094483406985056,
,,,,,,,,,,,,,,,,,,,,10,0,10,0,27,0,27,0,,,,,,enabled,w,g,lower,,,,,,,1,w,HiDemTar,g,1,0.5656928204698488,,,,,,,,,,,,,,,,,,339,2023-11-27_14h09.58.703,leap3,2022.2.5,60.094483406985056,
,,,,,,,,,,,,,,,,,,,,10,0,10,0,28,0,28,0,,,,,,squirrel,target,q,lower,,,,,,,1,target,HiDemTar,g,0,0.6456973364111036,,,,,,,,,,,,,,,,,,339,2023-11-27_14h09.58.703,leap3,2022.2.5,60.094483406985056,
,,,,,,,,,,,,,,,,,,,,10,0,10,0,29,0,29,0,,,,,,unburnid,nw,h,lower,,,,,,,1,aftertar1,HiDemTar,h,1,0.7624697299906984,,,,,,,,,,,,,,,,,,339,2023-11-27_14h09.58.703,leap3,2022.2.5,60.094483406985056,
,,,,,,,,,,,,,,,,,,,,10,0,10,0,,,,,,,,,,,,,,,,,,,,,,,,,,,0,,,,,,,,,,,,,,,,339,2023-11-27_14h09.58.703,leap3,2022.2.5,60.094483406985056,
,,,,,,,,,,,,,,,,,,,,11,0,11,0,0,0,0,0,,,,,,fillings,w,g,lower,,,,,,,2,w,HiDemNoTar,g,1,0.6345015708357096,,,,,,,,,,,,,,,,,,339,2023-11-27_14h09.58.703,leap3,2022.2.5,60.094483406985056,
,,,,,,,,,,,,,,,,,,,,11,0,11,0,1,0,1,0,,,,,,capobly,nw,h,lower,,,,,,,2,nw,HiDemNoTar,h,1,0.6478559072129428,,,,,,,,,,,,,,,,,,339,2023-11-27_14h09.58.703,leap3,2022.2.5,60.094483406985056,
,,,,,,,,,,,,,,,,,,,,11,0,11,0,2,0,2,0,,,,,,finish,w,g,lower,,,,,,,2,w,HiDemNoTar,g,1,0.48459544545039535,,,,,,,,,,,,,,,,,,339,2023-11-27_14h09.58.703,leap3,2022.2.5,60.094483406985056,
,,,,,,,,,,,,,,,,,,,,11,0,11,0,3,0,3,0,,,,,,oalis,nw,h,lower,,,,,,,2,nw,HiDemNoTar,h,1,0.5919860014691949,,,,,,,,,,,,,,,,,,339,2023-11-27_14h09.58.703,leap3,2022.2.5,60.094483406985056,
,,,,,,,,,,,,,,,,,,,,11,0,11,0,4,0,4,0,,,,,,accessory,w,g,lower,,,,,,,2,w,HiDemNoTar,g,1,0.6227022663224488,,,,,,,,,,,,,,,,,,339,2023-11-27_14h09.58.703,leap3,2022.2.5,60.094483406985056,
,,,,,,,,,,,,,,,,,,,,11,0,11,0,5,0,5,0,,,,,,obtuse,w,g,lower,,,,,,,2,w,HiDemNoTar,g,1,0.7557745184749365,,,,,,,,,,,,,,,,,,339,2023-11-27_14h09.58.703,leap3,2022.2.5,60.094483406985056,
,,,,,,,,,,,,,,,,,,,,11,0,11,0,6,0,6,0,,,,,,roodies,nw,h,lower,,,,,,,2,nw,HiDemNoTar,h,1,0.6758908429183066,,,,,,,,,,,,,,,,,,339,2023-11-27_14h09.58.703,leap3,2022.2.5,60.094483406985056,
,,,,,,,,,,,,,,,,,,,,11,0,11,0,7,0,7,0,,,,,,horks,nw,h,lower,,,,,,,2,nw,HiDemNoTar,h,1,0.6153028707485646,,,,,,,,,,,,,,,,,,339,2023-11-27_14h09.58.703,leap3,2022.2.5,60.094483406985056,
,,,,,,,,,,,,,,,,,,,,11,0,11,0,8,0,8,0,,,,,,noblest,w,g,lower,,,,,,,2,w,HiDemNoTar,h,0,0.6213346195872873,,,,,,,,,,,,,,,,,,339,2023-11-27_14h09.58.703,leap3,2022.2.5,60.094483406985056,
,,,,,,,,,,,,,,,,,,,,11,0,11,0,9,0,9,0,,,,,,irfirm,nw,h,lower,,,,,,,2,nw,HiDemNoTar,h,1,0.6347233871929348,,,,,,,,,,,,,,,,,,339,2023-11-27_14h09.58.703,leap3,2022.2.5,60.094483406985056,
,,,,,,,,,,,,,,,,,,,,11,0,11,0,10,0,10,0,,,,,,single,w,g,lower,,,,,,,2,w,HiDemNoTar,g,1,0.6642809099284932,,,,,,,,,,,,,,,,,,339,2023-11-27_14h09.58.703,leap3,2022.2.5,60.094483406985056,
,,,,,,,,,,,,,,,,,,,,11,0,11,0,11,0,11,0,,,,,,collision,w,g,lower,,,,,,,2,w,HiDemNoTar,g,1,0.5481829042546451,,,,,,,,,,,,,,,,,,339,2023-11-27_14h09.58.703,leap3,2022.2.5,60.094483406985056,
,,,,,,,,,,,,,,,,,,,,11,0,11,0,12,0,12,0,,,,,,shillac,nw,h,lower,,,,,,,2,nw,HiDemNoTar,h,1,0.6530265451874584,,,,,,,,,,,,,,,,,,339,2023-11-27_14h09.58.703,leap3,2022.2.5,60.094483406985056,
,,,,,,,,,,,,,,,,,,,,11,0,11,0,13,0,13,0,,,,,,dusmy,nw,h,lower,,,,,,,2,nw,HiDemNoTar,h,1,0.6331974894274026,,,,,,,,,,,,,,,,,,339,2023-11-27_14h09.58.703,leap3,2022.2.5,60.094483406985056,
,,,,,,,,,,,,,,,,,,,,11,0,11,0,14,0,14,0,,,,,,matter,w,g,lower,,,,,,,2,w,HiDemNoTar,h,0,0.46956225752364844,,,,,,,,,,,,,,,,,,339,2023-11-27_14h09.58.703,leap3,2022.2.5,60.094483406985056,
,,,,,,,,,,,,,,,,,,,,11,0,11,0,15,0,15,0,,,,,,hanling,nw,h,lower,,,,,,,2,nw,HiDemNoTar,h,1,0.6570030167931691,,,,,,,,,,,,,,,,,,339,2023-11-27_14h09.58.703,leap3,2022.2.5,60.094483406985056,
,,,,,,,,,,,,,,,,,,,,11,0,11,0,16,0,16,0,,,,,,rootsie,nw,h,lower,,,,,,,2,nw,HiDemNoTar,h,1,0.6449769298778847,,,,,,,,,,,,,,,,,,339,2023-11-27_14h09.58.703,leap3,2022.2.5,60.094483406985056,
,,,,,,,,,,,,,,,,,,,,11,0,11,0,17,0,17,0,,,,,,pallir,nw,h,lower,,,,,,,2,nw,HiDemNoTar,h,1,0.5216811497230083,,,,,,,,,,,,,,,,,,339,2023-11-27_14h09.58.703,leap3,2022.2.5,60.094483406985056,
,,,,,,,,,,,,,,,,,,,,11,0,11,0,18,0,18,0,,,,,,puyer,nw,h,lower,,,,,,,2,nw,HiDemNoTar,h,1,0.499184338725172,,,,,,,,,,,,,,,,,,339,2023-11-27_14h09.58.703,leap3,2022.2.5,60.094483406985056,
,,,,,,,,,,,,,,,,,,,,11,0,11,0,19,0,19,0,,,,,,skiing,w,g,lower,,,,,,,2,w,HiDemNoTar,g,1,0.5098537042504176,,,,,,,,,,,,,,,,,,339,2023-11-27_14h09.58.703,leap3,2022.2.5,60.094483406985056,
,,,,,,,,,,,,,,,,,,,,11,0,11,0,20,0,20,0,,,,,,thrapping,nw,h,lower,,,,,,,2,nw,HiDemNoTar,h,1,0.6799639866221696,,,,,,,,,,,,,,,,,,339,2023-11-27_14h09.58.703,leap3,2022.2.5,60.094483406985056,
,,,,,,,,,,,,,,,,,,,,11,0,11,0,21,0,21,0,,,,,,agony,w,g,lower,,,,,,,2,w,HiDemNoTar,g,1,0.7153205167269334,,,,,,,,,,,,,,,,,,339,2023-11-27_14h09.58.703,leap3,2022.2.5,60.094483406985056,
,,,,,,,,,,,,,,,,,,,,11,0,11,0,22,0,22,0,,,,,,huffle,nw,h,lower,,,,,,,2,nw,HiDemNoTar,h,1,0.6773799919756129,,,,,,,,,,,,,,,,,,339,2023-11-27_14h09.58.703,leap3,2022.2.5,60.094483406985056,
,,,,,,,,,,,,,,,,,,,,11,0,11,0,23,0,23,0,,,,,,flacked,nw,h,lower,,,,,,,2,nw,HiDemNoTar,h,1,0.8398995209718123,,,,,,,,,,,,,,,,,,339,2023-11-27_14h09.58.703,leap3,2022.2.5,60.094483406985056,
,,,,,,,,,,,,,,,,,,,,11,0,11,0,24,0,24,0,,,,,,inforl,nw,h,lower,,,,,,,2,nw,HiDemNoTar,h,1,0.5806250324239954,,,,,,,,,,,,,,,,,,339,2023-11-27_14h09.58.703,leap3,2022.2.5,60.094483406985056,
,,,,,,,,,,,,,,,,,,,,11,0,11,0,25,0,25,0,,,,,,cookbook,w,g,lower,,,,,,,2,w,HiDemNoTar,h,0,0.763986688805744,,,,,,,,,,,,,,,,,,339,2023-11-27_14h09.58.703,leap3,2022.2.5,60.094483406985056,
,,,,,,,,,,,,,,,,,,,,11,0,11,0,26,0,26,0,,,,,,listless,w,g,lower,,,,,,,2,w,HiDemNoTar,g,1,0.8920359598705545,,,,,,,,,,,,,,,,,,339,2023-11-27_14h09.58.703,leap3,2022.2.5,60.094483406985056,
,,,,,,,,,,,,,,,,,,,,11,0,11,0,27,0,27,0,,,,,,whirlpool,w,g,lower,,,,,,,2,w,HiDemNoTar,g,1,0.5987739122938365,,,,,,,,,,,,,,,,,,339,2023-11-27_14h09.58.703,leap3,2022.2.5,60.094483406985056,
,,,,,,,,,,,,,,,,,,,,11,0,11,0,28,0,28,0,,,,,,index,w,g,lower,,,,,,,2,w,HiDemNoTar,g,1,0.5734491086332127,,,,,,,,,,,,,,,,,,339,2023-11-27_14h09.58.703,leap3,2022.2.5,60.094483406985056,
,,,,,,,,,,,,,,,,,,,,11,0,11,0,29,0,29,0,,,,,,spaceship,w,g,lower,,,,,,,2,w,HiDemNoTar,g,1,0.5969152899924666,,,,,,,,,,,,,,,,,,339,2023-11-27_14h09.58.703,leap3,2022.2.5,60.094483406985056,
,,,,,,,,,,,,,,,,,,,,11,0,11,0,,,,,,,,,,,,,,,,,,,,,,,,,,,NA,,,,,,,,,,,,,,,,339,2023-11-27_14h09.58.703,leap3,2022.2.5,60.094483406985056,
,,,,,,,,,,,,,,,,,,,,12,0,12,0,0,0,0,0,,,,,,preclude,w,g,upper,,,,,,,4,w,LoDemTar,g,1,0.8829517534468323,,,,,,,,,,,,,,,,,,339,2023-11-27_14h09.58.703,leap3,2022.2.5,60.094483406985056,
,,,,,,,,,,,,,,,,,,,,12,0,12,0,1,0,1,0,,,,,,orange,w,g,upper,,,,,,,4,w,LoDemTar,g,1,0.5669419444166124,,,,,,,,,,,,,,,,,,339,2023-11-27_14h09.58.703,leap3,2022.2.5,60.094483406985056,
,,,,,,,,,,,,,,,,,,,,12,0,12,0,2,0,2,0,,,,,,maximized,w,g,upper,,,,,,,4,w,LoDemTar,g,1,0.47084978537168354,,,,,,,,,,,,,,,,,,339,2023-11-27_14h09.58.703,leap3,2022.2.5,60.094483406985056,
,,,,,,,,,,,,,,,,,,,,12,0,12,0,3,0,3,0,,,,,,standard,w,g,upper,,,,,,,4,w,LoDemTar,g,1,0.45829531212802976,,,,,,,,,,,,,,,,,,339,2023-11-27_14h09.58.703,leap3,2022.2.5,60.094483406985056,
,,,,,,,,,,,,,,,,,,,,12,0,12,0,4,0,4,0,,,,,,noblin,nw,h,upper,,,,,,,4,nw,LoDemTar,h,1,0.6304357106564566,,,,,,,,,,,,,,,,,,339,2023-11-27_14h09.58.703,leap3,2022.2.5,60.094483406985056,
,,,,,,,,,,,,,,,,,,,,12,0,12,0,5,0,5,0,,,,,,latirizes,nw,h,upper,,,,,,,4,nw,LoDemTar,h,1,0.6759093827567995,,,,,,,,,,,,,,,,,,339,2023-11-27_14h09.58.703,leap3,2022.2.5,60.094483406985056,
,,,,,,,,,,,,,,,,,,,,12,0,12,0,6,0,6,0,,,,,,tragedy,w,g,upper,,,,,,,4,w,LoDemTar,g,1,0.6152912833495066,,,,,,,,,,,,,,,,,,339,2023-11-27_14h09.58.703,leap3,2022.2.5,60.094483406985056,
,,,,,,,,,,,,,,,,,,,,12,0,12,0,7,0,7,0,,,,,,asthmatic,w,g,upper,,,,,,,4,w,LoDemTar,g,1,1.1404904462397099,,,,,,,,,,,,,,,,,,339,2023-11-27_14h09.58.703,leap3,2022.2.5,60.094483406985056,
,,,,,,,,,,,,,,,,,,,,12,0,12,0,8,0,8,0,,,,,,kickoff,w,g,upper,,,,,,,4,w,LoDemTar,g,1,0.5252146507846192,,,,,,,,,,,,,,,,,,339,2023-11-27_14h09.58.703,leap3,2022.2.5,60.094483406985056,
,,,,,,,,,,,,,,,,,,,,12,0,12,0,9,0,9,0,,,,,,lecked,nw,h,upper,,,,,,,4,nw,LoDemTar,h,1,0.5826720329932868,,,,,,,,,,,,,,,,,,339,2023-11-27_14h09.58.703,leap3,2022.2.5,60.094483406985056,
,,,,,,,,,,,,,,,,,,,,12,0,12,0,10,0,10,0,,,,,,sording,nw,h,upper,,,,,,,4,nw,LoDemTar,h,1,0.6219437868567184,,,,,,,,,,,,,,,,,,339,2023-11-27_14h09.58.703,leap3,2022.2.5,60.094483406985056,
,,,,,,,,,,,,,,,,,,,,12,0,12,0,11,0,11,0,,,,,,forgive,w,g,upper,,,,,,,4,w,LoDemTar,g,1,0.5953291377518326,,,,,,,,,,,,,,,,,,339,2023-11-27_14h09.58.703,leap3,2022.2.5,60.094483406985056,
,,,,,,,,,,,,,,,,,,,,12,0,12,0,12,0,12,0,,,,,,hivinity,nw,h,upper,,,,,,,4,nw,LoDemTar,h,1,0.5700741898035631,,,,,,,,,,,,,,,,,,339,2023-11-27_14h09.58.703,leap3,2022.2.5,60.094483406985056,
,,,,,,,,,,,,,,,,,,,,12,0,12,0,13,0,13,0,,,,,,dolphin,target,q,upper,,,,,,,4,target,LoDemTar,g,0,0.5693872211268172,,,,,,,,,,,,,,,,,,339,2023-11-27_14h09.58.703,leap3,2022.2.5,60.094483406985056,
,,,,,,,,,,,,,,,,,,,,12,0,12,0,14,0,14,0,,,,,,grefab,nw,h,upper,,,,,,,4,aftertar1,LoDemTar,h,1,0.9129164912737906,,,,,,,,,,,,,,,,,,339,2023-11-27_14h09.58.703,leap3,2022.2.5,60.094483406985056,
,,,,,,,,,,,,,,,,,,,,12,0,12,0,15,0,15,0,,,,,,senalize,nw,h,upper,,,,,,,4,aftertar2,LoDemTar,h,1,1.0030000761616975,,,,,,,,,,,,,,,,,,339,2023-11-27_14h09.58.703,leap3,2022.2.5,60.094483406985056,
,,,,,,,,,,,,,,,,,,,,12,0,12,0,16,0,16,0,,,,,,enunciate,w,g,upper,,,,,,,4,aftertar3,LoDemTar,h,0,0.6970253043109551,,,,,,,,,,,,,,,,,,339,2023-11-27_14h09.58.703,leap3,2022.2.5,60.094483406985056,
,,,,,,,,,,,,,,,,,,,,12,0,12,0,17,0,17,0,,,,,,govern,w,g,upper,,,,,,,4,w,LoDemTar,g,1,0.6909564757952467,,,,,,,,,,,,,,,,,,339,2023-11-27_14h09.58.703,leap3,2022.2.5,60.094483406985056,
,,,,,,,,,,,,,,,,,,,,12,0,12,0,18,0,18,0,,,,,,slears,nw,h,upper,,,,,,,4,w,LoDemTar,h,1,0.5655524472240359,,,,,,,,,,,,,,,,,,339,2023-11-27_14h09.58.703,leap3,2022.2.5,60.094483406985056,
,,,,,,,,,,,,,,,,,,,,12,0,12,0,19,0,19,0,,,,,,baults,nw,h,upper,,,,,,,4,nw,LoDemTar,h,1,0.541638660361059,,,,,,,,,,,,,,,,,,339,2023-11-27_14h09.58.703,leap3,2022.2.5,60.094483406985056,
,,,,,,,,,,,,,,,,,,,,12,0,12,0,20,0,20,0,,,,,,chight,nw,h,upper,,,,,,,4,nw,LoDemTar,h,1,0.662378586595878,,,,,,,,,,,,,,,,,,339,2023-11-27_14h09.58.703,leap3,2022.2.5,60.094483406985056,
,,,,,,,,,,,,,,,,,,,,12,0,12,0,21,0,21,0,,,,,,adok,nw,h,upper,,,,,,,4,nw,LoDemTar,h,1,0.6024302400182933,,,,,,,,,,,,,,,,,,339,2023-11-27_14h09.58.703,leap3,2022.2.5,60.094483406985056,
,,,,,,,,,,,,,,,,,,,,12,0,12,0,22,0,22,0,,,,,,railroad,w,g,upper,,,,,,,4,nw,LoDemTar,g,1,0.5928024179302156,,,,,,,,,,,,,,,,,,339,2023-11-27_14h09.58.703,leap3,2022.2.5,60.094483406985056,
,,,,,,,,,,,,,,,,,,,,12,0,12,0,23,0,23,0,,,,,,sweeping,w,g,upper,,,,,,,4,w,LoDemTar,g,1,0.7835790300741792,,,,,,,,,,,,,,,,,,339,2023-11-27_14h09.58.703,leap3,2022.2.5,60.094483406985056,
,,,,,,,,,,,,,,,,,,,,12,0,12,0,24,0,24,0,,,,,,rualify,nw,h,upper,,,,,,,4,w,LoDemTar,h,1,0.5908792372792959,,,,,,,,,,,,,,,,,,339,2023-11-27_14h09.58.703,leap3,2022.2.5,60.094483406985056,
,,,,,,,,,,,,,,,,,,,,12,0,12,0,25,0,25,0,,,,,,daylight,w,g,upper,,,,,,,4,nw,LoDemTar,g,1,0.6536135307978839,,,,,,,,,,,,,,,,,,339,2023-11-27_14h09.58.703,leap3,2022.2.5,60.094483406985056,
,,,,,,,,,,,,,,,,,,,,12,0,12,0,26,0,26,0,,,,,,trewl,nw,h,upper,,,,,,,4,w,LoDemTar,h,1,0.6087960376171395,,,,,,,,,,,,,,,,,,339,2023-11-27_14h09.58.703,leap3,2022.2.5,60.094483406985056,
,,,,,,,,,,,,,,,,,,,,12,0,12,0,27,0,27,0,,,,,,frequency,w,g,upper,,,,,,,4,nw,LoDemTar,g,1,0.6140606992412359,,,,,,,,,,,,,,,,,,339,2023-11-27_14h09.58.703,leap3,2022.2.5,60.094483406985056,
,,,,,,,,,,,,,,,,,,,,12,0,12,0,28,0,28,0,,,,,,blueberry,w,g,upper,,,,,,,4,w,LoDemTar,g,1,0.8048177782911807,,,,,,,,,,,,,,,,,,339,2023-11-27_14h09.58.703,leap3,2022.2.5,60.094483406985056,
,,,,,,,,,,,,,,,,,,,,12,0,12,0,29,0,29,0,,,,,,tuckel,nw,h,upper,,,,,,,4,w,LoDemTar,h,1,0.6830197549425066,,,,,,,,,,,,,,,,,,339,2023-11-27_14h09.58.703,leap3,2022.2.5,60.094483406985056,
,,,,,,,,,,,,,,,,,,,,12,0,12,0,,,,,,,,,,,,,,,,,,,,,,,,,,,0,,,,,,,,,,,,,,,,339,2023-11-27_14h09.58.703,leap3,2022.2.5,60.094483406985056,
,,,,,,,,,,,,,,,,,,,,13,0,13,0,0,0,0,0,,,,,,gaining,w,g,lower,,,,,,,1,w,HiDemTar,g,1,0.8147604471305385,,,,,,,,,,,,,,,,,,339,2023-11-27_14h09.58.703,leap3,2022.2.5,60.094483406985056,
,,,,,,,,,,,,,,,,,,,,13,0,13,0,1,0,1,0,,,,,,penalize,w,g,lower,,,,,,,1,w,HiDemTar,g,1,0.7715589024592191,,,,,,,,,,,,,,,,,,339,2023-11-27_14h09.58.703,leap3,2022.2.5,60.094483406985056,
,,,,,,,,,,,,,,,,,,,,13,0,13,0,2,0,2,0,,,,,,gonesty,nw,h,lower,,,,,,,1,nw,HiDemTar,h,1,0.6592718337196857,,,,,,,,,,,,,,,,,,339,2023-11-27_14h09.58.703,leap3,2022.2.5,60.094483406985056,
,,,,,,,,,,,,,,,,,,,,13,0,13,0,3,0,3,0,,,,,,pressing,w,g,lower,,,,,,,1,w,HiDemTar,g,1,0.5353433804120868,,,,,,,,,,,,,,,,,,339,2023-11-27_14h09.58.703,leap3,2022.2.5,60.094483406985056,
,,,,,,,,,,,,,,,,,,,,13,0,13,0,4,0,4,0,,,,,,etuip,nw,h,lower,,,,,,,1,nw,HiDemTar,h,1,0.5527476855786517,,,,,,,,,,,,,,,,,,339,2023-11-27_14h09.58.703,leap3,2022.2.5,60.094483406985056,
,,,,,,,,,,,,,,,,,,,,13,0,13,0,5,0,5,0,,,,,,fuhrek,nw,h,lower,,,,,,,1,nw,HiDemTar,h,1,0.5368020710302517,,,,,,,,,,,,,,,,,,339,2023-11-27_14h09.58.703,leap3,2022.2.5,60.094483406985056,
,,,,,,,,,,,,,,,,,,,,13,0,13,0,6,0,6,0,,,,,,drauns,nw,h,lower,,,,,,,1,nw,HiDemTar,h,1,0.7777522130636498,,,,,,,,,,,,,,,,,,339,2023-11-27_14h09.58.703,leap3,2022.2.5,60.094483406985056,
,,,,,,,,,,,,,,,,,,,,13,0,13,0,7,0,7,0,,,,,,gounts,nw,h,lower,,,,,,,1,nw,HiDemTar,h,1,0.448985647642985,,,,,,,,,,,,,,,,,,339,2023-11-27_14h09.58.703,leap3,2022.2.5,60.094483406985056,
,,,,,,,,,,,,,,,,,,,,13,0,13,0,8,0,8,0,,,,,,tinker,w,g,lower,,,,,,,1,w,HiDemTar,g,1,0.6776772920275107,,,,,,,,,,,,,,,,,,339,2023-11-27_14h09.58.703,leap3,2022.2.5,60.094483406985056,
,,,,,,,,,,,,,,,,,,,,13,0,13,0,9,0,9,0,,,,,,snorls,nw,h,lower,,,,,,,1,nw,HiDemTar,h,1,0.9522587627870962,,,,,,,,,,,,,,,,,,339,2023-11-27_14h09.58.703,leap3,2022.2.5,60.094483406985056,
,,,,,,,,,,,,,,,,,,,,13,0,13,0,10,0,10,0,,,,,,dingly,nw,h,lower,,,,,,,1,nw,HiDemTar,h,1,0.6002253195038065,,,,,,,,,,,,,,,,,,339,2023-11-27_14h09.58.703,leap3,2022.2.5,60.094483406985056,
,,,,,,,,,,,,,,,,,,,,13,0,13,0,11,0,11,0,,,,,,loached,nw,h,lower,,,,,,,1,nw,HiDemTar,h,1,0.7269526313757524,,,,,,,,,,,,,,,,,,339,2023-11-27_14h09.58.703,leap3,2022.2.5,60.094483406985056,
,,,,,,,,,,,,,,,,,,,,13,0,13,0,12,0,12,0,,,,,,bloodless,w,g,lower,,,,,,,1,w,HiDemTar,g,1,0.8004377334145829,,,,,,,,,,,,,,,,,,339,2023-11-27_14h09.58.703,leap3,2022.2.5,60.094483406985056,
,,,,,,,,,,,,,,,,,,,,13,0,13,0,13,0,13,0,,,,,,terrify,w,g,lower,,,,,,,1,w,HiDemTar,g,1,0.686384079628624,,,,,,,,,,,,,,,,,,339,2023-11-27_14h09.58.703,leap3,2022.2.5,60.094483406985056,
,,,,,,,,,,,,,,,,,,,,13,0,13,0,14,0,14,0,,,,,,gontracts,nw,h,lower,,,,,,,1,nw,HiDemTar,h,1,0.6011149022961035,,,,,,,,,,,,,,,,,,339,2023-11-27_14h09.58.703,leap3,2022.2.5,60.094483406985056,
,,,,,,,,,,,,,,,,,,,,13,0,13,0,15,0,15,0,,,,,,helpful,w,g,lower,,,,,,,1,w,HiDemTar,g,1,0.7671603177441284,,,,,,,,,,,,,,,,,,339,2023-11-27_14h09.58.703,leap3,2022.2.5,60.094483406985056,
,,,,,,,,,,,,,,,,,,,,13,0,13,0,16,0,16,0,,,,,,collute,nw,h,lower,,,,,,,1,nw,HiDemTar,h,1,0.7822537602623925,,,,,,,,,,,,,,,,,,339,2023-11-27_14h09.58.703,leap3,2022.2.5,60.094483406985056,
,,,,,,,,,,,,,,,,,,,,13,0,13,0,17,0,17,0,,,,,,scrooner,nw,h,lower,,,,,,,1,nw,HiDemTar,h,1,0.7580284372670576,,,,,,,,,,,,,,,,,,339,2023-11-27_14h09.58.703,leap3,2022.2.5,60.094483406985056,
,,,,,,,,,,,,,,,,,,,,13,0,13,0,18,0,18,0,,,,,,oginous,nw,h,lower,,,,,,,1,nw,HiDemTar,h,1,0.6379549531266093,,,,,,,,,,,,,,,,,,339,2023-11-27_14h09.58.703,leap3,2022.2.5,60.094483406985056,
,,,,,,,,,,,,,,,,,,,,13,0,13,0,19,0,19,0,,,,,,undertake,w,g,lower,,,,,,,1,w,HiDemTar,g,1,0.8578881633002311,,,,,,,,,,,,,,,,,,339,2023-11-27_14h09.58.703,leap3,2022.2.5,60.094483406985056,
,,,,,,,,,,,,,,,,,,,,13,0,13,0,20,0,20,0,,,,,,encrusted,w,g,lower,,,,,,,1,w,HiDemTar,h,0,1.1323544218903407,,,,,,,,,,,,,,,,,,339,2023-11-27_14h09.58.703,leap3,2022.2.5,60.094483406985056,
,,,,,,,,,,,,,,,,,,,,13,0,13,0,21,0,21,0,,,,,,plogging,nw,h,lower,,,,,,,1,nw,HiDemTar,h,1,0.7352409475715831,,,,,,,,,,,,,,,,,,339,2023-11-27_14h09.58.703,leap3,2022.2.5,60.094483406985056,
,,,,,,,,,,,,,,,,,,,,13,0,13,0,22,0,22,0,,,,,,itself,w,g,lower,,,,,,,1,w,HiDemTar,g,1,0.584053584607318,,,,,,,,,,,,,,,,,,339,2023-11-27_14h09.58.703,leap3,2022.2.5,60.094483406985056,
,,,,,,,,,,,,,,,,,,,,13,0,13,0,23,0,23,0,,,,,,rainfall,w,g,lower,,,,,,,1,w,HiDemTar,g,1,0.5754471109248698,,,,,,,,,,,,,,,,,,339,2023-11-27_14h09.58.703,leap3,2022.2.5,60.094483406985056,
,,,,,,,,,,,,,,,,,,,,13,0,13,0,24,0,24,0,,,,,,absent,w,g,lower,,,,,,,1,w,HiDemTar,g,1,0.5668548733228818,,,,,,,,,,,,,,,,,,339,2023-11-27_14h09.58.703,leap3,2022.2.5,60.094483406985056,
,,,,,,,,,,,,,,,,,,,,13,0,13,0,25,0,25,0,,,,,,sustain,w,g,lower,,,,,,,1,w,HiDemTar,g,1,0.6149569035042077,,,,,,,,,,,,,,,,,,339,2023-11-27_14h09.58.703,leap3,2022.2.5,60.094483406985056,
,,,,,,,,,,,,,,,,,,,,13,0,13,0,26,0,26,0,,,,,,ebince,nw,h,lower,,,,,,,1,nw,HiDemTar,h,1,0.7090215950738639,,,,,,,,,,,,,,,,,,339,2023-11-27_14h09.58.703,leap3,2022.2.5,60.094483406985056,
,,,,,,,,,,,,,,,,,,,,13,0,13,0,27,0,27,0,,,,,,ladybug,target,q,lower,,,,,,,1,target,HiDemTar,q,1,0.7751129297539592,1,,,,,,,,,,,,,,,,,339,2023-11-27_14h09.58.703,leap3,2022.2.5,60.094483406985056,
,,,,,,,,,,,,,,,,,,,,13,0,13,0,28,0,28,0,,,,,,patio,w,g,lower,,,,,,,1,aftertar1,HiDemTar,g,1,0.9975993451662362,,,,,,,,,,,,,,,,,,339,2023-11-27_14h09.58.703,leap3,2022.2.5,60.094483406985056,
,,,,,,,,,,,,,,,,,,,,13,0,13,0,29,0,29,0,,,,,,eugenifs,nw,h,lower,,,,,,,1,aftertar2,HiDemTar,h,1,0.6762725657317787,,,,,,,,,,,,,,,,,,339,2023-11-27_14h09.58.703,leap3,2022.2.5,60.094483406985056,
,,,,,,,,,,,,,,,,,,,,13,0,13,0,,,,,,,,,,,,,,,,,,,,,,,,,,,1,,,,,,,,,,,,,,,,339,2023-11-27_14h09.58.703,leap3,2022.2.5,60.094483406985056,
,,,,,,,,,,,,,,,,,,,,14,0,14,0,0,0,0,0,,,,,,seasoning,w,g,upper,,,,,,,3,w,LoDemNoTar,g,1,0.6408498218515888,,,,,,,,,,,,,,,,,,339,2023-11-27_14h09.58.703,leap3,2022.2.5,60.094483406985056,
,,,,,,,,,,,,,,,,,,,,14,0,14,0,1,0,1,0,,,,,,slimped,nw,h,upper,,,,,,,3,nw,LoDemNoTar,h,1,0.717423468013294,,,,,,,,,,,,,,,,,,339,2023-11-27_14h09.58.703,leap3,2022.2.5,60.094483406985056,
,,,,,,,,,,,,,,,,,,,,14,0,14,0,2,0,2,0,,,,,,kiner,nw,h,upper,,,,,,,3,nw,LoDemNoTar,h,1,0.5500113990856335,,,,,,,,,,,,,,,,,,339,2023-11-27_14h09.58.703,leap3,2022.2.5,60.094483406985056,
,,,,,,,,,,,,,,,,,,,,14,0,14,0,3,0,3,0,,,,,,cavern,w,g,upper,,,,,,,3,w,LoDemNoTar,h,0,0.49463379313237965,,,,,,,,,,,,,,,,,,339,2023-11-27_14h09.58.703,leap3,2022.2.5,60.094483406985056,
,,,,,,,,,,,,,,,,,,,,14,0,14,0,4,0,4,0,,,,,,usually,w,g,upper,,,,,,,3,w,LoDemNoTar,g,1,0.6732177905505523,,,,,,,,,,,,,,,,,,339,2023-11-27_14h09.58.703,leap3,2022.2.5,60.094483406985056,
,,,,,,,,,,,,,,,,,,,,14,0,14,0,5,0,5,0,,,,,,bengths,nw,h,upper,,,,,,,3,nw,LoDemNoTar,h,1,0.532720981631428,,,,,,,,,,,,,,,,,,339,2023-11-27_14h09.58.703,leap3,2022.2.5,60.094483406985056,
,,,,,,,,,,,,,,,,,,,,14,0,14,0,6,0,6,0,,,,,,sopes,nw,h,upper,,,,,,,3,nw,LoDemNoTar,h,1,0.7821322579402477,,,,,,,,,,,,,,,,,,339,2023-11-27_14h09.58.703,leap3,2022.2.5,60.094483406985056,
,,,,,,,,,,,,,,,,,,,,14,0,14,0,7,0,7,0,,,,,,seeming,w,g,upper,,,,,,,3,w,LoDemNoTar,g,1,0.5261979261413217,,,,,,,,,,,,,,,,,,339,2023-11-27_14h09.58.703,leap3,2022.2.5,60.094483406985056,
,,,,,,,,,,,,,,,,,,,,14,0,14,0,8,0,8,0,,,,,,scrobby,nw,h,upper,,,,,,,3,nw,LoDemNoTar,h,1,0.63155637960881,,,,,,,,,,,,,,,,,,339,2023-11-27_14h09.58.703,leap3,2022.2.5,60.094483406985056,
,,,,,,,,,,,,,,,,,,,,14,0,14,0,9,0,9,0,,,,,,batire,nw,h,upper,,,,,,,3,nw,LoDemNoTar,h,1,0.6768006209749728,,,,,,,,,,,,,,,,,,339,2023-11-27_14h09.58.703,leap3,2022.2.5,60.094483406985056,
,,,,,,,,,,,,,,,,,,,,14,0,14,0,10,0,10,0,,,,,,scabry,nw,h,upper,,,,,,,3,nw,LoDemNoTar,h,1,0.5522990869358182,,,,,,,,,,,,,,,,,,339,2023-11-27_14h09.58.703,leap3,2022.2.5,60.094483406985056,
,,,,,,,,,,,,,,,,,,,,14,0,14,0,11,0,11,0,,,,,,appain,nw,h,upper,,,,,,,3,nw,LoDemNoTar,h,1,0.5849739568075165,,,,,,,,,,,,,,,,,,339,2023-11-27_14h09.58.703,leap3,2022.2.5,60.094483406985056,
,,,,,,,,,,,,,,,,,,,,14,0,14,0,12,0,12,0,,,,,,enacted,w,g,upper,,,,,,,3,w,LoDemNoTar,g,1,0.8307424793019891,,,,,,,,,,,,,,,,,,339,2023-11-27_14h09.58.703,leap3,2022.2.5,60.094483406985056,
,,,,,,,,,,,,,,,,,,,,14,0,14,0,13,0,13,0,,,,,,visible,w,g,upper,,,,,,,3,w,LoDemNoTar,g,1,0.7138058753916994,,,,,,,,,,,,,,,,,,339,2023-11-27_14h09.58.703,leap3,2022.2.5,60.094483406985056,
,,,,,,,,,,,,,,,,,,,,14,0,14,0,14,0,14,0,,,,,,stable,w,g,upper,,,,,,,3,w,LoDemNoTar,g,1,0.6942194933071733,,,,,,,,,,,,,,,,,,339,2023-11-27_14h09.58.703,leap3,2022.2.5,60.094483406985056,
,,,,,,,,,,,,,,,,,,,,14,0,14,0,15,0,15,0,,,,,,shamrock,w,g,upper,,,,,,,3,w,LoDemNoTar,g,1,1.4890721625415608,,,,,,,,,,,,,,,,,,339,2023-11-27_14h09.58.703,leap3,2022.2.5,60.094483406985056,
,,,,,,,,,,,,,,,,,,,,14,0,14,0,16,0,16,0,,,,,,clypaper,nw,h,upper,,,,,,,3,nw,LoDemNoTar,h,1,0.5797424021875486,,,,,,,,,,,,,,,,,,339,2023-11-27_14h09.58.703,leap3,2022.2.5,60.094483406985056,
,,,,,,,,,,,,,,,,,,,,14,0,14,0,17,0,17,0,,,,,,define,w,g,upper,,,,,,,3,w,LoDemNoTar,g,1,0.6111254402203485,,,,,,,,,,,,,,,,,,339,2023-11-27_14h09.58.703,leap3,2022.2.5,60.094483406985056,
,,,,,,,,,,,,,,,,,,,,14,0,14,0,18,0,18,0,,,,,,correct,w,g,upper,,,,,,,3,w,LoDemNoTar,g,1,1.1052593914791942,,,,,,,,,,,,,,,,,,339,2023-11-27_14h09.58.703,leap3,2022.2.5,60.094483406985056,
,,,,,,,,,,,,,,,,,,,,14,0,14,0,19,0,19,0,,,,,,brimitar,nw,h,upper,,,,,,,3,nw,LoDemNoTar,h,1,0.6913239625282586,,,,,,,,,,,,,,,,,,339,2023-11-27_14h09.58.703,leap3,2022.2.5,60.094483406985056,
,,,,,,,,,,,,,,,,,,,,14,0,14,0,20,0,20,0,,,,,,etcess,nw,h,upper,,,,,,,3,nw,LoDemNoTar,h,1,0.6532182343071327,,,,,,,,,,,,,,,,,,339,2023-11-27_14h09.58.703,leap3,2022.2.5,60.094483406985056,
,,,,,,,,,,,,,,,,,,,,14,0,14,0,21,0,21,0,,,,,,disease,w,g,upper,,,,,,,3,w,LoDemNoTar,g,1,0.673231364460662,,,,,,,,,,,,,,,,,,339,2023-11-27_14h09.58.703,leap3,2022.2.5,60.094483406985056,
,,,,,,,,,,,,,,,,,,,,14,0,14,0,22,0,22,0,,,,,,sequence,w,g,upper,,,,,,,3,w,LoDemNoTar,g,1,0.6045586835825816,,,,,,,,,,,,,,,,,,339,2023-11-27_14h09.58.703,leap3,2022.2.5,60.094483406985056,
,,,,,,,,,,,,,,,,,,,,14,0,14,0,23,0,23,0,,,,,,surdens,nw,h,upper,,,,,,,3,nw,LoDemNoTar,h,1,0.6506335773738101,,,,,,,,,,,,,,,,,,339,2023-11-27_14h09.58.703,leap3,2022.2.5,60.094483406985056,
,,,,,,,,,,,,,,,,,,,,14,0,14,0,24,0,24,0,,,,,,arbitrary,w,g,upper,,,,,,,3,w,LoDemNoTar,g,1,0.6870306577766314,,,,,,,,,,,,,,,,,,339,2023-11-27_14h09.58.703,leap3,2022.2.5,60.094483406985056,
,,,,,,,,,,,,,,,,,,,,14,0,14,0,25,0,25,0,,,,,,cemoir,nw,h,upper,,,,,,,3,nw,LoDemNoTar,h,1,0.633568286895752,,,,,,,,,,,,,,,,,,339,2023-11-27_14h09.58.703,leap3,2022.2.5,60.094483406985056,
,,,,,,,,,,,,,,,,,,,,14,0,14,0,26,0,26,0,,,,,,calming,w,g,upper,,,,,,,3,w,LoDemNoTar,g,1,0.7108775686938316,,,,,,,,,,,,,,,,,,339,2023-11-27_14h09.58.703,leap3,2022.2.5,60.094483406985056,
,,,,,,,,,,,,,,,,,,,,14,0,14,0,27,0,27,0,,,,,,sazer,nw,h,upper,,,,,,,3,nw,LoDemNoTar,h,1,0.5210335784358904,,,,,,,,,,,,,,,,,,339,2023-11-27_14h09.58.703,leap3,2022.2.5,60.094483406985056,
,,,,,,,,,,,,,,,,,,,,14,0,14,0,28,0,28,0,,,,,,apology,w,g,upper,,,,,,,3,w,LoDemNoTar,g,1,0.6260917523177341,,,,,,,,,,,,,,,,,,339,2023-11-27_14h09.58.703,leap3,2022.2.5,60.094483406985056,
,,,,,,,,,,,,,,,,,,,,14,0,14,0,29,0,29,0,,,,,,seighing,nw,h,upper,,,,,,,3,nw,LoDemNoTar,g,0,0.8148422210942954,,,,,,,,,,,,,,,,,,339,2023-11-27_14h09.58.703,leap3,2022.2.5,60.094483406985056,
,,,,,,,,,,,,,,,,,,,,14,0,14,0,,,,,,,,,,,,,,,,,,,,,,,,,,,NA,,,,,,,,,,,,,,,,339,2023-11-27_14h09.58.703,leap3,2022.2.5,60.094483406985056,
,,,,,,,,,,,,,,,,,,,,15,0,15,0,0,0,0,0,,,,,,harmful,w,g,upper,,,,,,,3,w,LoDemNoTar,g,1,0.5897910129278898,,,,,,,,,,,,,,,,,,339,2023-11-27_14h09.58.703,leap3,2022.2.5,60.094483406985056,
,,,,,,,,,,,,,,,,,,,,15,0,15,0,1,0,1,0,,,,,,downtrund,nw,h,upper,,,,,,,3,nw,LoDemNoTar,h,1,0.7805156471440569,,,,,,,,,,,,,,,,,,339,2023-11-27_14h09.58.703,leap3,2022.2.5,60.094483406985056,
,,,,,,,,,,,,,,,,,,,,15,0,15,0,2,0,2,0,,,,,,truthful,w,g,upper,,,,,,,3,w,LoDemNoTar,g,1,0.5159420659765601,,,,,,,,,,,,,,,,,,339,2023-11-27_14h09.58.703,leap3,2022.2.5,60.094483406985056,
,,,,,,,,,,,,,,,,,,,,15,0,15,0,3,0,3,0,,,,,,twenties,w,g,upper,,,,,,,3,w,LoDemNoTar,g,1,0.734034200431779,,,,,,,,,,,,,,,,,,339,2023-11-27_14h09.58.703,leap3,2022.2.5,60.094483406985056,
,,,,,,,,,,,,,,,,,,,,15,0,15,0,4,0,4,0,,,,,,demon,w,g,upper,,,,,,,3,w,LoDemNoTar,g,1,0.4458550576819107,,,,,,,,,,,,,,,,,,339,2023-11-27_14h09.58.703,leap3,2022.2.5,60.094483406985056,
,,,,,,,,,,,,,,,,,,,,15,0,15,0,5,0,5,0,,,,,,quittint,nw,h,upper,,,,,,,3,nw,LoDemNoTar,h,1,0.666590117267333,,,,,,,,,,,,,,,,,,339,2023-11-27_14h09.58.703,leap3,2022.2.5,60.094483406985056,
,,,,,,,,,,,,,,,,,,,,15,0,15,0,6,0,6,0,,,,,,sliding,w,g,upper,,,,,,,3,w,LoDemNoTar,g,1,0.5666261045262218,,,,,,,,,,,,,,,,,,339,2023-11-27_14h09.58.703,leap3,2022.2.5,60.094483406985056,
,,,,,,,,,,,,,,,,,,,,15,0,15,0,7,0,7,0,,,,,,divider,w,g,upper,,,,,,,3,w,LoDemNoTar,g,1,0.5832805380923674,,,,,,,,,,,,,,,,,,339,2023-11-27_14h09.58.703,leap3,2022.2.5,60.094483406985056,
,,,,,,,,,,,,,,,,,,,,15,0,15,0,8,0,8,0,,,,,,apop,nw,h,upper,,,,,,,3,nw,LoDemNoTar,h,1,0.5986332079628482,,,,,,,,,,,,,,,,,,339,2023-11-27_14h09.58.703,leap3,2022.2.5,60.094483406985056,
,,,,,,,,,,,,,,,,,,,,15,0,15,0,9,0,9,0,,,,,,runabouk,nw,h,upper,,,,,,,3,nw,LoDemNoTar,h,1,0.9654260450042784,,,,,,,,,,,,,,,,,,339,2023-11-27_14h09.58.703,leap3,2022.2.5,60.094483406985056,
,,,,,,,,,,,,,,,,,,,,15,0,15,0,10,0,10,0,,,,,,marinate,w,g,upper,,,,,,,3,w,LoDemNoTar,g,1,0.9015929331071675,,,,,,,,,,,,,,,,,,339,2023-11-27_14h09.58.703,leap3,2022.2.5,60.094483406985056,
,,,,,,,,,,,,,,,,,,,,15,0,15,0,11,0,11,0,,,,,,fudden,nw,h,upper,,,,,,,3,nw,LoDemNoTar,h,1,0.791563093662262,,,,,,,,,,,,,,,,,,339,2023-11-27_14h09.58.703,leap3,2022.2.5,60.094483406985056,
,,,,,,,,,,,,,,,,,,,,15,0,15,0,12,0,12,0,,,,,,beartiset,nw,h,upper,,,,,,,3,nw,LoDemNoTar,h,1,0.6463783455546945,,,,,,,,,,,,,,,,,,339,2023-11-27_14h09.58.703,leap3,2022.2.5,60.094483406985056,
,,,,,,,,,,,,,,,,,,,,15,0,15,0,13,0,13,0,,,,,,arrival,w,g,upper,,,,,,,3,w,LoDemNoTar,g,1,0.6191214222926646,,,,,,,,,,,,,,,,,,339,2023-11-27_14h09.58.703,leap3,2022.2.5,60.094483406985056,
,,,,,,,,,,,,,,,,,,,,15,0,15,0,14,0,14,0,,,,,,soluced,nw,h,upper,,,,,,,3,nw,LoDemNoTar,h,1,0.5517031624913216,,,,,,,,,,,,,,,,,,339,2023-11-27_14h09.58.703,leap3,2022.2.5,60.094483406985056,
,,,,,,,,,,,,,,,,,,,,15,0,15,0,15,0,15,0,,,,,,frose,nw,h,upper,,,,,,,3,nw,LoDemNoTar,h,1,0.6714624620508403,,,,,,,,,,,,,,,,,,339,2023-11-27_14h09.58.703,leap3,2022.2.5,60.094483406985056,
,,,,,,,,,,,,,,,,,,,,15,0,15,0,16,0,16,0,,,,,,dileting,nw,h,upper,,,,,,,3,nw,LoDemNoTar,h,1,1.0430402415804565,,,,,,,,,,,,,,,,,,339,2023-11-27_14h09.58.703,leap3,2022.2.5,60.094483406985056,
,,,,,,,,,,,,,,,,,,,,15,0,15,0,17,0,17,0,,,,,,pracking,nw,h,upper,,,,,,,3,nw,LoDemNoTar,h,1,0.8158599276794121,,,,,,,,,,,,,,,,,,339,2023-11-27_14h09.58.703,leap3,2022.2.5,60.094483406985056,
,,,,,,,,,,,,,,,,,,,,15,0,15,0,18,0,18,0,,,,,,student,w,g,upper,,,,,,,3,w,LoDemNoTar,g,1,0.5419134476687759,,,,,,,,,,,,,,,,,,339,2023-11-27_14h09.58.703,leap3,2022.2.5,60.094483406985056,
,,,,,,,,,,,,,,,,,,,,15,0,15,0,19,0,19,0,,,,,,beggarlan,nw,h,upper,,,,,,,3,nw,LoDemNoTar,h,1,0.5826488581951708,,,,,,,,,,,,,,,,,,339,2023-11-27_14h09.58.703,leap3,2022.2.5,60.094483406985056,
,,,,,,,,,,,,,,,,,,,,15,0,15,0,20,0,20,0,,,,,,outset,w,g,upper,,,,,,,3,w,LoDemNoTar,g,1,0.6380264640320092,,,,,,,,,,,,,,,,,,339,2023-11-27_14h09.58.703,leap3,2022.2.5,60.094483406985056,
,,,,,,,,,,,,,,,,,,,,15,0,15,0,21,0,21,0,,,,,,chesume,nw,h,upper,,,,,,,3,nw,LoDemNoTar,h,1,0.8347444430692121,,,,,,,,,,,,,,,,,,339,2023-11-27_14h09.58.703,leap3,2022.2.5,60.094483406985056,
,,,,,,,,,,,,,,,,,,,,15,0,15,0,22,0,22,0,,,,,,other,w,g,upper,,,,,,,3,w,LoDemNoTar,h,0,0.4794986358610913,,,,,,,,,,,,,,,,,,339,2023-11-27_14h09.58.703,leap3,2022.2.5,60.094483406985056,
,,,,,,,,,,,,,,,,,,,,15,0,15,0,23,0,23,0,,,,,,tasher,nw,h,upper,,,,,,,3,nw,LoDemNoTar,h,1,0.7780177304521203,,,,,,,,,,,,,,,,,,339,2023-11-27_14h09.58.703,leap3,2022.2.5,60.094483406985056,
,,,,,,,,,,,,,,,,,,,,15,0,15,0,24,0,24,0,,,,,,regional,w,g,upper,,,,,,,3,w,LoDemNoTar,g,1,0.705320573062636,,,,,,,,,,,,,,,,,,339,2023-11-27_14h09.58.703,leap3,2022.2.5,60.094483406985056,
,,,,,,,,,,,,,,,,,,,,15,0,15,0,25,0,25,0,,,,,,chrik,nw,h,upper,,,,,,,3,nw,LoDemNoTar,h,1,0.6509656397392973,,,,,,,,,,,,,,,,,,339,2023-11-27_14h09.58.703,leap3,2022.2.5,60.094483406985056,
,,,,,,,,,,,,,,,,,,,,15,0,15,0,26,0,26,0,,,,,,laser,w,g,upper,,,,,,,3,w,LoDemNoTar,g,1,0.5994860420469195,,,,,,,,,,,,,,,,,,339,2023-11-27_14h09.58.703,leap3,2022.2.5,60.094483406985056,
,,,,,,,,,,,,,,,,,,,,15,0,15,0,27,0,27,0,,,,,,forgery,w,g,upper,,,,,,,3,w,LoDemNoTar,h,0,0.8701936724828556,,,,,,,,,,,,,,,,,,339,2023-11-27_14h09.58.703,leap3,2022.2.5,60.094483406985056,
,,,,,,,,,,,,,,,,,,,,15,0,15,0,28,0,28,0,,,,,,sonkers,nw,h,upper,,,,,,,3,nw,LoDemNoTar,h,1,0.6736024930141866,,,,,,,,,,,,,,,,,,339,2023-11-27_14h09.58.703,leap3,2022.2.5,60.094483406985056,
,,,,,,,,,,,,,,,,,,,,15,0,15,0,29,0,29,0,,,,,,grieving,w,g,upper,,,,,,,3,w,LoDemNoTar,g,1,1.0930359872290865,,,,,,,,,,,,,,,,,,339,2023-11-27_14h09.58.703,leap3,2022.2.5,60.094483406985056,
,,,,,,,,,,,,,,,,,,,,15,0,15,0,,,,,,,,,,,,,,,,,,,,,,,,,,,NA,,,,,,,,,,,,,,,,339,2023-11-27_14h09.58.703,leap3,2022.2.5,60.094483406985056,
,,,,,,,,,,,,,,,,,,,,16,0,16,0,0,0,0,0,,,,,,country,w,g,lower,,,,,,,1,w,HiDemTar,g,1,0.6633853679522872,,,,,,,,,,,,,,,,,,339,2023-11-27_14h09.58.703,leap3,2022.2.5,60.094483406985056,
,,,,,,,,,,,,,,,,,,,,16,0,16,0,1,0,1,0,,,,,,tucker,w,g,lower,,,,,,,1,w,HiDemTar,g,1,1.0837667131563649,,,,,,,,,,,,,,,,,,339,2023-11-27_14h09.58.703,leap3,2022.2.5,60.094483406985056,
,,,,,,,,,,,,,,,,,,,,16,0,16,0,2,0,2,0,,,,,,grummer,nw,h,lower,,,,,,,1,nw,HiDemTar,h,1,0.8232033725362271,,,,,,,,,,,,,,,,,,339,2023-11-27_14h09.58.703,leap3,2022.2.5,60.094483406985056,
,,,,,,,,,,,,,,,,,,,,16,0,16,0,3,0,3,0,,,,,,pocket,w,g,lower,,,,,,,1,w,HiDemTar,g,1,0.5966626843437552,,,,,,,,,,,,,,,,,,339,2023-11-27_14h09.58.703,leap3,2022.2.5,60.094483406985056,
,,,,,,,,,,,,,,,,,,,,16,0,16,0,4,0,4,0,,,,,,neliefs,nw,h,lower,,,,,,,1,nw,HiDemTar,h,1,0.6353865186683834,,,,,,,,,,,,,,,,,,339,2023-11-27_14h09.58.703,leap3,2022.2.5,60.094483406985056,
,,,,,,,,,,,,,,,,,,,,16,0,16,0,5,0,5,0,,,,,,unbridled,w,g,lower,,,,,,,1,w,HiDemTar,h,0,0.7128421330126002,,,,,,,,,,,,,,,,,,339,2023-11-27_14h09.58.703,leap3,2022.2.5,60.094483406985056,
,,,,,,,,,,,,,,,,,,,,16,0,16,0,6,0,6,0,,,,,,supplier,w,g,lower,,,,,,,1,w,HiDemTar,g,1,0.7780243518063799,,,,,,,,,,,,,,,,,,339,2023-11-27_14h09.58.703,leap3,2022.2.5,60.094483406985056,
,,,,,,,,,,,,,,,,,,,,16,0,16,0,7,0,7,0,,,,,,pretzel,w,g,lower,,,,,,,1,w,HiDemTar,g,1,0.6973451171070337,,,,,,,,,,,,,,,,,,339,2023-11-27_14h09.58.703,leap3,2022.2.5,60.094483406985056,
