demoRace_loop.thisRepN,demoRace_loop.thisTrialN,demoRace_loop.thisN,demoRace_loop.thisIndex,LDTunderstand.thisRepN,LDTunderstand.thisTrialN,LDTunderstand.thisN,LDTunderstand.thisIndex,pracBlocks.thisRepN,pracBlocks.thisTrialN,pracBlocks.thisN,pracBlocks.thisIndex,pracTrial.thisRepN,pracTrial.thisTrialN,pracTrial.thisN,pracTrial.thisIndex,PMunderstand.thisRepN,PMunderstand.thisTrialN,PMunderstand.thisN,PMunderstand.thisIndex,LDT_block.thisRepN,LDT_block.thisTrialN,LDT_block.thisN,LDT_block.thisIndex,LDT_trial.thisRepN,LDT_trial.thisTrialN,LDT_trial.thisN,LDT_trial.thisIndex,ageTextbox.text,genderTextbox.text,race,raceResp,LDTunderstand,stim,word_type,corr_key,stim_location,LDTpracKey.keys,LDTpracKey.corr,LDTpracKey.rt,PMunderstand,cueTextbox.text,intentionTextbox.text,block_type,role,block_desc,LDTResp.keys,LDTResp.corr,LDTResp.rt,pressedQ,pressedQ_blank,PM_accuracy,pressedQ_late,postQ1,Q2Textbox.text,Q3Textbox.text,Q4,Q5,Q6Key.keys,Q6Key.rt,postQ7_correct,postQ7,Q8Textbox.text,education,medTextbox.text,health,healthLimit,psych,participant,date,expName,psychopyVersion,frameRate,
0,0,0,0,,,,,,,,,,,,,,,,,,,,,,,,,"
19"," Male
",American Indian or Alaska Native,n,,,,,,,,,,,,,,,,,,,,,,,,,,,,,,,,,,,,,350,2023-11-13_13h45.02.188,leap3,2022.2.5,59.998251998035315,
1,0,1,0,,,,,,,,,,,,,,,,,,,,,,,,,,,Asian,n,,,,,,,,,,,,,,,,,,,,,,,,,,,,,,,,,,,,,350,2023-11-13_13h45.02.188,leap3,2022.2.5,59.998251998035315,
2,0,2,0,,,,,,,,,,,,,,,,,,,,,,,,,,,Black or African American,n,,,,,,,,,,,,,,,,,,,,,,,,,,,,,,,,,,,,,350,2023-11-13_13h45.02.188,leap3,2022.2.5,59.998251998035315,
3,0,3,0,,,,,,,,,,,,,,,,,,,,,,,,,,,Native Hawaiian or other Pacific Islander,n,,,,,,,,,,,,,,,,,,,,,,,,,,,,,,,,,,,,,350,2023-11-13_13h45.02.188,leap3,2022.2.5,59.998251998035315,
4,0,4,0,,,,,,,,,,,,,,,,,,,,,,,,,,,White,n,,,,,,,,,,,,,,,,,,,,,,,,,,,,,,,,,,,,,350,2023-11-13_13h45.02.188,leap3,2022.2.5,59.998251998035315,
,,,,0,0,0,0,,,,,,,,,,,,,,,,,,,,,,,,,y,,,,,,,,,,,,,,,,,,,,,,,,,,,,,,,,,,,,350,2023-11-13_13h45.02.188,leap3,2022.2.5,59.998251998035315,
,,,,,,,,0,0,0,0,0,0,0,0,,,,,,,,,,,,,,,,,,revival,w,g,upper,g,1,0.7715234943898395,,,,,,,,,,,,,,,,,,,,,,,,,,,,,350,2023-11-13_13h45.02.188,leap3,2022.2.5,59.998251998035315,
,,,,,,,,0,0,0,0,1,0,1,0,,,,,,,,,,,,,,,,,,reputable,w,g,upper,g,1,0.704680543334689,,,,,,,,,,,,,,,,,,,,,,,,,,,,,350,2023-11-13_13h45.02.188,leap3,2022.2.5,59.998251998035315,
,,,,,,,,0,0,0,0,2,0,2,0,,,,,,,,,,,,,,,,,,grocus,nw,h,upper,h,1,0.6810496718389913,,,,,,,,,,,,,,,,,,,,,,,,,,,,,350,2023-11-13_13h45.02.188,leap3,2022.2.5,59.998251998035315,
,,,,,,,,0,0,0,0,3,0,3,0,,,,,,,,,,,,,,,,,,raestro,nw,h,upper,h,1,0.6706414544023573,,,,,,,,,,,,,,,,,,,,,,,,,,,,,350,2023-11-13_13h45.02.188,leap3,2022.2.5,59.998251998035315,
,,,,,,,,0,0,0,0,4,0,4,0,,,,,,,,,,,,,,,,,,hiring,w,g,upper,g,1,0.48093531985068694,,,,,,,,,,,,,,,,,,,,,,,,,,,,,350,2023-11-13_13h45.02.188,leap3,2022.2.5,59.998251998035315,
,,,,,,,,0,0,0,0,5,0,5,0,,,,,,,,,,,,,,,,,,infinity,w,g,upper,g,1,0.5089290480245836,,,,,,,,,,,,,,,,,,,,,,,,,,,,,350,2023-11-13_13h45.02.188,leap3,2022.2.5,59.998251998035315,
,,,,,,,,0,0,0,0,6,0,6,0,,,,,,,,,,,,,,,,,,tricycle,w,g,upper,h,0,0.5197163420380093,,,,,,,,,,,,,,,,,,,,,,,,,,,,,350,2023-11-13_13h45.02.188,leap3,2022.2.5,59.998251998035315,
,,,,,,,,0,0,0,0,7,0,7,0,,,,,,,,,,,,,,,,,,latador,nw,h,upper,h,1,0.6810443747090176,,,,,,,,,,,,,,,,,,,,,,,,,,,,,350,2023-11-13_13h45.02.188,leap3,2022.2.5,59.998251998035315,
,,,,,,,,0,0,0,0,8,0,8,0,,,,,,,,,,,,,,,,,,trotch,nw,h,upper,h,1,0.6435856510652229,,,,,,,,,,,,,,,,,,,,,,,,,,,,,350,2023-11-13_13h45.02.188,leap3,2022.2.5,59.998251998035315,
,,,,,,,,0,0,0,0,9,0,9,0,,,,,,,,,,,,,,,,,,umpire,w,g,upper,g,1,0.5522629618062638,,,,,,,,,,,,,,,,,,,,,,,,,,,,,350,2023-11-13_13h45.02.188,leap3,2022.2.5,59.998251998035315,
,,,,,,,,0,0,0,0,10,0,10,0,,,,,,,,,,,,,,,,,,lumbigo,nw,h,upper,g,0,0.5043758253450505,,,,,,,,,,,,,,,,,,,,,,,,,,,,,350,2023-11-13_13h45.02.188,leap3,2022.2.5,59.998251998035315,
,,,,,,,,0,0,0,0,11,0,11,0,,,,,,,,,,,,,,,,,,picture,w,g,upper,g,1,0.538487087818794,,,,,,,,,,,,,,,,,,,,,,,,,,,,,350,2023-11-13_13h45.02.188,leap3,2022.2.5,59.998251998035315,
,,,,,,,,0,0,0,0,12,0,12,0,,,,,,,,,,,,,,,,,,lurshing,nw,h,upper,h,1,0.579306184547022,,,,,,,,,,,,,,,,,,,,,,,,,,,,,350,2023-11-13_13h45.02.188,leap3,2022.2.5,59.998251998035315,
,,,,,,,,0,0,0,0,13,0,13,0,,,,,,,,,,,,,,,,,,julled,nw,h,upper,h,1,0.7860429544234648,,,,,,,,,,,,,,,,,,,,,,,,,,,,,350,2023-11-13_13h45.02.188,leap3,2022.2.5,59.998251998035315,
,,,,,,,,0,0,0,0,,,,,,,,,,,,,,,,,,,,,,,,,,,,,,,,,,,,,,,,,,,,,,,,,,,,,,,,,350,2023-11-13_13h45.02.188,leap3,2022.2.5,59.998251998035315,
,,,,,,,,1,0,1,0,0,0,0,0,,,,,,,,,,,,,,,,,,sponsor,w,g,lower,g,1,0.5774031871114857,,,,,,,,,,,,,,,,,,,,,,,,,,,,,350,2023-11-13_13h45.02.188,leap3,2022.2.5,59.998251998035315,
,,,,,,,,1,0,1,0,1,0,1,0,,,,,,,,,,,,,,,,,,unscrew,w,g,lower,g,1,0.5048164811450988,,,,,,,,,,,,,,,,,,,,,,,,,,,,,350,2023-11-13_13h45.02.188,leap3,2022.2.5,59.998251998035315,
,,,,,,,,1,0,1,0,2,0,2,0,,,,,,,,,,,,,,,,,,treeps,nw,h,lower,g,0,0.5149459366220981,,,,,,,,,,,,,,,,,,,,,,,,,,,,,350,2023-11-13_13h45.02.188,leap3,2022.2.5,59.998251998035315,
,,,,,,,,1,0,1,0,3,0,3,0,,,,,,,,,,,,,,,,,,alolition,nw,h,lower,g,0,0.9161287879105657,,,,,,,,,,,,,,,,,,,,,,,,,,,,,350,2023-11-13_13h45.02.188,leap3,2022.2.5,59.998251998035315,
,,,,,,,,1,0,1,0,4,0,4,0,,,,,,,,,,,,,,,,,,grimace,w,g,lower,h,0,0.5581854951451533,,,,,,,,,,,,,,,,,,,,,,,,,,,,,350,2023-11-13_13h45.02.188,leap3,2022.2.5,59.998251998035315,
,,,,,,,,1,0,1,0,5,0,5,0,,,,,,,,,,,,,,,,,,overshoot,w,g,lower,g,1,0.6783385295420885,,,,,,,,,,,,,,,,,,,,,,,,,,,,,350,2023-11-13_13h45.02.188,leap3,2022.2.5,59.998251998035315,
,,,,,,,,1,0,1,0,6,0,6,0,,,,,,,,,,,,,,,,,,busted,w,g,lower,g,1,0.5217703080270439,,,,,,,,,,,,,,,,,,,,,,,,,,,,,350,2023-11-13_13h45.02.188,leap3,2022.2.5,59.998251998035315,
,,,,,,,,1,0,1,0,7,0,7,0,,,,,,,,,,,,,,,,,,crinklo,nw,h,lower,h,1,0.6272055706358515,,,,,,,,,,,,,,,,,,,,,,,,,,,,,350,2023-11-13_13h45.02.188,leap3,2022.2.5,59.998251998035315,
,,,,,,,,1,0,1,0,8,0,8,0,,,,,,,,,,,,,,,,,,hasking,nw,h,lower,g,0,0.8886992051266134,,,,,,,,,,,,,,,,,,,,,,,,,,,,,350,2023-11-13_13h45.02.188,leap3,2022.2.5,59.998251998035315,
,,,,,,,,1,0,1,0,9,0,9,0,,,,,,,,,,,,,,,,,,slumber,w,g,lower,g,1,0.5865198957035318,,,,,,,,,,,,,,,,,,,,,,,,,,,,,350,2023-11-13_13h45.02.188,leap3,2022.2.5,59.998251998035315,
,,,,,,,,1,0,1,0,10,0,10,0,,,,,,,,,,,,,,,,,,turative,nw,h,lower,h,1,0.7772745327674784,,,,,,,,,,,,,,,,,,,,,,,,,,,,,350,2023-11-13_13h45.02.188,leap3,2022.2.5,59.998251998035315,
,,,,,,,,1,0,1,0,11,0,11,0,,,,,,,,,,,,,,,,,,summary,w,g,lower,g,1,0.5926652398775332,,,,,,,,,,,,,,,,,,,,,,,,,,,,,350,2023-11-13_13h45.02.188,leap3,2022.2.5,59.998251998035315,
,,,,,,,,1,0,1,0,12,0,12,0,,,,,,,,,,,,,,,,,,curlecs,nw,h,lower,h,1,0.8233536892803386,,,,,,,,,,,,,,,,,,,,,,,,,,,,,350,2023-11-13_13h45.02.188,leap3,2022.2.5,59.998251998035315,
,,,,,,,,1,0,1,0,13,0,13,0,,,,,,,,,,,,,,,,,,grutch,nw,h,lower,g,0,0.5808089168858714,,,,,,,,,,,,,,,,,,,,,,,,,,,,,350,2023-11-13_13h45.02.188,leap3,2022.2.5,59.998251998035315,
,,,,,,,,1,0,1,0,,,,,,,,,,,,,,,,,,,,,,,,,,,,,,,,,,,,,,,,,,,,,,,,,,,,,,,,,350,2023-11-13_13h45.02.188,leap3,2022.2.5,59.998251998035315,
,,,,,,,,,,,,,,,,0,0,0,0,,,,,,,,,,,,,,,,,,,,,y,,,,,,,,,,,,,,,,,,,,,,,,,,,,350,2023-11-13_13h45.02.188,leap3,2022.2.5,59.998251998035315,
,,,,,,,,,,,,,,,,,,,,0,0,0,0,0,0,0,0,,,,,,welayed,nw,h,upper,,,,,animal,"
q ",1,nw,HiDemTar,h,1,0.7514145587338135,,,,,,,,,,,,,,,,,,,,350,2023-11-13_13h45.02.188,leap3,2022.2.5,59.998251998035315,
,,,,,,,,,,,,,,,,,,,,0,0,0,0,1,0,1,0,,,,,,moral,w,g,upper,,,,,,,1,w,HiDemTar,g,1,0.5681100175133906,,,,,,,,,,,,,,,,,,,,350,2023-11-13_13h45.02.188,leap3,2022.2.5,59.998251998035315,
,,,,,,,,,,,,,,,,,,,,0,0,0,0,2,0,2,0,,,,,,surfaced,w,g,upper,,,,,,,1,w,HiDemTar,g,1,0.615277074102778,,,,,,,,,,,,,,,,,,,,350,2023-11-13_13h45.02.188,leap3,2022.2.5,59.998251998035315,
,,,,,,,,,,,,,,,,,,,,0,0,0,0,3,0,3,0,,,,,,telecast,w,g,upper,,,,,,,1,w,HiDemTar,h,0,0.5418818922480568,,,,,,,,,,,,,,,,,,,,350,2023-11-13_13h45.02.188,leap3,2022.2.5,59.998251998035315,
,,,,,,,,,,,,,,,,,,,,0,0,0,0,4,0,4,0,,,,,,result,w,g,upper,,,,,,,1,w,HiDemTar,g,1,0.43136634153779596,,,,,,,,,,,,,,,,,,,,350,2023-11-13_13h45.02.188,leap3,2022.2.5,59.998251998035315,
,,,,,,,,,,,,,,,,,,,,0,0,0,0,5,0,5,0,,,,,,addition,w,g,upper,,,,,,,1,w,HiDemTar,g,1,0.5174842597916722,,,,,,,,,,,,,,,,,,,,350,2023-11-13_13h45.02.188,leap3,2022.2.5,59.998251998035315,
,,,,,,,,,,,,,,,,,,,,0,0,0,0,6,0,6,0,,,,,,earnest,w,g,upper,,,,,,,1,w,HiDemTar,h,0,0.6794747660169378,,,,,,,,,,,,,,,,,,,,350,2023-11-13_13h45.02.188,leap3,2022.2.5,59.998251998035315,
,,,,,,,,,,,,,,,,,,,,0,0,0,0,7,0,7,0,,,,,,guitar,w,g,upper,,,,,,,1,w,HiDemTar,g,1,0.5555448709637858,,,,,,,,,,,,,,,,,,,,350,2023-11-13_13h45.02.188,leap3,2022.2.5,59.998251998035315,
,,,,,,,,,,,,,,,,,,,,0,0,0,0,8,0,8,0,,,,,,preserve,w,g,upper,,,,,,,1,w,HiDemTar,g,1,0.5483033498749137,,,,,,,,,,,,,,,,,,,,350,2023-11-13_13h45.02.188,leap3,2022.2.5,59.998251998035315,
,,,,,,,,,,,,,,,,,,,,0,0,0,0,9,0,9,0,,,,,,gettle,nw,h,upper,,,,,,,1,nw,HiDemTar,h,1,0.477729557082057,,,,,,,,,,,,,,,,,,,,350,2023-11-13_13h45.02.188,leap3,2022.2.5,59.998251998035315,
,,,,,,,,,,,,,,,,,,,,0,0,0,0,10,0,10,0,,,,,,potter,w,g,upper,,,,,,,1,w,HiDemTar,g,1,0.4658083441318013,,,,,,,,,,,,,,,,,,,,350,2023-11-13_13h45.02.188,leap3,2022.2.5,59.998251998035315,
,,,,,,,,,,,,,,,,,,,,0,0,0,0,11,0,11,0,,,,,,pleamed,nw,h,upper,,,,,,,1,nw,HiDemTar,h,1,0.6304719194304198,,,,,,,,,,,,,,,,,,,,350,2023-11-13_13h45.02.188,leap3,2022.2.5,59.998251998035315,
,,,,,,,,,,,,,,,,,,,,0,0,0,0,12,0,12,0,,,,,,sprea,nw,h,upper,,,,,,,1,nw,HiDemTar,h,1,0.7875691928202286,,,,,,,,,,,,,,,,,,,,350,2023-11-13_13h45.02.188,leap3,2022.2.5,59.998251998035315,
,,,,,,,,,,,,,,,,,,,,0,0,0,0,13,0,13,0,,,,,,octopus,target,q,upper,,,,,,,1,target,HiDemTar,g,0,0.6029221577919088,1,1,,,,,,,,,,,,,,,,,,350,2023-11-13_13h45.02.188,leap3,2022.2.5,59.998251998035315,
,,,,,,,,,,,,,,,,,,,,0,0,0,0,14,0,14,0,,,,,,exploit,w,g,upper,,,,,,,1,aftertar1,HiDemTar,g,1,0.7136701205745339,,,,,,,,,,,,,,,,,,,,350,2023-11-13_13h45.02.188,leap3,2022.2.5,59.998251998035315,
,,,,,,,,,,,,,,,,,,,,0,0,0,0,15,0,15,0,,,,,,fivalve,nw,h,upper,,,,,,,1,aftertar2,HiDemTar,h,1,0.7404392161988653,,,,,,,,,,,,,,,,,,,,350,2023-11-13_13h45.02.188,leap3,2022.2.5,59.998251998035315,
,,,,,,,,,,,,,,,,,,,,0,0,0,0,16,0,16,0,,,,,,tiery,nw,h,upper,,,,,,,1,aftertar3,HiDemTar,h,1,0.6938353118603118,,,,,,,,,,,,,,,,,,,,350,2023-11-13_13h45.02.188,leap3,2022.2.5,59.998251998035315,
,,,,,,,,,,,,,,,,,,,,0,0,0,0,17,0,17,0,,,,,,tusied,nw,h,upper,,,,,,,1,nw,HiDemTar,h,1,0.5926162413670681,,,,,,,,,,,,,,,,,,,,350,2023-11-13_13h45.02.188,leap3,2022.2.5,59.998251998035315,
,,,,,,,,,,,,,,,,,,,,0,0,0,0,18,0,18,0,,,,,,subpoena,w,g,upper,,,,,,,1,nw,HiDemTar,g,1,0.847943011962343,,,,,,,,,,,,,,,,,,,,350,2023-11-13_13h45.02.188,leap3,2022.2.5,59.998251998035315,
,,,,,,,,,,,,,,,,,,,,0,0,0,0,19,0,19,0,,,,,,duries,nw,h,upper,,,,,,,1,w,HiDemTar,h,1,0.49345014354912564,,,,,,,,,,,,,,,,,,,,350,2023-11-13_13h45.02.188,leap3,2022.2.5,59.998251998035315,
,,,,,,,,,,,,,,,,,,,,0,0,0,0,20,0,20,0,,,,,,curtail,w,g,upper,,,,,,,1,nw,HiDemTar,h,0,0.6487252008519135,,,,,,,,,,,,,,,,,,,,350,2023-11-13_13h45.02.188,leap3,2022.2.5,59.998251998035315,
,,,,,,,,,,,,,,,,,,,,0,0,0,0,21,0,21,0,,,,,,vented,w,g,upper,,,,,,,1,w,HiDemTar,g,1,0.5981315570534207,,,,,,,,,,,,,,,,,,,,350,2023-11-13_13h45.02.188,leap3,2022.2.5,59.998251998035315,
,,,,,,,,,,,,,,,,,,,,0,0,0,0,22,0,22,0,,,,,,buzzer,w,g,upper,,,,,,,1,w,HiDemTar,h,0,0.5137229594984092,,,,,,,,,,,,,,,,,,,,350,2023-11-13_13h45.02.188,leap3,2022.2.5,59.998251998035315,
,,,,,,,,,,,,,,,,,,,,0,0,0,0,23,0,23,0,,,,,,ronvince,nw,h,upper,,,,,,,1,w,HiDemTar,h,1,0.7423342679394409,,,,,,,,,,,,,,,,,,,,350,2023-11-13_13h45.02.188,leap3,2022.2.5,59.998251998035315,
,,,,,,,,,,,,,,,,,,,,0,0,0,0,24,0,24,0,,,,,,sength,nw,h,upper,,,,,,,1,nw,HiDemTar,h,1,0.5600341969402507,,,,,,,,,,,,,,,,,,,,350,2023-11-13_13h45.02.188,leap3,2022.2.5,59.998251998035315,
,,,,,,,,,,,,,,,,,,,,0,0,0,0,25,0,25,0,,,,,,rillains,nw,h,upper,,,,,,,1,nw,HiDemTar,h,1,0.5047449697740376,,,,,,,,,,,,,,,,,,,,350,2023-11-13_13h45.02.188,leap3,2022.2.5,59.998251998035315,
,,,,,,,,,,,,,,,,,,,,0,0,0,0,26,0,26,0,,,,,,wrecber,nw,h,upper,,,,,,,1,nw,HiDemTar,h,1,0.555464751785621,,,,,,,,,,,,,,,,,,,,350,2023-11-13_13h45.02.188,leap3,2022.2.5,59.998251998035315,
,,,,,,,,,,,,,,,,,,,,0,0,0,0,27,0,27,0,,,,,,rejoiced,w,g,upper,,,,,,,1,nw,HiDemTar,g,1,0.5002629274385981,,,,,,,,,,,,,,,,,,,,350,2023-11-13_13h45.02.188,leap3,2022.2.5,59.998251998035315,
,,,,,,,,,,,,,,,,,,,,0,0,0,0,28,0,28,0,,,,,,gensions,nw,h,upper,,,,,,,1,w,HiDemTar,h,1,0.5276968141552061,,,,,,,,,,,,,,,,,,,,350,2023-11-13_13h45.02.188,leap3,2022.2.5,59.998251998035315,
,,,,,,,,,,,,,,,,,,,,0,0,0,0,29,0,29,0,,,,,,rangel,nw,h,upper,,,,,,,1,nw,HiDemTar,h,1,0.649830978771206,,,,,,,,,,,,,,,,,,,,350,2023-11-13_13h45.02.188,leap3,2022.2.5,59.998251998035315,
,,,,,,,,,,,,,,,,,,,,0,0,0,0,,,,,,,,,,,,,,,,,,,,,,,,,,,,1,,,,,,,,,,,,,,,,,350,2023-11-13_13h45.02.188,leap3,2022.2.5,59.998251998035315,
,,,,,,,,,,,,,,,,,,,,1,0,1,0,0,0,0,0,,,,,,tuckel,nw,h,upper,,,,,,,1,nw,HiDemTar,h,1,0.5904917572624981,,,,,,,,,,,,,,,,,,,,350,2023-11-13_13h45.02.188,leap3,2022.2.5,59.998251998035315,
,,,,,,,,,,,,,,,,,,,,1,0,1,0,1,0,1,0,,,,,,border,w,g,upper,,,,,,,1,w,HiDemTar,g,1,0.4379089712165296,,,,,,,,,,,,,,,,,,,,350,2023-11-13_13h45.02.188,leap3,2022.2.5,59.998251998035315,
,,,,,,,,,,,,,,,,,,,,1,0,1,0,2,0,2,0,,,,,,cogantly,nw,h,upper,,,,,,,1,nw,HiDemTar,h,1,0.45937364356359467,,,,,,,,,,,,,,,,,,,,350,2023-11-13_13h45.02.188,leap3,2022.2.5,59.998251998035315,
,,,,,,,,,,,,,,,,,,,,1,0,1,0,3,0,3,0,,,,,,mitro,nw,h,upper,,,,,,,1,nw,HiDemTar,h,1,0.5761077053612098,,,,,,,,,,,,,,,,,,,,350,2023-11-13_13h45.02.188,leap3,2022.2.5,59.998251998035315,
,,,,,,,,,,,,,,,,,,,,1,0,1,0,4,0,4,0,,,,,,acting,w,g,upper,,,,,,,1,w,HiDemTar,g,1,0.5361692581209354,,,,,,,,,,,,,,,,,,,,350,2023-11-13_13h45.02.188,leap3,2022.2.5,59.998251998035315,
,,,,,,,,,,,,,,,,,,,,1,0,1,0,5,0,5,0,,,,,,phambled,nw,h,upper,,,,,,,1,nw,HiDemTar,h,1,0.5454875890281983,,,,,,,,,,,,,,,,,,,,350,2023-11-13_13h45.02.188,leap3,2022.2.5,59.998251998035315,
,,,,,,,,,,,,,,,,,,,,1,0,1,0,6,0,6,0,,,,,,huntry,nw,h,upper,,,,,,,1,nw,HiDemTar,g,0,0.5068922978243791,,,,,,,,,,,,,,,,,,,,350,2023-11-13_13h45.02.188,leap3,2022.2.5,59.998251998035315,
,,,,,,,,,,,,,,,,,,,,1,0,1,0,7,0,7,0,,,,,,defeat,w,g,upper,,,,,,,1,w,HiDemTar,g,1,0.5805980244767852,,,,,,,,,,,,,,,,,,,,350,2023-11-13_13h45.02.188,leap3,2022.2.5,59.998251998035315,
,,,,,,,,,,,,,,,,,,,,1,0,1,0,8,0,8,0,,,,,,permute,w,g,upper,,,,,,,1,w,HiDemTar,h,0,0.9727307124994695,,,,,,,,,,,,,,,,,,,,350,2023-11-13_13h45.02.188,leap3,2022.2.5,59.998251998035315,
,,,,,,,,,,,,,,,,,,,,1,0,1,0,9,0,9,0,,,,,,rualify,nw,h,upper,,,,,,,1,nw,HiDemTar,h,1,0.7807875296566635,,,,,,,,,,,,,,,,,,,,350,2023-11-13_13h45.02.188,leap3,2022.2.5,59.998251998035315,
,,,,,,,,,,,,,,,,,,,,1,0,1,0,10,0,10,0,,,,,,dorth,nw,h,upper,,,,,,,1,nw,HiDemTar,h,1,0.47685850865673274,,,,,,,,,,,,,,,,,,,,350,2023-11-13_13h45.02.188,leap3,2022.2.5,59.998251998035315,
,,,,,,,,,,,,,,,,,,,,1,0,1,0,11,0,11,0,,,,,,hardest,w,g,upper,,,,,,,1,w,HiDemTar,g,1,0.8889633999788202,,,,,,,,,,,,,,,,,,,,350,2023-11-13_13h45.02.188,leap3,2022.2.5,59.998251998035315,
,,,,,,,,,,,,,,,,,,,,1,0,1,0,12,0,12,0,,,,,,frequency,w,g,upper,,,,,,,1,w,HiDemTar,g,1,0.5781477662967518,,,,,,,,,,,,,,,,,,,,350,2023-11-13_13h45.02.188,leap3,2022.2.5,59.998251998035315,
,,,,,,,,,,,,,,,,,,,,1,0,1,0,13,0,13,0,,,,,,pypecast,nw,h,upper,,,,,,,1,nw,HiDemTar,h,1,0.6443878366262652,,,,,,,,,,,,,,,,,,,,350,2023-11-13_13h45.02.188,leap3,2022.2.5,59.998251998035315,
,,,,,,,,,,,,,,,,,,,,1,0,1,0,14,0,14,0,,,,,,guffy,nw,h,upper,,,,,,,1,nw,HiDemTar,h,1,0.6978488884633407,,,,,,,,,,,,,,,,,,,,350,2023-11-13_13h45.02.188,leap3,2022.2.5,59.998251998035315,
,,,,,,,,,,,,,,,,,,,,1,0,1,0,15,0,15,0,,,,,,daylight,w,g,upper,,,,,,,1,w,HiDemTar,g,1,0.6451539354748093,,,,,,,,,,,,,,,,,,,,350,2023-11-13_13h45.02.188,leap3,2022.2.5,59.998251998035315,
,,,,,,,,,,,,,,,,,,,,1,0,1,0,16,0,16,0,,,,,,shests,nw,h,upper,,,,,,,1,nw,HiDemTar,h,1,0.5295537927304395,,,,,,,,,,,,,,,,,,,,350,2023-11-13_13h45.02.188,leap3,2022.2.5,59.998251998035315,
,,,,,,,,,,,,,,,,,,,,1,0,1,0,17,0,17,0,,,,,,casino,w,g,upper,,,,,,,1,w,HiDemTar,g,1,0.5934111434035003,,,,,,,,,,,,,,,,,,,,350,2023-11-13_13h45.02.188,leap3,2022.2.5,59.998251998035315,
,,,,,,,,,,,,,,,,,,,,1,0,1,0,18,0,18,0,,,,,,saturate,w,g,upper,,,,,,,1,w,HiDemTar,h,0,0.8511116947047412,,,,,,,,,,,,,,,,,,,,350,2023-11-13_13h45.02.188,leap3,2022.2.5,59.998251998035315,
,,,,,,,,,,,,,,,,,,,,1,0,1,0,19,0,19,0,,,,,,giraffe,target,q,upper,,,,,,,1,target,HiDemTar,q,1,0.7925200320314616,1,,,,,,,,,,,,,,,,,,,350,2023-11-13_13h45.02.188,leap3,2022.2.5,59.998251998035315,
,,,,,,,,,,,,,,,,,,,,1,0,1,0,20,0,20,0,,,,,,arrow,w,g,upper,,,,,,,1,aftertar1,HiDemTar,g,1,0.6959435734897852,,,,,,,,,,,,,,,,,,,,350,2023-11-13_13h45.02.188,leap3,2022.2.5,59.998251998035315,
,,,,,,,,,,,,,,,,,,,,1,0,1,0,21,0,21,0,,,,,,lawsuit,w,g,upper,,,,,,,1,aftertar2,HiDemTar,g,1,0.5632899514748715,,,,,,,,,,,,,,,,,,,,350,2023-11-13_13h45.02.188,leap3,2022.2.5,59.998251998035315,
,,,,,,,,,,,,,,,,,,,,1,0,1,0,22,0,22,0,,,,,,rowel,nw,h,upper,,,,,,,1,aftertar3,HiDemTar,h,1,0.6441776063875295,,,,,,,,,,,,,,,,,,,,350,2023-11-13_13h45.02.188,leap3,2022.2.5,59.998251998035315,
,,,,,,,,,,,,,,,,,,,,1,0,1,0,23,0,23,0,,,,,,duplex,w,g,upper,,,,,,,1,nw,HiDemTar,h,0,0.6415320161613636,,,,,,,,,,,,,,,,,,,,350,2023-11-13_13h45.02.188,leap3,2022.2.5,59.998251998035315,
,,,,,,,,,,,,,,,,,,,,1,0,1,0,24,0,24,0,,,,,,buttress,w,g,upper,,,,,,,1,w,HiDemTar,h,0,0.6949480422772467,,,,,,,,,,,,,,,,,,,,350,2023-11-13_13h45.02.188,leap3,2022.2.5,59.998251998035315,
,,,,,,,,,,,,,,,,,,,,1,0,1,0,25,0,25,0,,,,,,splinging,nw,h,upper,,,,,,,1,w,HiDemTar,h,1,0.6653598750126548,,,,,,,,,,,,,,,,,,,,350,2023-11-13_13h45.02.188,leap3,2022.2.5,59.998251998035315,
,,,,,,,,,,,,,,,,,,,,1,0,1,0,26,0,26,0,,,,,,dislokes,nw,h,upper,,,,,,,1,nw,HiDemTar,h,1,0.5740676444256678,,,,,,,,,,,,,,,,,,,,350,2023-11-13_13h45.02.188,leap3,2022.2.5,59.998251998035315,
,,,,,,,,,,,,,,,,,,,,1,0,1,0,27,0,27,0,,,,,,ralliep,nw,h,upper,,,,,,,1,nw,HiDemTar,h,1,0.5181411051307805,,,,,,,,,,,,,,,,,,,,350,2023-11-13_13h45.02.188,leap3,2022.2.5,59.998251998035315,
,,,,,,,,,,,,,,,,,,,,1,0,1,0,28,0,28,0,,,,,,supplier,w,g,upper,,,,,,,1,nw,HiDemTar,g,1,0.8642449594917707,,,,,,,,,,,,,,,,,,,,350,2023-11-13_13h45.02.188,leap3,2022.2.5,59.998251998035315,
,,,,,,,,,,,,,,,,,,,,1,0,1,0,29,0,29,0,,,,,,advantage,w,g,upper,,,,,,,1,w,HiDemTar,g,1,0.6529642369714566,,,,,,,,,,,,,,,,,,,,350,2023-11-13_13h45.02.188,leap3,2022.2.5,59.998251998035315,
,,,,,,,,,,,,,,,,,,,,1,0,1,0,,,,,,,,,,,,,,,,,,,,,,,,,,,,1,,,,,,,,,,,,,,,,,350,2023-11-13_13h45.02.188,leap3,2022.2.5,59.998251998035315,
,,,,,,,,,,,,,,,,,,,,2,0,2,0,0,0,0,0,,,,,,ulcer,w,g,upper,,,,,,,1,w,HiDemTar,q,0,0.9928048857836984,,,,,,,,,,,,,,,,,,,,350,2023-11-13_13h45.02.188,leap3,2022.2.5,59.998251998035315,
,,,,,,,,,,,,,,,,,,,,2,0,2,0,1,0,1,0,,,,,,carnival,w,g,upper,,,,,,,1,w,HiDemTar,g,1,0.6082034061546437,,,,,,,,,,,,,,,,,,,,350,2023-11-13_13h45.02.188,leap3,2022.2.5,59.998251998035315,
,,,,,,,,,,,,,,,,,,,,2,0,2,0,2,0,2,0,,,,,,cutout,w,g,upper,,,,,,,1,w,HiDemTar,g,1,0.6789248567074537,,,,,,,,,,,,,,,,,,,,350,2023-11-13_13h45.02.188,leap3,2022.2.5,59.998251998035315,
,,,,,,,,,,,,,,,,,,,,2,0,2,0,3,0,3,0,,,,,,togglo,nw,h,upper,,,,,,,1,nw,HiDemTar,h,1,0.6269870636751875,,,,,,,,,,,,,,,,,,,,350,2023-11-13_13h45.02.188,leap3,2022.2.5,59.998251998035315,
,,,,,,,,,,,,,,,,,,,,2,0,2,0,4,0,4,0,,,,,,exemplify,w,g,upper,,,,,,,1,w,HiDemTar,g,1,1.1611281224759296,,,,,,,,,,,,,,,,,,,,350,2023-11-13_13h45.02.188,leap3,2022.2.5,59.998251998035315,
,,,,,,,,,,,,,,,,,,,,2,0,2,0,5,0,5,0,,,,,,bullet,w,g,upper,,,,,,,1,w,HiDemTar,g,1,0.5537411949480884,,,,,,,,,,,,,,,,,,,,350,2023-11-13_13h45.02.188,leap3,2022.2.5,59.998251998035315,
,,,,,,,,,,,,,,,,,,,,2,0,2,0,6,0,6,0,,,,,,bother,w,g,upper,,,,,,,1,w,HiDemTar,g,1,0.5305625667679124,,,,,,,,,,,,,,,,,,,,350,2023-11-13_13h45.02.188,leap3,2022.2.5,59.998251998035315,
,,,,,,,,,,,,,,,,,,,,2,0,2,0,7,0,7,0,,,,,,urique,nw,h,upper,,,,,,,1,nw,HiDemTar,g,0,0.5645178946433589,,,,,,,,,,,,,,,,,,,,350,2023-11-13_13h45.02.188,leap3,2022.2.5,59.998251998035315,
,,,,,,,,,,,,,,,,,,,,2,0,2,0,8,0,8,0,,,,,,shimble,nw,h,upper,,,,,,,1,nw,HiDemTar,h,1,0.5493601292837411,,,,,,,,,,,,,,,,,,,,350,2023-11-13_13h45.02.188,leap3,2022.2.5,59.998251998035315,
,,,,,,,,,,,,,,,,,,,,2,0,2,0,9,0,9,0,,,,,,newstrint,nw,h,upper,,,,,,,1,nw,HiDemTar,h,1,0.5586807777290232,,,,,,,,,,,,,,,,,,,,350,2023-11-13_13h45.02.188,leap3,2022.2.5,59.998251998035315,
,,,,,,,,,,,,,,,,,,,,2,0,2,0,10,0,10,0,,,,,,ensues,w,g,upper,,,,,,,1,w,HiDemTar,h,0,0.39042474841699004,,,,,,,,,,,,,,,,,,,,350,2023-11-13_13h45.02.188,leap3,2022.2.5,59.998251998035315,
,,,,,,,,,,,,,,,,,,,,2,0,2,0,11,0,11,0,,,,,,gepealed,nw,h,upper,,,,,,,1,nw,HiDemTar,h,1,0.5095829137135297,,,,,,,,,,,,,,,,,,,,350,2023-11-13_13h45.02.188,leap3,2022.2.5,59.998251998035315,
,,,,,,,,,,,,,,,,,,,,2,0,2,0,12,0,12,0,,,,,,dests,nw,h,upper,,,,,,,1,nw,HiDemTar,h,1,0.41621486644726247,,,,,,,,,,,,,,,,,,,,350,2023-11-13_13h45.02.188,leap3,2022.2.5,59.998251998035315,
,,,,,,,,,,,,,,,,,,,,2,0,2,0,13,0,13,0,,,,,,undertake,w,g,upper,,,,,,,1,w,HiDemTar,g,1,0.6233379964833148,,,,,,,,,,,,,,,,,,,,350,2023-11-13_13h45.02.188,leap3,2022.2.5,59.998251998035315,
,,,,,,,,,,,,,,,,,,,,2,0,2,0,14,0,14,0,,,,,,rabbit,target,q,upper,,,,,,,1,target,HiDemTar,q,1,0.7573672194848768,1,,,,,,,,,,,,,,,,,,,350,2023-11-13_13h45.02.188,leap3,2022.2.5,59.998251998035315,
,,,,,,,,,,,,,,,,,,,,2,0,2,0,15,0,15,0,,,,,,vergas,nw,h,upper,,,,,,,1,aftertar1,HiDemTar,h,1,0.5662136414903216,,,,,,,,,,,,,,,,,,,,350,2023-11-13_13h45.02.188,leap3,2022.2.5,59.998251998035315,
,,,,,,,,,,,,,,,,,,,,2,0,2,0,16,0,16,0,,,,,,theles,nw,h,upper,,,,,,,1,aftertar2,HiDemTar,h,1,0.6069003097363748,,,,,,,,,,,,,,,,,,,,350,2023-11-13_13h45.02.188,leap3,2022.2.5,59.998251998035315,
,,,,,,,,,,,,,,,,,,,,2,0,2,0,17,0,17,0,,,,,,minister,w,g,upper,,,,,,,1,aftertar3,HiDemTar,g,1,0.6376684148563072,,,,,,,,,,,,,,,,,,,,350,2023-11-13_13h45.02.188,leap3,2022.2.5,59.998251998035315,
,,,,,,,,,,,,,,,,,,,,2,0,2,0,18,0,18,0,,,,,,volition,w,g,upper,,,,,,,1,w,HiDemTar,h,0,0.6910596106317826,,,,,,,,,,,,,,,,,,,,350,2023-11-13_13h45.02.188,leap3,2022.2.5,59.998251998035315,
,,,,,,,,,,,,,,,,,,,,2,0,2,0,19,0,19,0,,,,,,mosary,nw,h,upper,,,,,,,1,w,HiDemTar,h,1,0.6774995950399898,,,,,,,,,,,,,,,,,,,,350,2023-11-13_13h45.02.188,leap3,2022.2.5,59.998251998035315,
,,,,,,,,,,,,,,,,,,,,2,0,2,0,20,0,20,0,,,,,,slightly,w,g,upper,,,,,,,1,nw,HiDemTar,g,1,0.6015816503786482,,,,,,,,,,,,,,,,,,,,350,2023-11-13_13h45.02.188,leap3,2022.2.5,59.998251998035315,
,,,,,,,,,,,,,,,,,,,,2,0,2,0,21,0,21,0,,,,,,goltish,nw,h,upper,,,,,,,1,w,HiDemTar,h,1,0.5843209205195308,,,,,,,,,,,,,,,,,,,,350,2023-11-13_13h45.02.188,leap3,2022.2.5,59.998251998035315,
,,,,,,,,,,,,,,,,,,,,2,0,2,0,22,0,22,0,,,,,,sengry,nw,h,upper,,,,,,,1,nw,HiDemTar,h,1,0.5997329485835508,,,,,,,,,,,,,,,,,,,,350,2023-11-13_13h45.02.188,leap3,2022.2.5,59.998251998035315,
,,,,,,,,,,,,,,,,,,,,2,0,2,0,23,0,23,0,,,,,,unversed,w,g,upper,,,,,,,1,nw,HiDemTar,g,1,0.8871027796994895,,,,,,,,,,,,,,,,,,,,350,2023-11-13_13h45.02.188,leap3,2022.2.5,59.998251998035315,
,,,,,,,,,,,,,,,,,,,,2,0,2,0,24,0,24,0,,,,,,susher,nw,h,upper,,,,,,,1,w,HiDemTar,h,1,0.674538824998308,,,,,,,,,,,,,,,,,,,,350,2023-11-13_13h45.02.188,leap3,2022.2.5,59.998251998035315,
,,,,,,,,,,,,,,,,,,,,2,0,2,0,25,0,25,0,,,,,,fuhrek,nw,h,upper,,,,,,,1,nw,HiDemTar,h,1,0.45459330605808645,,,,,,,,,,,,,,,,,,,,350,2023-11-13_13h45.02.188,leap3,2022.2.5,59.998251998035315,
,,,,,,,,,,,,,,,,,,,,2,0,2,0,26,0,26,0,,,,,,unrealon,nw,h,upper,,,,,,,1,nw,HiDemTar,h,1,0.5393293329980224,,,,,,,,,,,,,,,,,,,,350,2023-11-13_13h45.02.188,leap3,2022.2.5,59.998251998035315,
,,,,,,,,,,,,,,,,,,,,2,0,2,0,27,0,27,0,,,,,,midday,w,g,upper,,,,,,,1,nw,HiDemTar,h,0,0.5167545787990093,,,,,,,,,,,,,,,,,,,,350,2023-11-13_13h45.02.188,leap3,2022.2.5,59.998251998035315,
,,,,,,,,,,,,,,,,,,,,2,0,2,0,28,0,28,0,,,,,,begut,nw,h,upper,,,,,,,1,w,HiDemTar,h,1,0.5674319836543873,,,,,,,,,,,,,,,,,,,,350,2023-11-13_13h45.02.188,leap3,2022.2.5,59.998251998035315,
,,,,,,,,,,,,,,,,,,,,2,0,2,0,29,0,29,0,,,,,,describe,w,g,upper,,,,,,,1,nw,HiDemTar,g,1,0.49451652402058244,,,,,,,,,,,,,,,,,,,,350,2023-11-13_13h45.02.188,leap3,2022.2.5,59.998251998035315,
,,,,,,,,,,,,,,,,,,,,2,0,2,0,,,,,,,,,,,,,,,,,,,,,,,,,,,,1,,,,,,,,,,,,,,,,,350,2023-11-13_13h45.02.188,leap3,2022.2.5,59.998251998035315,
,,,,,,,,,,,,,,,,,,,,3,0,3,0,0,0,0,0,,,,,,gymnasium,w,g,lower,,,,,,,3,w,LoDemNoTar,g,1,0.5621434517670423,,,,,,,,,,,,,,,,,,,,350,2023-11-13_13h45.02.188,leap3,2022.2.5,59.998251998035315,
,,,,,,,,,,,,,,,,,,,,3,0,3,0,1,0,1,0,,,,,,filter,w,g,lower,,,,,,,3,w,LoDemNoTar,g,1,0.5389747557346709,,,,,,,,,,,,,,,,,,,,350,2023-11-13_13h45.02.188,leap3,2022.2.5,59.998251998035315,
,,,,,,,,,,,,,,,,,,,,3,0,3,0,2,0,2,0,,,,,,stranded,w,g,lower,,,,,,,3,w,LoDemNoTar,g,1,0.5243331304518506,,,,,,,,,,,,,,,,,,,,350,2023-11-13_13h45.02.188,leap3,2022.2.5,59.998251998035315,
,,,,,,,,,,,,,,,,,,,,3,0,3,0,3,0,3,0,,,,,,nomma,nw,h,lower,,,,,,,3,nw,LoDemNoTar,h,1,0.5583900971687399,,,,,,,,,,,,,,,,,,,,350,2023-11-13_13h45.02.188,leap3,2022.2.5,59.998251998035315,
,,,,,,,,,,,,,,,,,,,,3,0,3,0,4,0,4,0,,,,,,lifetime,w,g,lower,,,,,,,3,w,LoDemNoTar,g,1,0.4862205410609022,,,,,,,,,,,,,,,,,,,,350,2023-11-13_13h45.02.188,leap3,2022.2.5,59.998251998035315,
,,,,,,,,,,,,,,,,,,,,3,0,3,0,5,0,5,0,,,,,,micron,w,g,lower,,,,,,,3,w,LoDemNoTar,h,0,0.6496379642630927,,,,,,,,,,,,,,,,,,,,350,2023-11-13_13h45.02.188,leap3,2022.2.5,59.998251998035315,
,,,,,,,,,,,,,,,,,,,,3,0,3,0,6,0,6,0,,,,,,drobate,nw,h,lower,,,,,,,3,nw,LoDemNoTar,h,1,0.6469499968807213,,,,,,,,,,,,,,,,,,,,350,2023-11-13_13h45.02.188,leap3,2022.2.5,59.998251998035315,
,,,,,,,,,,,,,,,,,,,,3,0,3,0,7,0,7,0,,,,,,runabouk,nw,h,lower,,,,,,,3,nw,LoDemNoTar,h,1,0.5155716612935066,,,,,,,,,,,,,,,,,,,,350,2023-11-13_13h45.02.188,leap3,2022.2.5,59.998251998035315,
,,,,,,,,,,,,,,,,,,,,3,0,3,0,8,0,8,0,,,,,,sorping,nw,h,lower,,,,,,,3,nw,LoDemNoTar,h,1,0.5590416453778744,,,,,,,,,,,,,,,,,,,,350,2023-11-13_13h45.02.188,leap3,2022.2.5,59.998251998035315,
,,,,,,,,,,,,,,,,,,,,3,0,3,0,9,0,9,0,,,,,,natch,nw,h,lower,,,,,,,3,nw,LoDemNoTar,h,1,0.559863695234526,,,,,,,,,,,,,,,,,,,,350,2023-11-13_13h45.02.188,leap3,2022.2.5,59.998251998035315,
,,,,,,,,,,,,,,,,,,,,3,0,3,0,10,0,10,0,,,,,,crimb,nw,h,lower,,,,,,,3,nw,LoDemNoTar,h,1,0.7205699761398137,,,,,,,,,,,,,,,,,,,,350,2023-11-13_13h45.02.188,leap3,2022.2.5,59.998251998035315,
,,,,,,,,,,,,,,,,,,,,3,0,3,0,11,0,11,0,,,,,,triplet,w,g,lower,,,,,,,3,w,LoDemNoTar,h,0,0.6426791779813357,,,,,,,,,,,,,,,,,,,,350,2023-11-13_13h45.02.188,leap3,2022.2.5,59.998251998035315,
,,,,,,,,,,,,,,,,,,,,3,0,3,0,12,0,12,0,,,,,,ludictous,nw,h,lower,,,,,,,3,nw,LoDemNoTar,h,1,0.592084540927317,,,,,,,,,,,,,,,,,,,,350,2023-11-13_13h45.02.188,leap3,2022.2.5,59.998251998035315,
,,,,,,,,,,,,,,,,,,,,3,0,3,0,13,0,13,0,,,,,,student,w,g,lower,,,,,,,3,w,LoDemNoTar,g,1,0.5674710500752553,,,,,,,,,,,,,,,,,,,,350,2023-11-13_13h45.02.188,leap3,2022.2.5,59.998251998035315,
,,,,,,,,,,,,,,,,,,,,3,0,3,0,14,0,14,0,,,,,,potent,w,g,lower,,,,,,,3,w,LoDemNoTar,g,1,0.6785308819380589,,,,,,,,,,,,,,,,,,,,350,2023-11-13_13h45.02.188,leap3,2022.2.5,59.998251998035315,
,,,,,,,,,,,,,,,,,,,,3,0,3,0,15,0,15,0,,,,,,mebase,nw,h,lower,,,,,,,3,nw,LoDemNoTar,h,1,0.5946261748322286,,,,,,,,,,,,,,,,,,,,350,2023-11-13_13h45.02.188,leap3,2022.2.5,59.998251998035315,
,,,,,,,,,,,,,,,,,,,,3,0,3,0,16,0,16,0,,,,,,populace,w,g,lower,,,,,,,3,w,LoDemNoTar,g,1,0.7700283766607754,,,,,,,,,,,,,,,,,,,,350,2023-11-13_13h45.02.188,leap3,2022.2.5,59.998251998035315,
,,,,,,,,,,,,,,,,,,,,3,0,3,0,17,0,17,0,,,,,,pived,nw,h,lower,,,,,,,3,nw,LoDemNoTar,h,1,0.5621219321619719,,,,,,,,,,,,,,,,,,,,350,2023-11-13_13h45.02.188,leap3,2022.2.5,59.998251998035315,
,,,,,,,,,,,,,,,,,,,,3,0,3,0,18,0,18,0,,,,,,curricula,w,g,lower,,,,,,,3,w,LoDemNoTar,h,0,0.8188494651112705,,,,,,,,,,,,,,,,,,,,350,2023-11-13_13h45.02.188,leap3,2022.2.5,59.998251998035315,
,,,,,,,,,,,,,,,,,,,,3,0,3,0,19,0,19,0,,,,,,entitle,w,g,lower,,,,,,,3,w,LoDemNoTar,g,1,0.8969408924458548,,,,,,,,,,,,,,,,,,,,350,2023-11-13_13h45.02.188,leap3,2022.2.5,59.998251998035315,
,,,,,,,,,,,,,,,,,,,,3,0,3,0,20,0,20,0,,,,,,topefuls,nw,h,lower,,,,,,,3,nw,LoDemNoTar,h,1,0.6043984044226818,,,,,,,,,,,,,,,,,,,,350,2023-11-13_13h45.02.188,leap3,2022.2.5,59.998251998035315,
,,,,,,,,,,,,,,,,,,,,3,0,3,0,21,0,21,0,,,,,,mopping,w,g,lower,,,,,,,3,w,LoDemNoTar,g,1,0.7390861281310208,,,,,,,,,,,,,,,,,,,,350,2023-11-13_13h45.02.188,leap3,2022.2.5,59.998251998035315,
,,,,,,,,,,,,,,,,,,,,3,0,3,0,22,0,22,0,,,,,,elderly,w,g,lower,,,,,,,3,w,LoDemNoTar,g,1,0.6444984144181944,,,,,,,,,,,,,,,,,,,,350,2023-11-13_13h45.02.188,leap3,2022.2.5,59.998251998035315,
,,,,,,,,,,,,,,,,,,,,3,0,3,0,23,0,23,0,,,,,,crudios,nw,h,lower,,,,,,,3,nw,LoDemNoTar,h,1,0.7129063392058015,,,,,,,,,,,,,,,,,,,,350,2023-11-13_13h45.02.188,leap3,2022.2.5,59.998251998035315,
,,,,,,,,,,,,,,,,,,,,3,0,3,0,24,0,24,0,,,,,,detrabe,nw,h,lower,,,,,,,3,nw,LoDemNoTar,h,1,0.6356614610413089,,,,,,,,,,,,,,,,,,,,350,2023-11-13_13h45.02.188,leap3,2022.2.5,59.998251998035315,
,,,,,,,,,,,,,,,,,,,,3,0,3,0,25,0,25,0,,,,,,rocket,w,g,lower,,,,,,,3,w,LoDemNoTar,g,1,0.6410605707205832,,,,,,,,,,,,,,,,,,,,350,2023-11-13_13h45.02.188,leap3,2022.2.5,59.998251998035315,
,,,,,,,,,,,,,,,,,,,,3,0,3,0,26,0,26,0,,,,,,valif,nw,h,lower,,,,,,,3,nw,LoDemNoTar,h,1,0.5825228726025671,,,,,,,,,,,,,,,,,,,,350,2023-11-13_13h45.02.188,leap3,2022.2.5,59.998251998035315,
,,,,,,,,,,,,,,,,,,,,3,0,3,0,27,0,27,0,,,,,,halents,nw,h,lower,,,,,,,3,nw,LoDemNoTar,h,1,0.5985357949975878,,,,,,,,,,,,,,,,,,,,350,2023-11-13_13h45.02.188,leap3,2022.2.5,59.998251998035315,
,,,,,,,,,,,,,,,,,,,,3,0,3,0,28,0,28,0,,,,,,brials,nw,h,lower,,,,,,,3,nw,LoDemNoTar,h,1,0.6299233344616368,,,,,,,,,,,,,,,,,,,,350,2023-11-13_13h45.02.188,leap3,2022.2.5,59.998251998035315,
,,,,,,,,,,,,,,,,,,,,3,0,3,0,29,0,29,0,,,,,,failure,w,g,lower,,,,,,,3,w,LoDemNoTar,g,1,0.5799540909356438,,,,,,,,,,,,,,,,,,,,350,2023-11-13_13h45.02.188,leap3,2022.2.5,59.998251998035315,
,,,,,,,,,,,,,,,,,,,,3,0,3,0,,,,,,,,,,,,,,,,,,,,,,,,,,,,NA,,,,,,,,,,,,,,,,,350,2023-11-13_13h45.02.188,leap3,2022.2.5,59.998251998035315,
,,,,,,,,,,,,,,,,,,,,4,0,4,0,0,0,0,0,,,,,,hasks,nw,h,lower,,,,,,,3,nw,LoDemNoTar,h,1,0.6192595299798995,,,,,,,,,,,,,,,,,,,,350,2023-11-13_13h45.02.188,leap3,2022.2.5,59.998251998035315,
,,,,,,,,,,,,,,,,,,,,4,0,4,0,1,0,1,0,,,,,,butled,nw,h,lower,,,,,,,3,nw,LoDemNoTar,h,1,0.4819381346460432,,,,,,,,,,,,,,,,,,,,350,2023-11-13_13h45.02.188,leap3,2022.2.5,59.998251998035315,
,,,,,,,,,,,,,,,,,,,,4,0,4,0,2,0,2,0,,,,,,fallacy,w,g,lower,,,,,,,3,w,LoDemNoTar,h,0,0.5019490732229315,,,,,,,,,,,,,,,,,,,,350,2023-11-13_13h45.02.188,leap3,2022.2.5,59.998251998035315,
,,,,,,,,,,,,,,,,,,,,4,0,4,0,3,0,3,0,,,,,,leather,w,g,lower,,,,,,,3,w,LoDemNoTar,g,1,0.5206688339821994,,,,,,,,,,,,,,,,,,,,350,2023-11-13_13h45.02.188,leap3,2022.2.5,59.998251998035315,
,,,,,,,,,,,,,,,,,,,,4,0,4,0,4,0,4,0,,,,,,measure,w,g,lower,,,,,,,3,w,LoDemNoTar,g,1,0.5307830601814203,,,,,,,,,,,,,,,,,,,,350,2023-11-13_13h45.02.188,leap3,2022.2.5,59.998251998035315,
,,,,,,,,,,,,,,,,,,,,4,0,4,0,5,0,5,0,,,,,,imprives,nw,h,lower,,,,,,,3,nw,LoDemNoTar,h,1,0.6608169155661017,,,,,,,,,,,,,,,,,,,,350,2023-11-13_13h45.02.188,leap3,2022.2.5,59.998251998035315,
,,,,,,,,,,,,,,,,,,,,4,0,4,0,6,0,6,0,,,,,,grefab,nw,h,lower,,,,,,,3,nw,LoDemNoTar,h,1,0.7136217841762118,,,,,,,,,,,,,,,,,,,,350,2023-11-13_13h45.02.188,leap3,2022.2.5,59.998251998035315,
,,,,,,,,,,,,,,,,,,,,4,0,4,0,7,0,7,0,,,,,,naxis,nw,h,lower,,,,,,,3,nw,LoDemNoTar,h,1,0.6114323438378051,,,,,,,,,,,,,,,,,,,,350,2023-11-13_13h45.02.188,leap3,2022.2.5,59.998251998035315,
,,,,,,,,,,,,,,,,,,,,4,0,4,0,8,0,8,0,,,,,,thaken,nw,h,lower,,,,,,,3,nw,LoDemNoTar,h,1,0.5620759132434614,,,,,,,,,,,,,,,,,,,,350,2023-11-13_13h45.02.188,leap3,2022.2.5,59.998251998035315,
,,,,,,,,,,,,,,,,,,,,4,0,4,0,9,0,9,0,,,,,,revising,w,g,lower,,,,,,,3,w,LoDemNoTar,g,1,0.5548509456566535,,,,,,,,,,,,,,,,,,,,350,2023-11-13_13h45.02.188,leap3,2022.2.5,59.998251998035315,
,,,,,,,,,,,,,,,,,,,,4,0,4,0,10,0,10,0,,,,,,doads,nw,h,lower,,,,,,,3,nw,LoDemNoTar,h,1,0.4996160142472945,,,,,,,,,,,,,,,,,,,,350,2023-11-13_13h45.02.188,leap3,2022.2.5,59.998251998035315,
,,,,,,,,,,,,,,,,,,,,4,0,4,0,11,0,11,0,,,,,,wienegs,nw,h,lower,,,,,,,3,nw,LoDemNoTar,h,1,0.4949690983630717,,,,,,,,,,,,,,,,,,,,350,2023-11-13_13h45.02.188,leap3,2022.2.5,59.998251998035315,
,,,,,,,,,,,,,,,,,,,,4,0,4,0,12,0,12,0,,,,,,decantel,nw,h,lower,,,,,,,3,nw,LoDemNoTar,h,1,0.5784185825614259,,,,,,,,,,,,,,,,,,,,350,2023-11-13_13h45.02.188,leap3,2022.2.5,59.998251998035315,
,,,,,,,,,,,,,,,,,,,,4,0,4,0,13,0,13,0,,,,,,noils,nw,h,lower,,,,,,,3,nw,LoDemNoTar,h,1,0.49042349035153165,,,,,,,,,,,,,,,,,,,,350,2023-11-13_13h45.02.188,leap3,2022.2.5,59.998251998035315,
,,,,,,,,,,,,,,,,,,,,4,0,4,0,14,0,14,0,,,,,,rawhide,w,g,lower,,,,,,,3,w,LoDemNoTar,h,0,0.4458202494424768,,,,,,,,,,,,,,,,,,,,350,2023-11-13_13h45.02.188,leap3,2022.2.5,59.998251998035315,
,,,,,,,,,,,,,,,,,,,,4,0,4,0,15,0,15,0,,,,,,posing,w,g,lower,,,,,,,3,w,LoDemNoTar,h,0,0.8672418163623661,,,,,,,,,,,,,,,,,,,,350,2023-11-13_13h45.02.188,leap3,2022.2.5,59.998251998035315,
,,,,,,,,,,,,,,,,,,,,4,0,4,0,16,0,16,0,,,,,,deceit,w,g,lower,,,,,,,3,w,LoDemNoTar,g,1,0.7433536363532767,,,,,,,,,,,,,,,,,,,,350,2023-11-13_13h45.02.188,leap3,2022.2.5,59.998251998035315,
,,,,,,,,,,,,,,,,,,,,4,0,4,0,17,0,17,0,,,,,,joadbed,nw,h,lower,,,,,,,3,nw,LoDemNoTar,h,1,0.5517531121731736,,,,,,,,,,,,,,,,,,,,350,2023-11-13_13h45.02.188,leap3,2022.2.5,59.998251998035315,
,,,,,,,,,,,,,,,,,,,,4,0,4,0,18,0,18,0,,,,,,sunshine,w,g,lower,,,,,,,3,w,LoDemNoTar,g,1,0.4165373298455961,,,,,,,,,,,,,,,,,,,,350,2023-11-13_13h45.02.188,leap3,2022.2.5,59.998251998035315,
,,,,,,,,,,,,,,,,,,,,4,0,4,0,19,0,19,0,,,,,,peanimate,nw,h,lower,,,,,,,3,nw,LoDemNoTar,h,1,0.8792292435537092,,,,,,,,,,,,,,,,,,,,350,2023-11-13_13h45.02.188,leap3,2022.2.5,59.998251998035315,
,,,,,,,,,,,,,,,,,,,,4,0,4,0,20,0,20,0,,,,,,threaded,w,g,lower,,,,,,,3,w,LoDemNoTar,h,0,0.539314434863627,,,,,,,,,,,,,,,,,,,,350,2023-11-13_13h45.02.188,leap3,2022.2.5,59.998251998035315,
,,,,,,,,,,,,,,,,,,,,4,0,4,0,21,0,21,0,,,,,,ireology,nw,h,lower,,,,,,,3,nw,LoDemNoTar,h,1,0.644663950020913,,,,,,,,,,,,,,,,,,,,350,2023-11-13_13h45.02.188,leap3,2022.2.5,59.998251998035315,
,,,,,,,,,,,,,,,,,,,,4,0,4,0,22,0,22,0,,,,,,epic,w,g,lower,,,,,,,3,w,LoDemNoTar,g,1,0.5860328898415901,,,,,,,,,,,,,,,,,,,,350,2023-11-13_13h45.02.188,leap3,2022.2.5,59.998251998035315,
,,,,,,,,,,,,,,,,,,,,4,0,4,0,23,0,23,0,,,,,,army,w,g,lower,,,,,,,3,w,LoDemNoTar,g,1,0.38542921456974,,,,,,,,,,,,,,,,,,,,350,2023-11-13_13h45.02.188,leap3,2022.2.5,59.998251998035315,
,,,,,,,,,,,,,,,,,,,,4,0,4,0,24,0,24,0,,,,,,arpired,nw,h,lower,,,,,,,3,nw,LoDemNoTar,h,1,0.6647990403580479,,,,,,,,,,,,,,,,,,,,350,2023-11-13_13h45.02.188,leap3,2022.2.5,59.998251998035315,
,,,,,,,,,,,,,,,,,,,,4,0,4,0,25,0,25,0,,,,,,oppose,w,g,lower,,,,,,,3,w,LoDemNoTar,g,1,0.5575356023036875,,,,,,,,,,,,,,,,,,,,350,2023-11-13_13h45.02.188,leap3,2022.2.5,59.998251998035315,
,,,,,,,,,,,,,,,,,,,,4,0,4,0,26,0,26,0,,,,,,infusion,w,g,lower,,,,,,,3,w,LoDemNoTar,g,1,0.5503046754747629,,,,,,,,,,,,,,,,,,,,350,2023-11-13_13h45.02.188,leap3,2022.2.5,59.998251998035315,
,,,,,,,,,,,,,,,,,,,,4,0,4,0,27,0,27,0,,,,,,rander,nw,h,lower,,,,,,,3,nw,LoDemNoTar,h,1,0.5907096021110192,,,,,,,,,,,,,,,,,,,,350,2023-11-13_13h45.02.188,leap3,2022.2.5,59.998251998035315,
,,,,,,,,,,,,,,,,,,,,4,0,4,0,28,0,28,0,,,,,,inside,w,g,lower,,,,,,,3,w,LoDemNoTar,g,1,0.49404540966497734,,,,,,,,,,,,,,,,,,,,350,2023-11-13_13h45.02.188,leap3,2022.2.5,59.998251998035315,
,,,,,,,,,,,,,,,,,,,,4,0,4,0,29,0,29,0,,,,,,asthmatic,w,g,lower,,,,,,,3,w,LoDemNoTar,g,1,0.7534777946420945,,,,,,,,,,,,,,,,,,,,350,2023-11-13_13h45.02.188,leap3,2022.2.5,59.998251998035315,
,,,,,,,,,,,,,,,,,,,,4,0,4,0,,,,,,,,,,,,,,,,,,,,,,,,,,,,NA,,,,,,,,,,,,,,,,,350,2023-11-13_13h45.02.188,leap3,2022.2.5,59.998251998035315,
,,,,,,,,,,,,,,,,,,,,5,0,5,0,0,0,0,0,,,,,,formation,w,g,lower,,,,,,,4,w,LoDemTar,h,0,0.7385017873602919,,,,,,,,,,,,,,,,,,,,350,2023-11-13_13h45.02.188,leap3,2022.2.5,59.998251998035315,
,,,,,,,,,,,,,,,,,,,,5,0,5,0,1,0,1,0,,,,,,issue,w,g,lower,,,,,,,4,w,LoDemTar,g,1,0.6839558151550591,,,,,,,,,,,,,,,,,,,,350,2023-11-13_13h45.02.188,leap3,2022.2.5,59.998251998035315,
,,,,,,,,,,,,,,,,,,,,5,0,5,0,2,0,2,0,,,,,,sequence,w,g,lower,,,,,,,4,w,LoDemTar,g,1,0.48644235875690356,,,,,,,,,,,,,,,,,,,,350,2023-11-13_13h45.02.188,leap3,2022.2.5,59.998251998035315,
,,,,,,,,,,,,,,,,,,,,5,0,5,0,3,0,3,0,,,,,,capobly,nw,h,lower,,,,,,,4,nw,LoDemTar,h,1,0.5458176670363173,,,,,,,,,,,,,,,,,,,,350,2023-11-13_13h45.02.188,leap3,2022.2.5,59.998251998035315,
,,,,,,,,,,,,,,,,,,,,5,0,5,0,4,0,4,0,,,,,,grenavier,nw,h,lower,,,,,,,4,nw,LoDemTar,h,1,0.5952062116120942,,,,,,,,,,,,,,,,,,,,350,2023-11-13_13h45.02.188,leap3,2022.2.5,59.998251998035315,
,,,,,,,,,,,,,,,,,,,,5,0,5,0,5,0,5,0,,,,,,smabled,nw,h,lower,,,,,,,4,nw,LoDemTar,h,1,0.45859165338333696,,,,,,,,,,,,,,,,,,,,350,2023-11-13_13h45.02.188,leap3,2022.2.5,59.998251998035315,
,,,,,,,,,,,,,,,,,,,,5,0,5,0,6,0,6,0,,,,,,poars,nw,h,lower,,,,,,,4,nw,LoDemTar,h,1,0.5593488794402219,,,,,,,,,,,,,,,,,,,,350,2023-11-13_13h45.02.188,leap3,2022.2.5,59.998251998035315,
,,,,,,,,,,,,,,,,,,,,5,0,5,0,7,0,7,0,,,,,,nelvet,nw,h,lower,,,,,,,4,nw,LoDemTar,h,1,0.4641039893613197,,,,,,,,,,,,,,,,,,,,350,2023-11-13_13h45.02.188,leap3,2022.2.5,59.998251998035315,
,,,,,,,,,,,,,,,,,,,,5,0,5,0,8,0,8,0,,,,,,destroy,w,g,lower,,,,,,,4,w,LoDemTar,g,1,0.5407939921715297,,,,,,,,,,,,,,,,,,,,350,2023-11-13_13h45.02.188,leap3,2022.2.5,59.998251998035315,
,,,,,,,,,,,,,,,,,,,,5,0,5,0,9,0,9,0,,,,,,euphoric,w,g,lower,,,,,,,4,w,LoDemTar,g,1,0.6382908287923783,,,,,,,,,,,,,,,,,,,,350,2023-11-13_13h45.02.188,leap3,2022.2.5,59.998251998035315,
,,,,,,,,,,,,,,,,,,,,5,0,5,0,10,0,10,0,,,,,,eyesight,w,g,lower,,,,,,,4,w,LoDemTar,g,1,0.44358717394061387,,,,,,,,,,,,,,,,,,,,350,2023-11-13_13h45.02.188,leap3,2022.2.5,59.998251998035315,
,,,,,,,,,,,,,,,,,,,,5,0,5,0,11,0,11,0,,,,,,amidst,w,g,lower,,,,,,,4,w,LoDemTar,h,0,0.624083237897139,,,,,,,,,,,,,,,,,,,,350,2023-11-13_13h45.02.188,leap3,2022.2.5,59.998251998035315,
,,,,,,,,,,,,,,,,,,,,5,0,5,0,12,0,12,0,,,,,,massacre,w,g,lower,,,,,,,4,w,LoDemTar,g,1,0.5261113140149973,,,,,,,,,,,,,,,,,,,,350,2023-11-13_13h45.02.188,leap3,2022.2.5,59.998251998035315,
,,,,,,,,,,,,,,,,,,,,5,0,5,0,13,0,13,0,,,,,,frunted,nw,h,lower,,,,,,,4,nw,LoDemTar,h,1,0.6801948459469713,,,,,,,,,,,,,,,,,,,,350,2023-11-13_13h45.02.188,leap3,2022.2.5,59.998251998035315,
,,,,,,,,,,,,,,,,,,,,5,0,5,0,14,0,14,0,,,,,,bamps,nw,h,lower,,,,,,,4,nw,LoDemTar,h,1,0.48433211067458615,,,,,,,,,,,,,,,,,,,,350,2023-11-13_13h45.02.188,leap3,2022.2.5,59.998251998035315,
,,,,,,,,,,,,,,,,,,,,5,0,5,0,15,0,15,0,,,,,,recipus,nw,h,lower,,,,,,,4,nw,LoDemTar,h,1,0.8396794740110636,,,,,,,,,,,,,,,,,,,,350,2023-11-13_13h45.02.188,leap3,2022.2.5,59.998251998035315,
,,,,,,,,,,,,,,,,,,,,5,0,5,0,16,0,16,0,,,,,,irregular,w,g,lower,,,,,,,4,w,LoDemTar,g,1,0.5810433152946644,,,,,,,,,,,,,,,,,,,,350,2023-11-13_13h45.02.188,leap3,2022.2.5,59.998251998035315,
,,,,,,,,,,,,,,,,,,,,5,0,5,0,17,0,17,0,,,,,,cherry,w,g,lower,,,,,,,4,w,LoDemTar,g,1,0.5251035332330503,,,,,,,,,,,,,,,,,,,,350,2023-11-13_13h45.02.188,leap3,2022.2.5,59.998251998035315,
,,,,,,,,,,,,,,,,,,,,5,0,5,0,18,0,18,0,,,,,,pranny,nw,h,lower,,,,,,,4,nw,LoDemTar,h,1,0.647264183498919,,,,,,,,,,,,,,,,,,,,350,2023-11-13_13h45.02.188,leap3,2022.2.5,59.998251998035315,
,,,,,,,,,,,,,,,,,,,,5,0,5,0,19,0,19,0,,,,,,mogus,nw,h,lower,,,,,,,4,nw,LoDemTar,h,1,0.844566747546196,,,,,,,,,,,,,,,,,,,,350,2023-11-13_13h45.02.188,leap3,2022.2.5,59.998251998035315,
,,,,,,,,,,,,,,,,,,,,5,0,5,0,20,0,20,0,,,,,,quittint,nw,h,lower,,,,,,,4,nw,LoDemTar,h,1,0.5698663504444994,,,,,,,,,,,,,,,,,,,,350,2023-11-13_13h45.02.188,leap3,2022.2.5,59.998251998035315,
,,,,,,,,,,,,,,,,,,,,5,0,5,0,21,0,21,0,,,,,,rational,w,g,lower,,,,,,,4,w,LoDemTar,g,1,0.6332261010538787,,,,,,,,,,,,,,,,,,,,350,2023-11-13_13h45.02.188,leap3,2022.2.5,59.998251998035315,
,,,,,,,,,,,,,,,,,,,,5,0,5,0,22,0,22,0,,,,,,cemoir,nw,h,lower,,,,,,,4,nw,LoDemTar,h,1,0.6390135572873987,,,,,,,,,,,,,,,,,,,,350,2023-11-13_13h45.02.188,leap3,2022.2.5,59.998251998035315,
,,,,,,,,,,,,,,,,,,,,5,0,5,0,23,0,23,0,,,,,,arrigns,nw,h,lower,,,,,,,4,nw,LoDemTar,h,1,0.788463416218292,,,,,,,,,,,,,,,,,,,,350,2023-11-13_13h45.02.188,leap3,2022.2.5,59.998251998035315,
,,,,,,,,,,,,,,,,,,,,5,0,5,0,24,0,24,0,,,,,,arrival,w,g,lower,,,,,,,4,w,LoDemTar,g,1,0.5398388516623527,,,,,,,,,,,,,,,,,,,,350,2023-11-13_13h45.02.188,leap3,2022.2.5,59.998251998035315,
,,,,,,,,,,,,,,,,,,,,5,0,5,0,25,0,25,0,,,,,,elephant,target,q,lower,,,,,,,4,target,LoDemTar,g,0,0.5324447067105211,1,1,,,,,,,,,,,,,,,,,,350,2023-11-13_13h45.02.188,leap3,2022.2.5,59.998251998035315,
,,,,,,,,,,,,,,,,,,,,5,0,5,0,26,0,26,0,,,,,,tibs,nw,h,lower,,,,,,,4,aftertar1,LoDemTar,h,1,0.8393047013087198,,,,,,,,,,,,,,,,,,,,350,2023-11-13_13h45.02.188,leap3,2022.2.5,59.998251998035315,
,,,,,,,,,,,,,,,,,,,,5,0,5,0,27,0,27,0,,,,,,hangar,w,g,lower,,,,,,,4,aftertar2,LoDemTar,g,1,0.7807375378906727,,,,,,,,,,,,,,,,,,,,350,2023-11-13_13h45.02.188,leap3,2022.2.5,59.998251998035315,
,,,,,,,,,,,,,,,,,,,,5,0,5,0,28,0,28,0,,,,,,affluent,w,g,lower,,,,,,,4,aftertar3,LoDemTar,g,1,1.1568523375317454,,,,,,,,,,,,,,,,,,,,350,2023-11-13_13h45.02.188,leap3,2022.2.5,59.998251998035315,
,,,,,,,,,,,,,,,,,,,,5,0,5,0,29,0,29,0,,,,,,ciping,nw,h,lower,,,,,,,4,w,LoDemTar,h,1,0.5657345814397559,,,,,,,,,,,,,,,,,,,,350,2023-11-13_13h45.02.188,leap3,2022.2.5,59.998251998035315,
,,,,,,,,,,,,,,,,,,,,5,0,5,0,,,,,,,,,,,,,,,,,,,,,,,,,,,,1,,,,,,,,,,,,,,,,,350,2023-11-13_13h45.02.188,leap3,2022.2.5,59.998251998035315,
,,,,,,,,,,,,,,,,,,,,6,0,6,0,0,0,0,0,,,,,,jungle,w,g,upper,,,,,,,2,w,HiDemNoTar,g,1,0.6856571902171709,,,,,,,,,,,,,,,,,,,,350,2023-11-13_13h45.02.188,leap3,2022.2.5,59.998251998035315,
,,,,,,,,,,,,,,,,,,,,6,0,6,0,1,0,1,0,,,,,,volder,nw,h,upper,,,,,,,2,nw,HiDemNoTar,h,1,0.6570814388105646,,,,,,,,,,,,,,,,,,,,350,2023-11-13_13h45.02.188,leap3,2022.2.5,59.998251998035315,
,,,,,,,,,,,,,,,,,,,,6,0,6,0,2,0,2,0,,,,,,fuestion,nw,h,upper,,,,,,,2,nw,HiDemNoTar,h,1,0.8218287751660682,,,,,,,,,,,,,,,,,,,,350,2023-11-13_13h45.02.188,leap3,2022.2.5,59.998251998035315,
,,,,,,,,,,,,,,,,,,,,6,0,6,0,3,0,3,0,,,,,,attract,w,g,upper,,,,,,,2,w,HiDemNoTar,g,1,0.6278703616699204,,,,,,,,,,,,,,,,,,,,350,2023-11-13_13h45.02.188,leap3,2022.2.5,59.998251998035315,
,,,,,,,,,,,,,,,,,,,,6,0,6,0,4,0,4,0,,,,,,swatches,w,g,upper,,,,,,,2,w,HiDemNoTar,h,0,0.7299316774006002,,,,,,,,,,,,,,,,,,,,350,2023-11-13_13h45.02.188,leap3,2022.2.5,59.998251998035315,
,,,,,,,,,,,,,,,,,,,,6,0,6,0,5,0,5,0,,,,,,phonology,w,g,upper,,,,,,,2,w,HiDemNoTar,h,0,0.5390886442619376,,,,,,,,,,,,,,,,,,,,350,2023-11-13_13h45.02.188,leap3,2022.2.5,59.998251998035315,
,,,,,,,,,,,,,,,,,,,,6,0,6,0,6,0,6,0,,,,,,latirizes,nw,h,upper,,,,,,,2,nw,HiDemNoTar,h,1,0.4283734575728886,,,,,,,,,,,,,,,,,,,,350,2023-11-13_13h45.02.188,leap3,2022.2.5,59.998251998035315,
,,,,,,,,,,,,,,,,,,,,6,0,6,0,7,0,7,0,,,,,,crundle,nw,h,upper,,,,,,,2,nw,HiDemNoTar,h,1,0.3624677691841498,,,,,,,,,,,,,,,,,,,,350,2023-11-13_13h45.02.188,leap3,2022.2.5,59.998251998035315,
,,,,,,,,,,,,,,,,,,,,6,0,6,0,8,0,8,0,,,,,,markot,nw,h,upper,,,,,,,2,nw,HiDemNoTar,h,1,0.4993402318796143,,,,,,,,,,,,,,,,,,,,350,2023-11-13_13h45.02.188,leap3,2022.2.5,59.998251998035315,
,,,,,,,,,,,,,,,,,,,,6,0,6,0,9,0,9,0,,,,,,alomalous,nw,h,upper,,,,,,,2,nw,HiDemNoTar,h,1,0.33464818442007527,,,,,,,,,,,,,,,,,,,,350,2023-11-13_13h45.02.188,leap3,2022.2.5,59.998251998035315,
,,,,,,,,,,,,,,,,,,,,6,0,6,0,10,0,10,0,,,,,,reprint,w,g,upper,,,,,,,2,w,HiDemNoTar,h,0,0.3440019399859011,,,,,,,,,,,,,,,,,,,,350,2023-11-13_13h45.02.188,leap3,2022.2.5,59.998251998035315,
,,,,,,,,,,,,,,,,,,,,6,0,6,0,11,0,11,0,,,,,,vinegar,w,g,upper,,,,,,,2,w,HiDemNoTar,g,1,0.7294089159695432,,,,,,,,,,,,,,,,,,,,350,2023-11-13_13h45.02.188,leap3,2022.2.5,59.998251998035315,
,,,,,,,,,,,,,,,,,,,,6,0,6,0,12,0,12,0,,,,,,bluads,nw,h,upper,,,,,,,2,nw,HiDemNoTar,h,1,0.4676543973037042,,,,,,,,,,,,,,,,,,,,350,2023-11-13_13h45.02.188,leap3,2022.2.5,59.998251998035315,
,,,,,,,,,,,,,,,,,,,,6,0,6,0,13,0,13,0,,,,,,baladroit,nw,h,upper,,,,,,,2,nw,HiDemNoTar,h,1,0.35153778339736164,,,,,,,,,,,,,,,,,,,,350,2023-11-13_13h45.02.188,leap3,2022.2.5,59.998251998035315,
,,,,,,,,,,,,,,,,,,,,6,0,6,0,14,0,14,0,,,,,,maroon,w,g,upper,,,,,,,2,w,HiDemNoTar,h,0,0.37629098643083125,,,,,,,,,,,,,,,,,,,,350,2023-11-13_13h45.02.188,leap3,2022.2.5,59.998251998035315,
,,,,,,,,,,,,,,,,,,,,6,0,6,0,15,0,15,0,,,,,,imotope,nw,h,upper,,,,,,,2,nw,HiDemNoTar,h,1,0.7042971628252417,,,,,,,,,,,,,,,,,,,,350,2023-11-13_13h45.02.188,leap3,2022.2.5,59.998251998035315,
,,,,,,,,,,,,,,,,,,,,6,0,6,0,16,0,16,0,,,,,,gunrunker,nw,h,upper,,,,,,,2,nw,HiDemNoTar,h,1,0.6260607263538986,,,,,,,,,,,,,,,,,,,,350,2023-11-13_13h45.02.188,leap3,2022.2.5,59.998251998035315,
,,,,,,,,,,,,,,,,,,,,6,0,6,0,17,0,17,0,,,,,,compose,w,g,upper,,,,,,,2,w,HiDemNoTar,g,1,0.5600385008729063,,,,,,,,,,,,,,,,,,,,350,2023-11-13_13h45.02.188,leap3,2022.2.5,59.998251998035315,
,,,,,,,,,,,,,,,,,,,,6,0,6,0,18,0,18,0,,,,,,puggers,nw,h,upper,,,,,,,2,nw,HiDemNoTar,h,1,0.6087119315052405,,,,,,,,,,,,,,,,,,,,350,2023-11-13_13h45.02.188,leap3,2022.2.5,59.998251998035315,
,,,,,,,,,,,,,,,,,,,,6,0,6,0,19,0,19,0,,,,,,kickoff,w,g,upper,,,,,,,2,w,HiDemNoTar,g,1,0.527520353149157,,,,,,,,,,,,,,,,,,,,350,2023-11-13_13h45.02.188,leap3,2022.2.5,59.998251998035315,
,,,,,,,,,,,,,,,,,,,,6,0,6,0,20,0,20,0,,,,,,explosion,w,g,upper,,,,,,,2,w,HiDemNoTar,g,1,0.5048161501181312,,,,,,,,,,,,,,,,,,,,350,2023-11-13_13h45.02.188,leap3,2022.2.5,59.998251998035315,
,,,,,,,,,,,,,,,,,,,,6,0,6,0,21,0,21,0,,,,,,abhorrent,w,g,upper,,,,,,,2,w,HiDemNoTar,h,0,0.5723225679248571,,,,,,,,,,,,,,,,,,,,350,2023-11-13_13h45.02.188,leap3,2022.2.5,59.998251998035315,
,,,,,,,,,,,,,,,,,,,,6,0,6,0,22,0,22,0,,,,,,greft,nw,h,upper,,,,,,,2,nw,HiDemNoTar,h,1,0.46840261830948293,,,,,,,,,,,,,,,,,,,,350,2023-11-13_13h45.02.188,leap3,2022.2.5,59.998251998035315,
,,,,,,,,,,,,,,,,,,,,6,0,6,0,23,0,23,0,,,,,,committed,w,g,upper,,,,,,,2,w,HiDemNoTar,h,0,0.4885009597055614,,,,,,,,,,,,,,,,,,,,350,2023-11-13_13h45.02.188,leap3,2022.2.5,59.998251998035315,
,,,,,,,,,,,,,,,,,,,,6,0,6,0,24,0,24,0,,,,,,peems,nw,h,upper,,,,,,,2,nw,HiDemNoTar,h,1,0.7718562209629454,,,,,,,,,,,,,,,,,,,,350,2023-11-13_13h45.02.188,leap3,2022.2.5,59.998251998035315,
,,,,,,,,,,,,,,,,,,,,6,0,6,0,25,0,25,0,,,,,,knowledge,w,g,upper,,,,,,,2,w,HiDemNoTar,g,1,0.6111429876182228,,,,,,,,,,,,,,,,,,,,350,2023-11-13_13h45.02.188,leap3,2022.2.5,59.998251998035315,
,,,,,,,,,,,,,,,,,,,,6,0,6,0,26,0,26,0,,,,,,bickering,w,g,upper,,,,,,,2,w,HiDemNoTar,g,1,0.7057399713085033,,,,,,,,,,,,,,,,,,,,350,2023-11-13_13h45.02.188,leap3,2022.2.5,59.998251998035315,
,,,,,,,,,,,,,,,,,,,,6,0,6,0,27,0,27,0,,,,,,frogmy,nw,h,upper,,,,,,,2,nw,HiDemNoTar,h,1,0.5564960386254825,,,,,,,,,,,,,,,,,,,,350,2023-11-13_13h45.02.188,leap3,2022.2.5,59.998251998035315,
,,,,,,,,,,,,,,,,,,,,6,0,6,0,28,0,28,0,,,,,,mubby,nw,h,upper,,,,,,,2,nw,HiDemNoTar,h,1,0.6692688330658711,,,,,,,,,,,,,,,,,,,,350,2023-11-13_13h45.02.188,leap3,2022.2.5,59.998251998035315,
,,,,,,,,,,,,,,,,,,,,6,0,6,0,29,0,29,0,,,,,,vaporize,w,g,upper,,,,,,,2,w,HiDemNoTar,g,1,0.7293175403028727,,,,,,,,,,,,,,,,,,,,350,2023-11-13_13h45.02.188,leap3,2022.2.5,59.998251998035315,
,,,,,,,,,,,,,,,,,,,,6,0,6,0,,,,,,,,,,,,,,,,,,,,,,,,,,,,NA,,,,,,,,,,,,,,,,,350,2023-11-13_13h45.02.188,leap3,2022.2.5,59.998251998035315,
,,,,,,,,,,,,,,,,,,,,7,0,7,0,0,0,0,0,,,,,,nature,w,g,upper,,,,,,,1,w,HiDemTar,g,1,0.6027546357363462,,,,,,,,,,,,,,,,,,,,350,2023-11-13_13h45.02.188,leap3,2022.2.5,59.998251998035315,
,,,,,,,,,,,,,,,,,,,,7,0,7,0,1,0,1,0,,,,,,neuran,nw,h,upper,,,,,,,1,nw,HiDemTar,h,1,0.6254538727225736,,,,,,,,,,,,,,,,,,,,350,2023-11-13_13h45.02.188,leap3,2022.2.5,59.998251998035315,
,,,,,,,,,,,,,,,,,,,,7,0,7,0,2,0,2,0,,,,,,medium,w,g,upper,,,,,,,1,w,HiDemTar,g,1,0.7915086094290018,,,,,,,,,,,,,,,,,,,,350,2023-11-13_13h45.02.188,leap3,2022.2.5,59.998251998035315,
,,,,,,,,,,,,,,,,,,,,7,0,7,0,3,0,3,0,,,,,,athcan,nw,h,upper,,,,,,,1,nw,HiDemTar,h,1,0.5349092009710148,,,,,,,,,,,,,,,,,,,,350,2023-11-13_13h45.02.188,leap3,2022.2.5,59.998251998035315,
,,,,,,,,,,,,,,,,,,,,7,0,7,0,4,0,4,0,,,,,,shurk,nw,h,upper,,,,,,,1,nw,HiDemTar,h,1,0.6003027221886441,,,,,,,,,,,,,,,,,,,,350,2023-11-13_13h45.02.188,leap3,2022.2.5,59.998251998035315,
,,,,,,,,,,,,,,,,,,,,7,0,7,0,5,0,5,0,,,,,,overwork,w,g,upper,,,,,,,1,w,HiDemTar,g,1,0.5437365533434786,,,,,,,,,,,,,,,,,,,,350,2023-11-13_13h45.02.188,leap3,2022.2.5,59.998251998035315,
,,,,,,,,,,,,,,,,,,,,7,0,7,0,6,0,6,0,,,,,,listless,w,g,upper,,,,,,,1,w,HiDemTar,g,1,0.6332304049865343,,,,,,,,,,,,,,,,,,,,350,2023-11-13_13h45.02.188,leap3,2022.2.5,59.998251998035315,
,,,,,,,,,,,,,,,,,,,,7,0,7,0,7,0,7,0,,,,,,nores,nw,h,upper,,,,,,,1,nw,HiDemTar,h,1,0.6712228155229241,,,,,,,,,,,,,,,,,,,,350,2023-11-13_13h45.02.188,leap3,2022.2.5,59.998251998035315,
,,,,,,,,,,,,,,,,,,,,7,0,7,0,8,0,8,0,,,,,,unstatle,nw,h,upper,,,,,,,1,nw,HiDemTar,h,1,0.7793437280342914,,,,,,,,,,,,,,,,,,,,350,2023-11-13_13h45.02.188,leap3,2022.2.5,59.998251998035315,
,,,,,,,,,,,,,,,,,,,,7,0,7,0,9,0,9,0,,,,,,traze,nw,h,upper,,,,,,,1,nw,HiDemTar,g,0,0.5072531654732302,,,,,,,,,,,,,,,,,,,,350,2023-11-13_13h45.02.188,leap3,2022.2.5,59.998251998035315,
,,,,,,,,,,,,,,,,,,,,7,0,7,0,10,0,10,0,,,,,,baseline,w,g,upper,,,,,,,1,w,HiDemTar,h,0,0.6523779097478837,,,,,,,,,,,,,,,,,,,,350,2023-11-13_13h45.02.188,leap3,2022.2.5,59.998251998035315,
,,,,,,,,,,,,,,,,,,,,7,0,7,0,11,0,11,0,,,,,,lasprey,nw,h,upper,,,,,,,1,nw,HiDemTar,h,1,0.593120462843217,,,,,,,,,,,,,,,,,,,,350,2023-11-13_13h45.02.188,leap3,2022.2.5,59.998251998035315,
,,,,,,,,,,,,,,,,,,,,7,0,7,0,12,0,12,0,,,,,,volume,w,g,upper,,,,,,,1,w,HiDemTar,g,1,0.7358078607358038,,,,,,,,,,,,,,,,,,,,350,2023-11-13_13h45.02.188,leap3,2022.2.5,59.998251998035315,
,,,,,,,,,,,,,,,,,,,,7,0,7,0,13,0,13,0,,,,,,dolphin,target,q,upper,,,,,,,1,target,HiDemTar,g,0,0.5211654408485629,1,1,,,,,,,,,,,,,,,,,,350,2023-11-13_13h45.02.188,leap3,2022.2.5,59.998251998035315,
,,,,,,,,,,,,,,,,,,,,7,0,7,0,14,0,14,0,,,,,,omission,w,g,upper,,,,,,,1,aftertar1,HiDemTar,g,1,0.8985886339796707,,,,,,,,,,,,,,,,,,,,350,2023-11-13_13h45.02.188,leap3,2022.2.5,59.998251998035315,
,,,,,,,,,,,,,,,,,,,,7,0,7,0,15,0,15,0,,,,,,parlayid,nw,h,upper,,,,,,,1,aftertar2,HiDemTar,h,1,0.6769417400355451,,,,,,,,,,,,,,,,,,,,350,2023-11-13_13h45.02.188,leap3,2022.2.5,59.998251998035315,
,,,,,,,,,,,,,,,,,,,,7,0,7,0,16,0,16,0,,,,,,resume,w,g,upper,,,,,,,1,aftertar3,HiDemTar,g,1,0.5528088983264752,,,,,,,,,,,,,,,,,,,,350,2023-11-13_13h45.02.188,leap3,2022.2.5,59.998251998035315,
,,,,,,,,,,,,,,,,,,,,7,0,7,0,17,0,17,0,,,,,,causality,w,g,upper,,,,,,,1,w,HiDemTar,g,1,0.4814633784699254,,,,,,,,,,,,,,,,,,,,350,2023-11-13_13h45.02.188,leap3,2022.2.5,59.998251998035315,
,,,,,,,,,,,,,,,,,,,,7,0,7,0,18,0,18,0,,,,,,ifkling,nw,h,upper,,,,,,,1,w,HiDemTar,h,1,0.5809122110949829,,,,,,,,,,,,,,,,,,,,350,2023-11-13_13h45.02.188,leap3,2022.2.5,59.998251998035315,
,,,,,,,,,,,,,,,,,,,,7,0,7,0,19,0,19,0,,,,,,egcused,nw,h,upper,,,,,,,1,nw,HiDemTar,h,1,0.6433409893652424,,,,,,,,,,,,,,,,,,,,350,2023-11-13_13h45.02.188,leap3,2022.2.5,59.998251998035315,
,,,,,,,,,,,,,,,,,,,,7,0,7,0,20,0,20,0,,,,,,reforest,w,g,upper,,,,,,,1,nw,HiDemTar,h,0,0.7200766800087877,,,,,,,,,,,,,,,,,,,,350,2023-11-13_13h45.02.188,leap3,2022.2.5,59.998251998035315,
,,,,,,,,,,,,,,,,,,,,7,0,7,0,21,0,21,0,,,,,,lenie,nw,h,upper,,,,,,,1,w,HiDemTar,h,1,0.46550342749105766,,,,,,,,,,,,,,,,,,,,350,2023-11-13_13h45.02.188,leap3,2022.2.5,59.998251998035315,
,,,,,,,,,,,,,,,,,,,,7,0,7,0,22,0,22,0,,,,,,dominion,w,g,upper,,,,,,,1,nw,HiDemTar,g,1,0.7655999678536318,,,,,,,,,,,,,,,,,,,,350,2023-11-13_13h45.02.188,leap3,2022.2.5,59.998251998035315,
,,,,,,,,,,,,,,,,,,,,7,0,7,0,23,0,23,0,,,,,,venturous,w,g,upper,,,,,,,1,w,HiDemTar,h,0,0.6856542105670087,,,,,,,,,,,,,,,,,,,,350,2023-11-13_13h45.02.188,leap3,2022.2.5,59.998251998035315,
,,,,,,,,,,,,,,,,,,,,7,0,7,0,24,0,24,0,,,,,,rascaps,nw,h,upper,,,,,,,1,w,HiDemTar,h,1,1.0090455851168372,,,,,,,,,,,,,,,,,,,,350,2023-11-13_13h45.02.188,leap3,2022.2.5,59.998251998035315,
,,,,,,,,,,,,,,,,,,,,7,0,7,0,25,0,25,0,,,,,,postal,w,g,upper,,,,,,,1,nw,HiDemTar,h,0,0.4951511875842698,,,,,,,,,,,,,,,,,,,,350,2023-11-13_13h45.02.188,leap3,2022.2.5,59.998251998035315,
,,,,,,,,,,,,,,,,,,,,7,0,7,0,26,0,26,0,,,,,,roodies,nw,h,upper,,,,,,,1,w,HiDemTar,h,1,0.9219245209824294,,,,,,,,,,,,,,,,,,,,350,2023-11-13_13h45.02.188,leap3,2022.2.5,59.998251998035315,
,,,,,,,,,,,,,,,,,,,,7,0,7,0,27,0,27,0,,,,,,pariah,w,g,upper,,,,,,,1,nw,HiDemTar,g,1,1.027335946506355,,,,,,,,,,,,,,,,,,,,350,2023-11-13_13h45.02.188,leap3,2022.2.5,59.998251998035315,
,,,,,,,,,,,,,,,,,,,,7,0,7,0,28,0,28,0,,,,,,leuter,nw,h,upper,,,,,,,1,w,HiDemTar,h,1,0.7437502596876584,,,,,,,,,,,,,,,,,,,,350,2023-11-13_13h45.02.188,leap3,2022.2.5,59.998251998035315,
,,,,,,,,,,,,,,,,,,,,7,0,7,0,29,0,29,0,,,,,,ronic,nw,h,upper,,,,,,,1,nw,HiDemTar,h,1,0.44047709077131003,,,,,,,,,,,,,,,,,,,,350,2023-11-13_13h45.02.188,leap3,2022.2.5,59.998251998035315,
,,,,,,,,,,,,,,,,,,,,7,0,7,0,,,,,,,,,,,,,,,,,,,,,,,,,,,,1,,,,,,,,,,,,,,,,,350,2023-11-13_13h45.02.188,leap3,2022.2.5,59.998251998035315,
,,,,,,,,,,,,,,,,,,,,8,0,8,0,0,0,0,0,,,,,,deadly,w,g,lower,,,,,,,3,w,LoDemNoTar,g,1,0.6862875498482026,,,,,,,,,,,,,,,,,,,,350,2023-11-13_13h45.02.188,leap3,2022.2.5,59.998251998035315,
,,,,,,,,,,,,,,,,,,,,8,0,8,0,1,0,1,0,,,,,,yellep,nw,h,lower,,,,,,,3,nw,LoDemNoTar,h,1,1.256978872930631,,,,,,,,,,,,,,,,,,,,350,2023-11-13_13h45.02.188,leap3,2022.2.5,59.998251998035315,
,,,,,,,,,,,,,,,,,,,,8,0,8,0,2,0,2,0,,,,,,strenuous,w,g,lower,,,,,,,3,w,LoDemNoTar,h,0,0.8920499771484174,,,,,,,,,,,,,,,,,,,,350,2023-11-13_13h45.02.188,leap3,2022.2.5,59.998251998035315,
,,,,,,,,,,,,,,,,,,,,8,0,8,0,3,0,3,0,,,,,,blanned,nw,h,lower,,,,,,,3,nw,LoDemNoTar,h,1,0.7105567266698927,,,,,,,,,,,,,,,,,,,,350,2023-11-13_13h45.02.188,leap3,2022.2.5,59.998251998035315,
,,,,,,,,,,,,,,,,,,,,8,0,8,0,4,0,4,0,,,,,,finish,w,g,lower,,,,,,,3,w,LoDemNoTar,g,1,0.6087178908055648,,,,,,,,,,,,,,,,,,,,350,2023-11-13_13h45.02.188,leap3,2022.2.5,59.998251998035315,
,,,,,,,,,,,,,,,,,,,,8,0,8,0,5,0,5,0,,,,,,trake,nw,h,lower,,,,,,,3,nw,LoDemNoTar,g,0,0.8467339397757314,,,,,,,,,,,,,,,,,,,,350,2023-11-13_13h45.02.188,leap3,2022.2.5,59.998251998035315,
,,,,,,,,,,,,,,,,,,,,8,0,8,0,6,0,6,0,,,,,,showdown,w,g,lower,,,,,,,3,w,LoDemNoTar,g,1,0.6594618409872055,,,,,,,,,,,,,,,,,,,,350,2023-11-13_13h45.02.188,leap3,2022.2.5,59.998251998035315,
,,,,,,,,,,,,,,,,,,,,8,0,8,0,7,0,7,0,,,,,,solidity,w,g,lower,,,,,,,3,w,LoDemNoTar,g,1,0.8235798109089956,,,,,,,,,,,,,,,,,,,,350,2023-11-13_13h45.02.188,leap3,2022.2.5,59.998251998035315,
,,,,,,,,,,,,,,,,,,,,8,0,8,0,8,0,8,0,,,,,,fomes,nw,h,lower,,,,,,,3,nw,LoDemNoTar,h,1,0.5569188165827654,,,,,,,,,,,,,,,,,,,,350,2023-11-13_13h45.02.188,leap3,2022.2.5,59.998251998035315,
,,,,,,,,,,,,,,,,,,,,8,0,8,0,9,0,9,0,,,,,,number,w,g,lower,,,,,,,3,w,LoDemNoTar,g,1,0.6127791416365653,,,,,,,,,,,,,,,,,,,,350,2023-11-13_13h45.02.188,leap3,2022.2.5,59.998251998035315,
,,,,,,,,,,,,,,,,,,,,8,0,8,0,10,0,10,0,,,,,,mandate,w,g,lower,,,,,,,3,w,LoDemNoTar,g,1,0.8108855466125533,,,,,,,,,,,,,,,,,,,,350,2023-11-13_13h45.02.188,leap3,2022.2.5,59.998251998035315,
,,,,,,,,,,,,,,,,,,,,8,0,8,0,11,0,11,0,,,,,,warmer,w,g,lower,,,,,,,3,w,LoDemNoTar,g,1,0.6009810871328227,,,,,,,,,,,,,,,,,,,,350,2023-11-13_13h45.02.188,leap3,2022.2.5,59.998251998035315,
,,,,,,,,,,,,,,,,,,,,8,0,8,0,12,0,12,0,,,,,,rodeo,w,g,lower,,,,,,,3,w,LoDemNoTar,h,0,0.7107199447927997,,,,,,,,,,,,,,,,,,,,350,2023-11-13_13h45.02.188,leap3,2022.2.5,59.998251998035315,
,,,,,,,,,,,,,,,,,,,,8,0,8,0,13,0,13,0,,,,,,chight,nw,h,lower,,,,,,,3,nw,LoDemNoTar,h,1,0.7608437985181808,,,,,,,,,,,,,,,,,,,,350,2023-11-13_13h45.02.188,leap3,2022.2.5,59.998251998035315,
,,,,,,,,,,,,,,,,,,,,8,0,8,0,14,0,14,0,,,,,,subber,nw,h,lower,,,,,,,3,nw,LoDemNoTar,h,1,1.0010025405790657,,,,,,,,,,,,,,,,,,,,350,2023-11-13_13h45.02.188,leap3,2022.2.5,59.998251998035315,
,,,,,,,,,,,,,,,,,,,,8,0,8,0,15,0,15,0,,,,,,pallir,nw,h,lower,,,,,,,3,nw,LoDemNoTar,h,1,0.5516673647216521,,,,,,,,,,,,,,,,,,,,350,2023-11-13_13h45.02.188,leap3,2022.2.5,59.998251998035315,
,,,,,,,,,,,,,,,,,,,,8,0,8,0,16,0,16,0,,,,,,govern,w,g,lower,,,,,,,3,w,LoDemNoTar,g,1,0.8404300124966539,,,,,,,,,,,,,,,,,,,,350,2023-11-13_13h45.02.188,leap3,2022.2.5,59.998251998035315,
,,,,,,,,,,,,,,,,,,,,8,0,8,0,17,0,17,0,,,,,,regional,w,g,lower,,,,,,,3,w,LoDemNoTar,g,1,0.5811562105664052,,,,,,,,,,,,,,,,,,,,350,2023-11-13_13h45.02.188,leap3,2022.2.5,59.998251998035315,
,,,,,,,,,,,,,,,,,,,,8,0,8,0,18,0,18,0,,,,,,computer,w,g,lower,,,,,,,3,w,LoDemNoTar,g,1,0.4765290928189643,,,,,,,,,,,,,,,,,,,,350,2023-11-13_13h45.02.188,leap3,2022.2.5,59.998251998035315,
,,,,,,,,,,,,,,,,,,,,8,0,8,0,19,0,19,0,,,,,,trembles,w,g,lower,,,,,,,3,w,LoDemNoTar,g,1,0.7519671166082844,,,,,,,,,,,,,,,,,,,,350,2023-11-13_13h45.02.188,leap3,2022.2.5,59.998251998035315,
,,,,,,,,,,,,,,,,,,,,8,0,8,0,20,0,20,0,,,,,,robbery,w,g,lower,,,,,,,3,w,LoDemNoTar,g,1,0.46470389049500227,,,,,,,,,,,,,,,,,,,,350,2023-11-13_13h45.02.188,leap3,2022.2.5,59.998251998035315,
,,,,,,,,,,,,,,,,,,,,8,0,8,0,21,0,21,0,,,,,,eightiech,nw,h,lower,,,,,,,3,nw,LoDemNoTar,h,1,0.6517343073501252,,,,,,,,,,,,,,,,,,,,350,2023-11-13_13h45.02.188,leap3,2022.2.5,59.998251998035315,
,,,,,,,,,,,,,,,,,,,,8,0,8,0,22,0,22,0,,,,,,soluced,nw,h,lower,,,,,,,3,nw,LoDemNoTar,h,1,0.4804983058129437,,,,,,,,,,,,,,,,,,,,350,2023-11-13_13h45.02.188,leap3,2022.2.5,59.998251998035315,
,,,,,,,,,,,,,,,,,,,,8,0,8,0,23,0,23,0,,,,,,graciap,nw,h,lower,,,,,,,3,nw,LoDemNoTar,h,1,0.4678659518249333,,,,,,,,,,,,,,,,,,,,350,2023-11-13_13h45.02.188,leap3,2022.2.5,59.998251998035315,
,,,,,,,,,,,,,,,,,,,,8,0,8,0,24,0,24,0,,,,,,gerby,nw,h,lower,,,,,,,3,nw,LoDemNoTar,h,1,0.383966872934252,,,,,,,,,,,,,,,,,,,,350,2023-11-13_13h45.02.188,leap3,2022.2.5,59.998251998035315,
,,,,,,,,,,,,,,,,,,,,8,0,8,0,25,0,25,0,,,,,,offonents,nw,h,lower,,,,,,,3,nw,LoDemNoTar,h,1,0.47939451434649527,,,,,,,,,,,,,,,,,,,,350,2023-11-13_13h45.02.188,leap3,2022.2.5,59.998251998035315,
,,,,,,,,,,,,,,,,,,,,8,0,8,0,26,0,26,0,,,,,,even,w,g,lower,,,,,,,3,w,LoDemNoTar,g,1,0.5147492803516798,,,,,,,,,,,,,,,,,,,,350,2023-11-13_13h45.02.188,leap3,2022.2.5,59.998251998035315,
,,,,,,,,,,,,,,,,,,,,8,0,8,0,27,0,27,0,,,,,,apticle,nw,h,lower,,,,,,,3,nw,LoDemNoTar,h,1,0.6608950483496301,,,,,,,,,,,,,,,,,,,,350,2023-11-13_13h45.02.188,leap3,2022.2.5,59.998251998035315,
,,,,,,,,,,,,,,,,,,,,8,0,8,0,28,0,28,0,,,,,,tharcely,nw,h,lower,,,,,,,3,nw,LoDemNoTar,h,1,0.6089506339048967,,,,,,,,,,,,,,,,,,,,350,2023-11-13_13h45.02.188,leap3,2022.2.5,59.998251998035315,
,,,,,,,,,,,,,,,,,,,,8,0,8,0,29,0,29,0,,,,,,chiffol,nw,h,lower,,,,,,,3,nw,LoDemNoTar,h,1,0.5189995728433132,,,,,,,,,,,,,,,,,,,,350,2023-11-13_13h45.02.188,leap3,2022.2.5,59.998251998035315,
,,,,,,,,,,,,,,,,,,,,8,0,8,0,,,,,,,,,,,,,,,,,,,,,,,,,,,,NA,,,,,,,,,,,,,,,,,350,2023-11-13_13h45.02.188,leap3,2022.2.5,59.998251998035315,
,,,,,,,,,,,,,,,,,,,,9,0,9,0,0,0,0,0,,,,,,undimmec,nw,h,lower,,,,,,,3,nw,LoDemNoTar,h,1,0.5122725364635698,,,,,,,,,,,,,,,,,,,,350,2023-11-13_13h45.02.188,leap3,2022.2.5,59.998251998035315,
,,,,,,,,,,,,,,,,,,,,9,0,9,0,1,0,1,0,,,,,,absent,w,g,lower,,,,,,,3,w,LoDemNoTar,g,1,0.5782080212957226,,,,,,,,,,,,,,,,,,,,350,2023-11-13_13h45.02.188,leap3,2022.2.5,59.998251998035315,
,,,,,,,,,,,,,,,,,,,,9,0,9,0,2,0,2,0,,,,,,gund,nw,h,lower,,,,,,,3,nw,LoDemNoTar,h,1,0.5217332280008122,,,,,,,,,,,,,,,,,,,,350,2023-11-13_13h45.02.188,leap3,2022.2.5,59.998251998035315,
,,,,,,,,,,,,,,,,,,,,9,0,9,0,3,0,3,0,,,,,,chrayed,nw,h,lower,,,,,,,3,nw,LoDemNoTar,h,1,0.5231194233056158,,,,,,,,,,,,,,,,,,,,350,2023-11-13_13h45.02.188,leap3,2022.2.5,59.998251998035315,
,,,,,,,,,,,,,,,,,,,,9,0,9,0,4,0,4,0,,,,,,oppose,w,g,lower,,,,,,,3,w,LoDemNoTar,g,1,0.6685514017008245,,,,,,,,,,,,,,,,,,,,350,2023-11-13_13h45.02.188,leap3,2022.2.5,59.998251998035315,
,,,,,,,,,,,,,,,,,,,,9,0,9,0,5,0,5,0,,,,,,oginous,nw,h,lower,,,,,,,3,nw,LoDemNoTar,h,1,0.5207525950390846,,,,,,,,,,,,,,,,,,,,350,2023-11-13_13h45.02.188,leap3,2022.2.5,59.998251998035315,
,,,,,,,,,,,,,,,,,,,,9,0,9,0,6,0,6,0,,,,,,foster,w,g,lower,,,,,,,3,w,LoDemNoTar,h,0,0.48909192183054984,,,,,,,,,,,,,,,,,,,,350,2023-11-13_13h45.02.188,leap3,2022.2.5,59.998251998035315,
,,,,,,,,,,,,,,,,,,,,9,0,9,0,7,0,7,0,,,,,,ghists,nw,h,lower,,,,,,,3,nw,LoDemNoTar,h,1,0.4438278627349064,,,,,,,,,,,,,,,,,,,,350,2023-11-13_13h45.02.188,leap3,2022.2.5,59.998251998035315,
,,,,,,,,,,,,,,,,,,,,9,0,9,0,8,0,8,0,,,,,,prominent,w,g,lower,,,,,,,3,w,LoDemNoTar,g,1,0.8406220337492414,,,,,,,,,,,,,,,,,,,,350,2023-11-13_13h45.02.188,leap3,2022.2.5,59.998251998035315,
,,,,,,,,,,,,,,,,,,,,9,0,9,0,9,0,9,0,,,,,,forgery,w,g,lower,,,,,,,3,w,LoDemNoTar,g,1,0.8613745719194412,,,,,,,,,,,,,,,,,,,,350,2023-11-13_13h45.02.188,leap3,2022.2.5,59.998251998035315,
,,,,,,,,,,,,,,,,,,,,9,0,9,0,10,0,10,0,,,,,,levels,w,g,lower,,,,,,,3,w,LoDemNoTar,g,1,0.7294301044894382,,,,,,,,,,,,,,,,,,,,350,2023-11-13_13h45.02.188,leap3,2022.2.5,59.998251998035315,
,,,,,,,,,,,,,,,,,,,,9,0,9,0,11,0,11,0,,,,,,fracture,w,g,lower,,,,,,,3,w,LoDemNoTar,g,1,0.562761892855633,,,,,,,,,,,,,,,,,,,,350,2023-11-13_13h45.02.188,leap3,2022.2.5,59.998251998035315,
,,,,,,,,,,,,,,,,,,,,9,0,9,0,12,0,12,0,,,,,,rationale,w,g,lower,,,,,,,3,w,LoDemNoTar,g,1,0.5308357005706057,,,,,,,,,,,,,,,,,,,,350,2023-11-13_13h45.02.188,leap3,2022.2.5,59.998251998035315,
,,,,,,,,,,,,,,,,,,,,9,0,9,0,13,0,13,0,,,,,,boutique,w,g,lower,,,,,,,3,w,LoDemNoTar,g,1,0.5002685556537472,,,,,,,,,,,,,,,,,,,,350,2023-11-13_13h45.02.188,leap3,2022.2.5,59.998251998035315,
,,,,,,,,,,,,,,,,,,,,9,0,9,0,14,0,14,0,,,,,,lovud,nw,h,lower,,,,,,,3,nw,LoDemNoTar,h,1,0.4949505584081635,,,,,,,,,,,,,,,,,,,,350,2023-11-13_13h45.02.188,leap3,2022.2.5,59.998251998035315,
,,,,,,,,,,,,,,,,,,,,9,0,9,0,15,0,15,0,,,,,,allained,nw,h,lower,,,,,,,3,nw,LoDemNoTar,h,1,0.7447497636894695,,,,,,,,,,,,,,,,,,,,350,2023-11-13_13h45.02.188,leap3,2022.2.5,59.998251998035315,
,,,,,,,,,,,,,,,,,,,,9,0,9,0,16,0,16,0,,,,,,cayward,nw,h,lower,,,,,,,3,nw,LoDemNoTar,h,1,0.6254525484400801,,,,,,,,,,,,,,,,,,,,350,2023-11-13_13h45.02.188,leap3,2022.2.5,59.998251998035315,
,,,,,,,,,,,,,,,,,,,,9,0,9,0,17,0,17,0,,,,,,mounting,w,g,lower,,,,,,,3,w,LoDemNoTar,g,1,0.6628536658245139,,,,,,,,,,,,,,,,,,,,350,2023-11-13_13h45.02.188,leap3,2022.2.5,59.998251998035315,
,,,,,,,,,,,,,,,,,,,,9,0,9,0,18,0,18,0,,,,,,arranged,w,g,lower,,,,,,,3,w,LoDemNoTar,g,1,0.6349175439681858,,,,,,,,,,,,,,,,,,,,350,2023-11-13_13h45.02.188,leap3,2022.2.5,59.998251998035315,
,,,,,,,,,,,,,,,,,,,,9,0,9,0,19,0,19,0,,,,,,sarlock,nw,h,lower,,,,,,,3,nw,LoDemNoTar,h,1,0.6006145912688226,,,,,,,,,,,,,,,,,,,,350,2023-11-13_13h45.02.188,leap3,2022.2.5,59.998251998035315,
,,,,,,,,,,,,,,,,,,,,9,0,9,0,20,0,20,0,,,,,,gelfry,nw,h,lower,,,,,,,3,nw,LoDemNoTar,h,1,0.5750883370055817,,,,,,,,,,,,,,,,,,,,350,2023-11-13_13h45.02.188,leap3,2022.2.5,59.998251998035315,
,,,,,,,,,,,,,,,,,,,,9,0,9,0,21,0,21,0,,,,,,podges,nw,h,lower,,,,,,,3,nw,LoDemNoTar,h,1,0.5584976953687146,,,,,,,,,,,,,,,,,,,,350,2023-11-13_13h45.02.188,leap3,2022.2.5,59.998251998035315,
,,,,,,,,,,,,,,,,,,,,9,0,9,0,22,0,22,0,,,,,,dentures,w,g,lower,,,,,,,3,w,LoDemNoTar,g,1,0.6145526902400889,,,,,,,,,,,,,,,,,,,,350,2023-11-13_13h45.02.188,leap3,2022.2.5,59.998251998035315,
,,,,,,,,,,,,,,,,,,,,9,0,9,0,23,0,23,0,,,,,,labitable,nw,h,lower,,,,,,,3,nw,LoDemNoTar,h,1,0.7086216153111309,,,,,,,,,,,,,,,,,,,,350,2023-11-13_13h45.02.188,leap3,2022.2.5,59.998251998035315,
,,,,,,,,,,,,,,,,,,,,9,0,9,0,24,0,24,0,,,,,,removable,w,g,lower,,,,,,,3,w,LoDemNoTar,g,1,0.5987096073804423,,,,,,,,,,,,,,,,,,,,350,2023-11-13_13h45.02.188,leap3,2022.2.5,59.998251998035315,
,,,,,,,,,,,,,,,,,,,,9,0,9,0,25,0,25,0,,,,,,yearnungs,nw,h,lower,,,,,,,3,nw,LoDemNoTar,h,1,0.524358291819226,,,,,,,,,,,,,,,,,,,,350,2023-11-13_13h45.02.188,leap3,2022.2.5,59.998251998035315,
,,,,,,,,,,,,,,,,,,,,9,0,9,0,26,0,26,0,,,,,,ilcurring,nw,h,lower,,,,,,,3,nw,LoDemNoTar,h,1,0.5017312283744104,,,,,,,,,,,,,,,,,,,,350,2023-11-13_13h45.02.188,leap3,2022.2.5,59.998251998035315,
,,,,,,,,,,,,,,,,,,,,9,0,9,0,27,0,27,0,,,,,,downtrund,nw,h,lower,,,,,,,3,nw,LoDemNoTar,h,1,0.7044176727649756,,,,,,,,,,,,,,,,,,,,350,2023-11-13_13h45.02.188,leap3,2022.2.5,59.998251998035315,
,,,,,,,,,,,,,,,,,,,,9,0,9,0,28,0,28,0,,,,,,kettle,w,g,lower,,,,,,,3,w,LoDemNoTar,h,0,0.5144698561634868,,,,,,,,,,,,,,,,,,,,350,2023-11-13_13h45.02.188,leap3,2022.2.5,59.998251998035315,
,,,,,,,,,,,,,,,,,,,,9,0,9,0,29,0,29,0,,,,,,glassware,w,g,lower,,,,,,,3,w,LoDemNoTar,g,1,0.6845547229750082,,,,,,,,,,,,,,,,,,,,350,2023-11-13_13h45.02.188,leap3,2022.2.5,59.998251998035315,
,,,,,,,,,,,,,,,,,,,,9,0,9,0,,,,,,,,,,,,,,,,,,,,,,,,,,,,NA,,,,,,,,,,,,,,,,,350,2023-11-13_13h45.02.188,leap3,2022.2.5,59.998251998035315,
,,,,,,,,,,,,,,,,,,,,10,0,10,0,0,0,0,0,,,,,,tablet,w,g,upper,,,,,,,1,w,HiDemTar,g,1,0.6480418698629364,,,,,,,,,,,,,,,,,,,,350,2023-11-13_13h45.02.188,leap3,2022.2.5,59.998251998035315,
,,,,,,,,,,,,,,,,,,,,10,0,10,0,1,0,1,0,,,,,,unwose,nw,h,upper,,,,,,,1,nw,HiDemTar,h,1,0.5564798161503859,,,,,,,,,,,,,,,,,,,,350,2023-11-13_13h45.02.188,leap3,2022.2.5,59.998251998035315,
,,,,,,,,,,,,,,,,,,,,10,0,10,0,2,0,2,0,,,,,,agony,w,g,upper,,,,,,,1,w,HiDemTar,h,0,0.4765201538684778,,,,,,,,,,,,,,,,,,,,350,2023-11-13_13h45.02.188,leap3,2022.2.5,59.998251998035315,
,,,,,,,,,,,,,,,,,,,,10,0,10,0,3,0,3,0,,,,,,impirt,nw,h,upper,,,,,,,1,nw,HiDemTar,h,1,0.495932184625417,,,,,,,,,,,,,,,,,,,,350,2023-11-13_13h45.02.188,leap3,2022.2.5,59.998251998035315,
,,,,,,,,,,,,,,,,,,,,10,0,10,0,4,0,4,0,,,,,,emotion,w,g,upper,,,,,,,1,w,HiDemTar,h,0,0.42652210721280426,,,,,,,,,,,,,,,,,,,,350,2023-11-13_13h45.02.188,leap3,2022.2.5,59.998251998035315,
,,,,,,,,,,,,,,,,,,,,10,0,10,0,5,0,5,0,,,,,,truthful,w,g,upper,,,,,,,1,w,HiDemTar,g,1,0.5758008022676222,,,,,,,,,,,,,,,,,,,,350,2023-11-13_13h45.02.188,leap3,2022.2.5,59.998251998035315,
,,,,,,,,,,,,,,,,,,,,10,0,10,0,6,0,6,0,,,,,,handbook,w,g,upper,,,,,,,1,w,HiDemTar,g,1,0.46329319599317387,,,,,,,,,,,,,,,,,,,,350,2023-11-13_13h45.02.188,leap3,2022.2.5,59.998251998035315,
,,,,,,,,,,,,,,,,,,,,10,0,10,0,7,0,7,0,,,,,,splatter,w,g,upper,,,,,,,1,w,HiDemTar,g,1,0.6433770761359483,,,,,,,,,,,,,,,,,,,,350,2023-11-13_13h45.02.188,leap3,2022.2.5,59.998251998035315,
,,,,,,,,,,,,,,,,,,,,10,0,10,0,8,0,8,0,,,,,,slears,nw,h,upper,,,,,,,1,nw,HiDemTar,h,1,0.7119508676114492,,,,,,,,,,,,,,,,,,,,350,2023-11-13_13h45.02.188,leap3,2022.2.5,59.998251998035315,
,,,,,,,,,,,,,,,,,,,,10,0,10,0,9,0,9,0,,,,,,achieve,w,g,upper,,,,,,,1,w,HiDemTar,g,1,0.6169847394921817,,,,,,,,,,,,,,,,,,,,350,2023-11-13_13h45.02.188,leap3,2022.2.5,59.998251998035315,
,,,,,,,,,,,,,,,,,,,,10,0,10,0,10,0,10,0,,,,,,orange,w,g,upper,,,,,,,1,w,HiDemTar,g,1,0.5588870351202786,,,,,,,,,,,,,,,,,,,,350,2023-11-13_13h45.02.188,leap3,2022.2.5,59.998251998035315,
,,,,,,,,,,,,,,,,,,,,10,0,10,0,11,0,11,0,,,,,,porcupine,target,q,upper,,,,,,,1,target,HiDemTar,g,0,0.8546922301175073,1,1,,,,,,,,,,,,,,,,,,350,2023-11-13_13h45.02.188,leap3,2022.2.5,59.998251998035315,
,,,,,,,,,,,,,,,,,,,,10,0,10,0,12,0,12,0,,,,,,cooray,nw,h,upper,,,,,,,1,aftertar1,HiDemTar,h,1,0.8344707302749157,,,,,,,,,,,,,,,,,,,,350,2023-11-13_13h45.02.188,leap3,2022.2.5,59.998251998035315,
,,,,,,,,,,,,,,,,,,,,10,0,10,0,13,0,13,0,,,,,,graveyard,w,g,upper,,,,,,,1,aftertar2,HiDemTar,g,1,0.6719382604351267,,,,,,,,,,,,,,,,,,,,350,2023-11-13_13h45.02.188,leap3,2022.2.5,59.998251998035315,
,,,,,,,,,,,,,,,,,,,,10,0,10,0,14,0,14,0,,,,,,tenpince,nw,h,upper,,,,,,,1,aftertar3,HiDemTar,h,1,0.6354240829823539,,,,,,,,,,,,,,,,,,,,350,2023-11-13_13h45.02.188,leap3,2022.2.5,59.998251998035315,
,,,,,,,,,,,,,,,,,,,,10,0,10,0,15,0,15,0,,,,,,dredigest,nw,h,upper,,,,,,,1,nw,HiDemTar,h,1,0.8567200414836407,,,,,,,,,,,,,,,,,,,,350,2023-11-13_13h45.02.188,leap3,2022.2.5,59.998251998035315,
,,,,,,,,,,,,,,,,,,,,10,0,10,0,16,0,16,0,,,,,,obviously,w,g,upper,,,,,,,1,nw,HiDemTar,g,1,0.5407853843062185,,,,,,,,,,,,,,,,,,,,350,2023-11-13_13h45.02.188,leap3,2022.2.5,59.998251998035315,
,,,,,,,,,,,,,,,,,,,,10,0,10,0,17,0,17,0,,,,,,pretzel,w,g,upper,,,,,,,1,w,HiDemTar,g,1,0.6694591990089975,,,,,,,,,,,,,,,,,,,,350,2023-11-13_13h45.02.188,leap3,2022.2.5,59.998251998035315,
,,,,,,,,,,,,,,,,,,,,10,0,10,0,18,0,18,0,,,,,,addma,nw,h,upper,,,,,,,1,w,HiDemTar,h,1,0.6969665836077183,,,,,,,,,,,,,,,,,,,,350,2023-11-13_13h45.02.188,leap3,2022.2.5,59.998251998035315,
,,,,,,,,,,,,,,,,,,,,10,0,10,0,19,0,19,0,,,,,,clypaper,nw,h,upper,,,,,,,1,nw,HiDemTar,h,1,1.010585728508886,,,,,,,,,,,,,,,,,,,,350,2023-11-13_13h45.02.188,leap3,2022.2.5,59.998251998035315,
,,,,,,,,,,,,,,,,,,,,10,0,10,0,20,0,20,0,,,,,,amplifier,w,g,upper,,,,,,,1,nw,HiDemTar,h,0,0.4086939212284051,,,,,,,,,,,,,,,,,,,,350,2023-11-13_13h45.02.188,leap3,2022.2.5,59.998251998035315,
,,,,,,,,,,,,,,,,,,,,10,0,10,0,21,0,21,0,,,,,,illness,w,g,upper,,,,,,,1,w,HiDemTar,g,1,0.6627639455255121,,,,,,,,,,,,,,,,,,,,350,2023-11-13_13h45.02.188,leap3,2022.2.5,59.998251998035315,
,,,,,,,,,,,,,,,,,,,,10,0,10,0,22,0,22,0,,,,,,thrapping,nw,h,upper,,,,,,,1,w,HiDemTar,h,1,0.6336985396919772,,,,,,,,,,,,,,,,,,,,350,2023-11-13_13h45.02.188,leap3,2022.2.5,59.998251998035315,
,,,,,,,,,,,,,,,,,,,,10,0,10,0,23,0,23,0,,,,,,chining,nw,h,upper,,,,,,,1,nw,HiDemTar,h,1,0.8000704426085576,,,,,,,,,,,,,,,,,,,,350,2023-11-13_13h45.02.188,leap3,2022.2.5,59.998251998035315,
,,,,,,,,,,,,,,,,,,,,10,0,10,0,24,0,24,0,,,,,,mennel,nw,h,upper,,,,,,,1,nw,HiDemTar,h,1,0.47095319110667333,,,,,,,,,,,,,,,,,,,,350,2023-11-13_13h45.02.188,leap3,2022.2.5,59.998251998035315,
,,,,,,,,,,,,,,,,,,,,10,0,10,0,25,0,25,0,,,,,,seeming,w,g,upper,,,,,,,1,nw,HiDemTar,g,1,0.6664103640359826,,,,,,,,,,,,,,,,,,,,350,2023-11-13_13h45.02.188,leap3,2022.2.5,59.998251998035315,
,,,,,,,,,,,,,,,,,,,,10,0,10,0,26,0,26,0,,,,,,nostril,w,g,upper,,,,,,,1,w,HiDemTar,g,1,0.6864726187195629,,,,,,,,,,,,,,,,,,,,350,2023-11-13_13h45.02.188,leap3,2022.2.5,59.998251998035315,
,,,,,,,,,,,,,,,,,,,,10,0,10,0,27,0,27,0,,,,,,amms,nw,h,upper,,,,,,,1,w,HiDemTar,h,1,0.5203417356242426,,,,,,,,,,,,,,,,,,,,350,2023-11-13_13h45.02.188,leap3,2022.2.5,59.998251998035315,
,,,,,,,,,,,,,,,,,,,,10,0,10,0,28,0,28,0,,,,,,chesume,nw,h,upper,,,,,,,1,nw,HiDemTar,h,1,0.6498379312688485,,,,,,,,,,,,,,,,,,,,350,2023-11-13_13h45.02.188,leap3,2022.2.5,59.998251998035315,
,,,,,,,,,,,,,,,,,,,,10,0,10,0,29,0,29,0,,,,,,harfing,nw,h,upper,,,,,,,1,nw,HiDemTar,h,1,0.5184231778257526,,,,,,,,,,,,,,,,,,,,350,2023-11-13_13h45.02.188,leap3,2022.2.5,59.998251998035315,
,,,,,,,,,,,,,,,,,,,,10,0,10,0,,,,,,,,,,,,,,,,,,,,,,,,,,,,1,,,,,,,,,,,,,,,,,350,2023-11-13_13h45.02.188,leap3,2022.2.5,59.998251998035315,
,,,,,,,,,,,,,,,,,,,,11,0,11,0,0,0,0,0,,,,,,ahead,w,g,upper,,,,,,,1,w,HiDemTar,g,1,0.6007890658220276,,,,,,,,,,,,,,,,,,,,350,2023-11-13_13h45.02.188,leap3,2022.2.5,59.998251998035315,
,,,,,,,,,,,,,,,,,,,,11,0,11,0,1,0,1,0,,,,,,ottans,nw,h,upper,,,,,,,1,nw,HiDemTar,h,1,0.8235801419941708,,,,,,,,,,,,,,,,,,,,350,2023-11-13_13h45.02.188,leap3,2022.2.5,59.998251998035315,
,,,,,,,,,,,,,,,,,,,,11,0,11,0,2,0,2,0,,,,,,inversion,w,g,upper,,,,,,,1,w,HiDemTar,g,1,0.8769832563702948,,,,,,,,,,,,,,,,,,,,350,2023-11-13_13h45.02.188,leap3,2022.2.5,59.998251998035315,
,,,,,,,,,,,,,,,,,,,,11,0,11,0,3,0,3,0,,,,,,louches,nw,h,upper,,,,,,,1,nw,HiDemTar,h,1,0.6233883193344809,,,,,,,,,,,,,,,,,,,,350,2023-11-13_13h45.02.188,leap3,2022.2.5,59.998251998035315,
,,,,,,,,,,,,,,,,,,,,11,0,11,0,4,0,4,0,,,,,,despise,w,g,upper,,,,,,,1,w,HiDemTar,h,0,0.540739365387708,,,,,,,,,,,,,,,,,,,,350,2023-11-13_13h45.02.188,leap3,2022.2.5,59.998251998035315,
,,,,,,,,,,,,,,,,,,,,11,0,11,0,5,0,5,0,,,,,,moisture,w,g,upper,,,,,,,1,w,HiDemTar,g,1,0.5254594347788952,,,,,,,,,,,,,,,,,,,,350,2023-11-13_13h45.02.188,leap3,2022.2.5,59.998251998035315,
,,,,,,,,,,,,,,,,,,,,11,0,11,0,6,0,6,0,,,,,,endgume,nw,h,upper,,,,,,,1,nw,HiDemTar,h,1,0.8148862113594078,,,,,,,,,,,,,,,,,,,,350,2023-11-13_13h45.02.188,leap3,2022.2.5,59.998251998035315,
,,,,,,,,,,,,,,,,,,,,11,0,11,0,7,0,7,0,,,,,,hemoter,nw,h,upper,,,,,,,1,nw,HiDemTar,h,1,0.548939999891445,,,,,,,,,,,,,,,,,,,,350,2023-11-13_13h45.02.188,leap3,2022.2.5,59.998251998035315,
,,,,,,,,,,,,,,,,,,,,11,0,11,0,8,0,8,0,,,,,,lancos,nw,h,upper,,,,,,,1,nw,HiDemTar,h,1,0.4856984416837804,,,,,,,,,,,,,,,,,,,,350,2023-11-13_13h45.02.188,leap3,2022.2.5,59.998251998035315,
,,,,,,,,,,,,,,,,,,,,11,0,11,0,9,0,9,0,,,,,,comment,w,g,upper,,,,,,,1,w,HiDemTar,g,1,0.6491221552714705,,,,,,,,,,,,,,,,,,,,350,2023-11-13_13h45.02.188,leap3,2022.2.5,59.998251998035315,
,,,,,,,,,,,,,,,,,,,,11,0,11,0,10,0,10,0,,,,,,redefloy,nw,h,upper,,,,,,,1,nw,HiDemTar,h,1,0.5098404871532694,,,,,,,,,,,,,,,,,,,,350,2023-11-13_13h45.02.188,leap3,2022.2.5,59.998251998035315,
,,,,,,,,,,,,,,,,,,,,11,0,11,0,11,0,11,0,,,,,,elbalm,nw,h,upper,,,,,,,1,nw,HiDemTar,h,1,0.5119126620120369,,,,,,,,,,,,,,,,,,,,350,2023-11-13_13h45.02.188,leap3,2022.2.5,59.998251998035315,
,,,,,,,,,,,,,,,,,,,,11,0,11,0,12,0,12,0,,,,,,olgies,nw,h,upper,,,,,,,1,nw,HiDemTar,h,1,0.5139434529701248,,,,,,,,,,,,,,,,,,,,350,2023-11-13_13h45.02.188,leap3,2022.2.5,59.998251998035315,
,,,,,,,,,,,,,,,,,,,,11,0,11,0,13,0,13,0,,,,,,scack,nw,h,upper,,,,,,,1,nw,HiDemTar,h,1,0.546976747456938,,,,,,,,,,,,,,,,,,,,350,2023-11-13_13h45.02.188,leap3,2022.2.5,59.998251998035315,
,,,,,,,,,,,,,,,,,,,,11,0,11,0,14,0,14,0,,,,,,hatred,w,g,upper,,,,,,,1,w,HiDemTar,g,1,0.6997194408904761,,,,,,,,,,,,,,,,,,,,350,2023-11-13_13h45.02.188,leap3,2022.2.5,59.998251998035315,
,,,,,,,,,,,,,,,,,,,,11,0,11,0,15,0,15,0,,,,,,maintain,w,g,upper,,,,,,,1,w,HiDemTar,g,1,0.598398731497582,,,,,,,,,,,,,,,,,,,,350,2023-11-13_13h45.02.188,leap3,2022.2.5,59.998251998035315,
,,,,,,,,,,,,,,,,,,,,11,0,11,0,16,0,16,0,,,,,,serving,w,g,upper,,,,,,,1,w,HiDemTar,g,1,0.5252352995448746,,,,,,,,,,,,,,,,,,,,350,2023-11-13_13h45.02.188,leap3,2022.2.5,59.998251998035315,
,,,,,,,,,,,,,,,,,,,,11,0,11,0,17,0,17,0,,,,,,mestowal,nw,h,upper,,,,,,,1,nw,HiDemTar,h,1,0.5177097193081863,,,,,,,,,,,,,,,,,,,,350,2023-11-13_13h45.02.188,leap3,2022.2.5,59.998251998035315,
,,,,,,,,,,,,,,,,,,,,11,0,11,0,18,0,18,0,,,,,,remain,w,g,upper,,,,,,,1,w,HiDemTar,g,1,0.5446397156338207,,,,,,,,,,,,,,,,,,,,350,2023-11-13_13h45.02.188,leap3,2022.2.5,59.998251998035315,
,,,,,,,,,,,,,,,,,,,,11,0,11,0,19,0,19,0,,,,,,prame,nw,h,upper,,,,,,,1,nw,HiDemTar,h,1,0.6094376396504231,,,,,,,,,,,,,,,,,,,,350,2023-11-13_13h45.02.188,leap3,2022.2.5,59.998251998035315,
,,,,,,,,,,,,,,,,,,,,11,0,11,0,20,0,20,0,,,,,,clooped,nw,h,upper,,,,,,,1,nw,HiDemTar,h,1,0.5594776661600918,,,,,,,,,,,,,,,,,,,,350,2023-11-13_13h45.02.188,leap3,2022.2.5,59.998251998035315,
,,,,,,,,,,,,,,,,,,,,11,0,11,0,21,0,21,0,,,,,,unamufed,nw,h,upper,,,,,,,1,nw,HiDemTar,h,1,0.5596034732297994,,,,,,,,,,,,,,,,,,,,350,2023-11-13_13h45.02.188,leap3,2022.2.5,59.998251998035315,
,,,,,,,,,,,,,,,,,,,,11,0,11,0,22,0,22,0,,,,,,dehydrate,w,g,upper,,,,,,,1,w,HiDemTar,g,1,0.7907438348629512,,,,,,,,,,,,,,,,,,,,350,2023-11-13_13h45.02.188,leap3,2022.2.5,59.998251998035315,
,,,,,,,,,,,,,,,,,,,,11,0,11,0,23,0,23,0,,,,,,humanize,w,g,upper,,,,,,,1,w,HiDemTar,g,1,0.629499563248828,,,,,,,,,,,,,,,,,,,,350,2023-11-13_13h45.02.188,leap3,2022.2.5,59.998251998035315,
,,,,,,,,,,,,,,,,,,,,11,0,11,0,24,0,24,0,,,,,,flamingo,target,q,upper,,,,,,,1,target,HiDemTar,g,0,0.6429205289459787,1,1,,,,,,,,,,,,,,,,,,350,2023-11-13_13h45.02.188,leap3,2022.2.5,59.998251998035315,
,,,,,,,,,,,,,,,,,,,,11,0,11,0,25,0,25,0,,,,,,lonnote,nw,h,upper,,,,,,,1,aftertar1,HiDemTar,h,1,0.5194561200332828,,,,,,,,,,,,,,,,,,,,350,2023-11-13_13h45.02.188,leap3,2022.2.5,59.998251998035315,
,,,,,,,,,,,,,,,,,,,,11,0,11,0,26,0,26,0,,,,,,living,w,g,upper,,,,,,,1,aftertar2,HiDemTar,g,1,0.8808375875814818,,,,,,,,,,,,,,,,,,,,350,2023-11-13_13h45.02.188,leap3,2022.2.5,59.998251998035315,
,,,,,,,,,,,,,,,,,,,,11,0,11,0,27,0,27,0,,,,,,managed,w,g,upper,,,,,,,1,aftertar3,HiDemTar,g,1,0.8683257435914129,,,,,,,,,,,,,,,,,,,,350,2023-11-13_13h45.02.188,leap3,2022.2.5,59.998251998035315,
,,,,,,,,,,,,,,,,,,,,11,0,11,0,28,0,28,0,,,,,,confined,w,g,upper,,,,,,,1,w,HiDemTar,g,1,1.2165219681337476,,,,,,,,,,,,,,,,,,,,350,2023-11-13_13h45.02.188,leap3,2022.2.5,59.998251998035315,
,,,,,,,,,,,,,,,,,,,,11,0,11,0,29,0,29,0,,,,,,hinsome,nw,h,upper,,,,,,,1,w,HiDemTar,h,1,0.6065165981417522,,,,,,,,,,,,,,,,,,,,350,2023-11-13_13h45.02.188,leap3,2022.2.5,59.998251998035315,
,,,,,,,,,,,,,,,,,,,,11,0,11,0,,,,,,,,,,,,,,,,,,,,,,,,,,,,1,,,,,,,,,,,,,,,,,350,2023-11-13_13h45.02.188,leap3,2022.2.5,59.998251998035315,
,,,,,,,,,,,,,,,,,,,,12,0,12,0,0,0,0,0,,,,,,brank,nw,h,upper,,,,,,,1,nw,HiDemTar,h,1,0.6603941376088187,,,,,,,,,,,,,,,,,,,,350,2023-11-13_13h45.02.188,leap3,2022.2.5,59.998251998035315,
,,,,,,,,,,,,,,,,,,,,12,0,12,0,1,0,1,0,,,,,,ignoble,w,g,upper,,,,,,,1,w,HiDemTar,h,0,0.5044221753487363,,,,,,,,,,,,,,,,,,,,350,2023-11-13_13h45.02.188,leap3,2022.2.5,59.998251998035315,
,,,,,,,,,,,,,,,,,,,,12,0,12,0,2,0,2,0,,,,,,staircase,w,g,upper,,,,,,,1,w,HiDemTar,g,1,0.4825453192461282,,,,,,,,,,,,,,,,,,,,350,2023-11-13_13h45.02.188,leap3,2022.2.5,59.998251998035315,
,,,,,,,,,,,,,,,,,,,,12,0,12,0,3,0,3,0,,,,,,atsless,nw,h,upper,,,,,,,1,nw,HiDemTar,h,1,0.4858805309049785,,,,,,,,,,,,,,,,,,,,350,2023-11-13_13h45.02.188,leap3,2022.2.5,59.998251998035315,
,,,,,,,,,,,,,,,,,,,,12,0,12,0,4,0,4,0,,,,,,usage,w,g,upper,,,,,,,1,w,HiDemTar,g,1,0.5449241058086045,,,,,,,,,,,,,,,,,,,,350,2023-11-13_13h45.02.188,leap3,2022.2.5,59.998251998035315,
,,,,,,,,,,,,,,,,,,,,12,0,12,0,5,0,5,0,,,,,,airmen,w,g,upper,,,,,,,1,w,HiDemTar,g,1,0.625636293028947,,,,,,,,,,,,,,,,,,,,350,2023-11-13_13h45.02.188,leap3,2022.2.5,59.998251998035315,
,,,,,,,,,,,,,,,,,,,,12,0,12,0,6,0,6,0,,,,,,summon,w,g,upper,,,,,,,1,w,HiDemTar,h,0,0.47806493227835745,,,,,,,,,,,,,,,,,,,,350,2023-11-13_13h45.02.188,leap3,2022.2.5,59.998251998035315,
,,,,,,,,,,,,,,,,,,,,12,0,12,0,7,0,7,0,,,,,,seartfelt,nw,h,upper,,,,,,,1,nw,HiDemTar,h,1,0.6573721193708479,,,,,,,,,,,,,,,,,,,,350,2023-11-13_13h45.02.188,leap3,2022.2.5,59.998251998035315,
,,,,,,,,,,,,,,,,,,,,12,0,12,0,8,0,8,0,,,,,,nearsipe,nw,h,upper,,,,,,,1,nw,HiDemTar,h,1,0.5014375681639649,,,,,,,,,,,,,,,,,,,,350,2023-11-13_13h45.02.188,leap3,2022.2.5,59.998251998035315,
,,,,,,,,,,,,,,,,,,,,12,0,12,0,9,0,9,0,,,,,,ordinary,w,g,upper,,,,,,,1,w,HiDemTar,g,1,0.5755538231460378,,,,,,,,,,,,,,,,,,,,350,2023-11-13_13h45.02.188,leap3,2022.2.5,59.998251998035315,
,,,,,,,,,,,,,,,,,,,,12,0,12,0,10,0,10,0,,,,,,plymie,nw,h,upper,,,,,,,1,nw,HiDemTar,h,1,0.5269926256733015,,,,,,,,,,,,,,,,,,,,350,2023-11-13_13h45.02.188,leap3,2022.2.5,59.998251998035315,
,,,,,,,,,,,,,,,,,,,,12,0,12,0,11,0,11,0,,,,,,trembla,nw,h,upper,,,,,,,1,nw,HiDemTar,h,1,0.5202973720734008,,,,,,,,,,,,,,,,,,,,350,2023-11-13_13h45.02.188,leap3,2022.2.5,59.998251998035315,
,,,,,,,,,,,,,,,,,,,,12,0,12,0,12,0,12,0,,,,,,reconcile,w,g,upper,,,,,,,1,w,HiDemTar,g,1,0.6817694207420573,,,,,,,,,,,,,,,,,,,,350,2023-11-13_13h45.02.188,leap3,2022.2.5,59.998251998035315,
,,,,,,,,,,,,,,,,,,,,12,0,12,0,13,0,13,0,,,,,,clume,nw,h,upper,,,,,,,1,nw,HiDemTar,h,1,0.43724484235281125,,,,,,,,,,,,,,,,,,,,350,2023-11-13_13h45.02.188,leap3,2022.2.5,59.998251998035315,
,,,,,,,,,,,,,,,,,,,,12,0,12,0,14,0,14,0,,,,,,permeable,w,g,upper,,,,,,,1,w,HiDemTar,g,1,0.5139388179522939,,,,,,,,,,,,,,,,,,,,350,2023-11-13_13h45.02.188,leap3,2022.2.5,59.998251998035315,
,,,,,,,,,,,,,,,,,,,,12,0,12,0,15,0,15,0,,,,,,monkey,target,q,upper,,,,,,,1,target,HiDemTar,q,1,0.899964897078462,1,,,,,,,,,,,,,,,,,,,350,2023-11-13_13h45.02.188,leap3,2022.2.5,59.998251998035315,
,,,,,,,,,,,,,,,,,,,,12,0,12,0,16,0,16,0,,,,,,olerates,nw,h,upper,,,,,,,1,aftertar1,HiDemTar,h,1,0.5498908364679664,,,,,,,,,,,,,,,,,,,,350,2023-11-13_13h45.02.188,leap3,2022.2.5,59.998251998035315,
,,,,,,,,,,,,,,,,,,,,12,0,12,0,17,0,17,0,,,,,,ecistle,nw,h,upper,,,,,,,1,aftertar2,HiDemTar,h,1,0.6705166405881755,,,,,,,,,,,,,,,,,,,,350,2023-11-13_13h45.02.188,leap3,2022.2.5,59.998251998035315,
,,,,,,,,,,,,,,,,,,,,12,0,12,0,18,0,18,0,,,,,,distrust,w,g,upper,,,,,,,1,aftertar3,HiDemTar,g,1,0.6979184133815579,,,,,,,,,,,,,,,,,,,,350,2023-11-13_13h45.02.188,leap3,2022.2.5,59.998251998035315,
,,,,,,,,,,,,,,,,,,,,12,0,12,0,19,0,19,0,,,,,,tinker,w,g,upper,,,,,,,1,w,HiDemTar,h,0,0.6846758950850926,,,,,,,,,,,,,,,,,,,,350,2023-11-13_13h45.02.188,leap3,2022.2.5,59.998251998035315,
,,,,,,,,,,,,,,,,,,,,12,0,12,0,20,0,20,0,,,,,,terming,w,g,upper,,,,,,,1,w,HiDemTar,h,0,0.6799720349954441,,,,,,,,,,,,,,,,,,,,350,2023-11-13_13h45.02.188,leap3,2022.2.5,59.998251998035315,
,,,,,,,,,,,,,,,,,,,,12,0,12,0,21,0,21,0,,,,,,brighten,w,g,upper,,,,,,,1,w,HiDemTar,g,1,0.5874055111780763,,,,,,,,,,,,,,,,,,,,350,2023-11-13_13h45.02.188,leap3,2022.2.5,59.998251998035315,
,,,,,,,,,,,,,,,,,,,,12,0,12,0,22,0,22,0,,,,,,daining,nw,h,upper,,,,,,,1,w,HiDemTar,h,1,0.6580773011082783,,,,,,,,,,,,,,,,,,,,350,2023-11-13_13h45.02.188,leap3,2022.2.5,59.998251998035315,
,,,,,,,,,,,,,,,,,,,,12,0,12,0,23,0,23,0,,,,,,batire,nw,h,upper,,,,,,,1,nw,HiDemTar,h,1,0.5901855163974687,,,,,,,,,,,,,,,,,,,,350,2023-11-13_13h45.02.188,leap3,2022.2.5,59.998251998035315,
,,,,,,,,,,,,,,,,,,,,12,0,12,0,24,0,24,0,,,,,,flieves,nw,h,upper,,,,,,,1,nw,HiDemTar,h,1,0.5967364228563383,,,,,,,,,,,,,,,,,,,,350,2023-11-13_13h45.02.188,leap3,2022.2.5,59.998251998035315,
,,,,,,,,,,,,,,,,,,,,12,0,12,0,25,0,25,0,,,,,,efcorted,nw,h,upper,,,,,,,1,nw,HiDemTar,h,1,0.5146645260974765,,,,,,,,,,,,,,,,,,,,350,2023-11-13_13h45.02.188,leap3,2022.2.5,59.998251998035315,
,,,,,,,,,,,,,,,,,,,,12,0,12,0,26,0,26,0,,,,,,fission,w,g,upper,,,,,,,1,nw,HiDemTar,h,0,0.37269455956993625,,,,,,,,,,,,,,,,,,,,350,2023-11-13_13h45.02.188,leap3,2022.2.5,59.998251998035315,
,,,,,,,,,,,,,,,,,,,,12,0,12,0,27,0,27,0,,,,,,pexts,nw,h,upper,,,,,,,1,w,HiDemTar,h,1,0.45209206285653636,,,,,,,,,,,,,,,,,,,,350,2023-11-13_13h45.02.188,leap3,2022.2.5,59.998251998035315,
,,,,,,,,,,,,,,,,,,,,12,0,12,0,28,0,28,0,,,,,,snorls,nw,h,upper,,,,,,,1,nw,HiDemTar,h,1,0.5121593101066537,,,,,,,,,,,,,,,,,,,,350,2023-11-13_13h45.02.188,leap3,2022.2.5,59.998251998035315,
,,,,,,,,,,,,,,,,,,,,12,0,12,0,29,0,29,0,,,,,,cavern,w,g,upper,,,,,,,1,nw,HiDemTar,h,0,0.5862861594068818,,,,,,,,,,,,,,,,,,,,350,2023-11-13_13h45.02.188,leap3,2022.2.5,59.998251998035315,
,,,,,,,,,,,,,,,,,,,,12,0,12,0,,,,,,,,,,,,,,,,,,,,,,,,,,,,1,,,,,,,,,,,,,,,,,350,2023-11-13_13h45.02.188,leap3,2022.2.5,59.998251998035315,
,,,,,,,,,,,,,,,,,,,,13,0,13,0,0,0,0,0,,,,,,antwers,nw,h,lower,,,,,,,3,nw,LoDemNoTar,h,1,0.4979143081000075,,,,,,,,,,,,,,,,,,,,350,2023-11-13_13h45.02.188,leap3,2022.2.5,59.998251998035315,
,,,,,,,,,,,,,,,,,,,,13,0,13,0,1,0,1,0,,,,,,couple,w,g,lower,,,,,,,3,w,LoDemNoTar,g,1,0.6516055206302553,,,,,,,,,,,,,,,,,,,,350,2023-11-13_13h45.02.188,leap3,2022.2.5,59.998251998035315,
,,,,,,,,,,,,,,,,,,,,13,0,13,0,2,0,2,0,,,,,,numbled,nw,h,lower,,,,,,,3,nw,LoDemNoTar,h,1,0.527701449173037,,,,,,,,,,,,,,,,,,,,350,2023-11-13_13h45.02.188,leap3,2022.2.5,59.998251998035315,
,,,,,,,,,,,,,,,,,,,,13,0,13,0,3,0,3,0,,,,,,colored,w,g,lower,,,,,,,3,w,LoDemNoTar,g,1,0.601016842876561,,,,,,,,,,,,,,,,,,,,350,2023-11-13_13h45.02.188,leap3,2022.2.5,59.998251998035315,
,,,,,,,,,,,,,,,,,,,,13,0,13,0,4,0,4,0,,,,,,parent,w,g,lower,,,,,,,3,w,LoDemNoTar,h,0,0.5032869320712052,,,,,,,,,,,,,,,,,,,,350,2023-11-13_13h45.02.188,leap3,2022.2.5,59.998251998035315,
,,,,,,,,,,,,,,,,,,,,13,0,13,0,5,0,5,0,,,,,,ounside,nw,h,lower,,,,,,,3,nw,LoDemNoTar,h,1,0.6888977154740132,,,,,,,,,,,,,,,,,,,,350,2023-11-13_13h45.02.188,leap3,2022.2.5,59.998251998035315,
,,,,,,,,,,,,,,,,,,,,13,0,13,0,6,0,6,0,,,,,,aqueduct,w,g,lower,,,,,,,3,w,LoDemNoTar,g,1,0.7303955081733875,,,,,,,,,,,,,,,,,,,,350,2023-11-13_13h45.02.188,leap3,2022.2.5,59.998251998035315,
,,,,,,,,,,,,,,,,,,,,13,0,13,0,7,0,7,0,,,,,,coster,nw,h,lower,,,,,,,3,nw,LoDemNoTar,h,1,0.6374373271246441,,,,,,,,,,,,,,,,,,,,350,2023-11-13_13h45.02.188,leap3,2022.2.5,59.998251998035315,
,,,,,,,,,,,,,,,,,,,,13,0,13,0,8,0,8,0,,,,,,airline,w,g,lower,,,,,,,3,w,LoDemNoTar,g,1,0.5221421009628102,,,,,,,,,,,,,,,,,,,,350,2023-11-13_13h45.02.188,leap3,2022.2.5,59.998251998035315,
,,,,,,,,,,,,,,,,,,,,13,0,13,0,9,0,9,0,,,,,,noblest,w,g,lower,,,,,,,3,w,LoDemNoTar,g,1,0.8996308462228626,,,,,,,,,,,,,,,,,,,,350,2023-11-13_13h45.02.188,leap3,2022.2.5,59.998251998035315,
,,,,,,,,,,,,,,,,,,,,13,0,13,0,10,0,10,0,,,,,,ausht,nw,h,lower,,,,,,,3,nw,LoDemNoTar,h,1,0.5814886061125435,,,,,,,,,,,,,,,,,,,,350,2023-11-13_13h45.02.188,leap3,2022.2.5,59.998251998035315,
,,,,,,,,,,,,,,,,,,,,13,0,13,0,11,0,11,0,,,,,,troven,nw,h,lower,,,,,,,3,nw,LoDemNoTar,g,0,0.6367953800363466,,,,,,,,,,,,,,,,,,,,350,2023-11-13_13h45.02.188,leap3,2022.2.5,59.998251998035315,
,,,,,,,,,,,,,,,,,,,,13,0,13,0,12,0,12,0,,,,,,buaint,nw,h,lower,,,,,,,3,nw,LoDemNoTar,h,1,0.5455024872208014,,,,,,,,,,,,,,,,,,,,350,2023-11-13_13h45.02.188,leap3,2022.2.5,59.998251998035315,
,,,,,,,,,,,,,,,,,,,,13,0,13,0,13,0,13,0,,,,,,huzzles,nw,h,lower,,,,,,,3,nw,LoDemNoTar,h,1,0.626317968708463,,,,,,,,,,,,,,,,,,,,350,2023-11-13_13h45.02.188,leap3,2022.2.5,59.998251998035315,
,,,,,,,,,,,,,,,,,,,,13,0,13,0,14,0,14,0,,,,,,regards,w,g,lower,,,,,,,3,w,LoDemNoTar,g,1,0.6956611697096378,,,,,,,,,,,,,,,,,,,,350,2023-11-13_13h45.02.188,leap3,2022.2.5,59.998251998035315,
,,,,,,,,,,,,,,,,,,,,13,0,13,0,15,0,15,0,,,,,,cervical,w,g,lower,,,,,,,3,w,LoDemNoTar,h,0,0.6743914982653223,,,,,,,,,,,,,,,,,,,,350,2023-11-13_13h45.02.188,leap3,2022.2.5,59.998251998035315,
,,,,,,,,,,,,,,,,,,,,13,0,13,0,16,0,16,0,,,,,,flacked,nw,h,lower,,,,,,,3,nw,LoDemNoTar,h,1,0.6618945524096489,,,,,,,,,,,,,,,,,,,,350,2023-11-13_13h45.02.188,leap3,2022.2.5,59.998251998035315,
,,,,,,,,,,,,,,,,,,,,13,0,13,0,17,0,17,0,,,,,,flicking,w,g,lower,,,,,,,3,w,LoDemNoTar,g,1,0.8098893532878719,,,,,,,,,,,,,,,,,,,,350,2023-11-13_13h45.02.188,leap3,2022.2.5,59.998251998035315,
,,,,,,,,,,,,,,,,,,,,13,0,13,0,18,0,18,0,,,,,,require,w,g,lower,,,,,,,3,w,LoDemNoTar,g,1,0.4639579869690351,,,,,,,,,,,,,,,,,,,,350,2023-11-13_13h45.02.188,leap3,2022.2.5,59.998251998035315,
,,,,,,,,,,,,,,,,,,,,13,0,13,0,19,0,19,0,,,,,,sooled,nw,h,lower,,,,,,,3,nw,LoDemNoTar,h,1,0.6031280840979889,,,,,,,,,,,,,,,,,,,,350,2023-11-13_13h45.02.188,leap3,2022.2.5,59.998251998035315,
,,,,,,,,,,,,,,,,,,,,13,0,13,0,20,0,20,0,,,,,,legalize,w,g,lower,,,,,,,3,w,LoDemNoTar,g,1,0.545076729671564,,,,,,,,,,,,,,,,,,,,350,2023-11-13_13h45.02.188,leap3,2022.2.5,59.998251998035315,
,,,,,,,,,,,,,,,,,,,,13,0,13,0,21,0,21,0,,,,,,nimono,nw,h,lower,,,,,,,3,nw,LoDemNoTar,h,1,0.5618339001084678,,,,,,,,,,,,,,,,,,,,350,2023-11-13_13h45.02.188,leap3,2022.2.5,59.998251998035315,
,,,,,,,,,,,,,,,,,,,,13,0,13,0,22,0,22,0,,,,,,galashes,nw,h,lower,,,,,,,3,nw,LoDemNoTar,h,1,0.7219214088981971,,,,,,,,,,,,,,,,,,,,350,2023-11-13_13h45.02.188,leap3,2022.2.5,59.998251998035315,
,,,,,,,,,,,,,,,,,,,,13,0,13,0,23,0,23,0,,,,,,corduroy,w,g,lower,,,,,,,3,w,LoDemNoTar,h,0,0.9794044464942999,,,,,,,,,,,,,,,,,,,,350,2023-11-13_13h45.02.188,leap3,2022.2.5,59.998251998035315,
,,,,,,,,,,,,,,,,,,,,13,0,13,0,24,0,24,0,,,,,,unspoken,w,g,lower,,,,,,,3,w,LoDemNoTar,g,1,0.6107500060461462,,,,,,,,,,,,,,,,,,,,350,2023-11-13_13h45.02.188,leap3,2022.2.5,59.998251998035315,
,,,,,,,,,,,,,,,,,,,,13,0,13,0,25,0,25,0,,,,,,alber,nw,h,lower,,,,,,,3,nw,LoDemNoTar,h,1,0.512817810755223,,,,,,,,,,,,,,,,,,,,350,2023-11-13_13h45.02.188,leap3,2022.2.5,59.998251998035315,
,,,,,,,,,,,,,,,,,,,,13,0,13,0,26,0,26,0,,,,,,plashed,nw,h,lower,,,,,,,3,nw,LoDemNoTar,h,1,0.6510175380972214,,,,,,,,,,,,,,,,,,,,350,2023-11-13_13h45.02.188,leap3,2022.2.5,59.998251998035315,
,,,,,,,,,,,,,,,,,,,,13,0,13,0,27,0,27,0,,,,,,sequence,w,g,lower,,,,,,,3,w,LoDemNoTar,g,1,0.5510307147051208,,,,,,,,,,,,,,,,,,,,350,2023-11-13_13h45.02.188,leap3,2022.2.5,59.998251998035315,
,,,,,,,,,,,,,,,,,,,,13,0,13,0,28,0,28,0,,,,,,shockwave,w,g,lower,,,,,,,3,w,LoDemNoTar,g,1,0.710989105689805,,,,,,,,,,,,,,,,,,,,350,2023-11-13_13h45.02.188,leap3,2022.2.5,59.998251998035315,
,,,,,,,,,,,,,,,,,,,,13,0,13,0,29,0,29,0,,,,,,chonemic,nw,h,lower,,,,,,,3,nw,LoDemNoTar,h,1,0.6320193464052863,,,,,,,,,,,,,,,,,,,,350,2023-11-13_13h45.02.188,leap3,2022.2.5,59.998251998035315,
,,,,,,,,,,,,,,,,,,,,13,0,13,0,,,,,,,,,,,,,,,,,,,,,,,,,,,,NA,,,,,,,,,,,,,,,,,350,2023-11-13_13h45.02.188,leap3,2022.2.5,59.998251998035315,
,,,,,,,,,,,,,,,,,,,,14,0,14,0,0,0,0,0,,,,,,squadroim,nw,h,lower,,,,,,,3,nw,LoDemNoTar,h,1,0.493084309855476,,,,,,,,,,,,,,,,,,,,350,2023-11-13_13h45.02.188,leap3,2022.2.5,59.998251998035315,
,,,,,,,,,,,,,,,,,,,,14,0,14,0,1,0,1,0,,,,,,unbridled,w,g,lower,,,,,,,3,w,LoDemNoTar,h,0,0.4171736487769522,,,,,,,,,,,,,,,,,,,,350,2023-11-13_13h45.02.188,leap3,2022.2.5,59.998251998035315,
,,,,,,,,,,,,,,,,,,,,14,0,14,0,2,0,2,0,,,,,,etuip,nw,h,lower,,,,,,,3,nw,LoDemNoTar,h,1,0.4632461838773452,,,,,,,,,,,,,,,,,,,,350,2023-11-13_13h45.02.188,leap3,2022.2.5,59.998251998035315,
,,,,,,,,,,,,,,,,,,,,14,0,14,0,3,0,3,0,,,,,,hindsight,w,g,lower,,,,,,,3,w,LoDemNoTar,g,1,0.7312725158990361,,,,,,,,,,,,,,,,,,,,350,2023-11-13_13h45.02.188,leap3,2022.2.5,59.998251998035315,
,,,,,,,,,,,,,,,,,,,,14,0,14,0,4,0,4,0,,,,,,sheerio,nw,h,lower,,,,,,,3,nw,LoDemNoTar,h,1,0.49995039618806913,,,,,,,,,,,,,,,,,,,,350,2023-11-13_13h45.02.188,leap3,2022.2.5,59.998251998035315,
,,,,,,,,,,,,,,,,,,,,14,0,14,0,5,0,5,0,,,,,,caloric,w,g,lower,,,,,,,3,w,LoDemNoTar,h,0,0.606535138154868,,,,,,,,,,,,,,,,,,,,350,2023-11-13_13h45.02.188,leap3,2022.2.5,59.998251998035315,
,,,,,,,,,,,,,,,,,,,,14,0,14,0,6,0,6,0,,,,,,retreat,w,g,lower,,,,,,,3,w,LoDemNoTar,g,1,0.5166204949491657,,,,,,,,,,,,,,,,,,,,350,2023-11-13_13h45.02.188,leap3,2022.2.5,59.998251998035315,
,,,,,,,,,,,,,,,,,,,,14,0,14,0,7,0,7,0,,,,,,elvisages,nw,h,lower,,,,,,,3,nw,LoDemNoTar,h,1,0.5826950296759605,,,,,,,,,,,,,,,,,,,,350,2023-11-13_13h45.02.188,leap3,2022.2.5,59.998251998035315,
,,,,,,,,,,,,,,,,,,,,14,0,14,0,8,0,8,0,,,,,,century,w,g,lower,,,,,,,3,w,LoDemNoTar,g,1,0.5901010931702331,,,,,,,,,,,,,,,,,,,,350,2023-11-13_13h45.02.188,leap3,2022.2.5,59.998251998035315,
,,,,,,,,,,,,,,,,,,,,14,0,14,0,9,0,9,0,,,,,,porghum,nw,h,lower,,,,,,,3,nw,LoDemNoTar,h,1,0.4926721261581406,,,,,,,,,,,,,,,,,,,,350,2023-11-13_13h45.02.188,leap3,2022.2.5,59.998251998035315,
,,,,,,,,,,,,,,,,,,,,14,0,14,0,10,0,10,0,,,,,,planofoad,nw,h,lower,,,,,,,3,nw,LoDemNoTar,h,1,0.5995041783316992,,,,,,,,,,,,,,,,,,,,350,2023-11-13_13h45.02.188,leap3,2022.2.5,59.998251998035315,
,,,,,,,,,,,,,,,,,,,,14,0,14,0,11,0,11,0,,,,,,hostade,nw,h,lower,,,,,,,3,nw,LoDemNoTar,h,1,0.4861976971151307,,,,,,,,,,,,,,,,,,,,350,2023-11-13_13h45.02.188,leap3,2022.2.5,59.998251998035315,
,,,,,,,,,,,,,,,,,,,,14,0,14,0,12,0,12,0,,,,,,maximized,w,g,lower,,,,,,,3,w,LoDemNoTar,g,1,0.5449489361490123,,,,,,,,,,,,,,,,,,,,350,2023-11-13_13h45.02.188,leap3,2022.2.5,59.998251998035315,
,,,,,,,,,,,,,,,,,,,,14,0,14,0,13,0,13,0,,,,,,donastic,nw,h,lower,,,,,,,3,nw,LoDemNoTar,h,1,0.6256670826696791,,,,,,,,,,,,,,,,,,,,350,2023-11-13_13h45.02.188,leap3,2022.2.5,59.998251998035315,
,,,,,,,,,,,,,,,,,,,,14,0,14,0,14,0,14,0,,,,,,worps,nw,h,lower,,,,,,,3,nw,LoDemNoTar,h,1,0.6300299394060858,,,,,,,,,,,,,,,,,,,,350,2023-11-13_13h45.02.188,leap3,2022.2.5,59.998251998035315,
,,,,,,,,,,,,,,,,,,,,14,0,14,0,15,0,15,0,,,,,,entropy,w,g,lower,,,,,,,3,w,LoDemNoTar,g,1,0.6274674480082467,,,,,,,,,,,,,,,,,,,,350,2023-11-13_13h45.02.188,leap3,2022.2.5,59.998251998035315,
,,,,,,,,,,,,,,,,,,,,14,0,14,0,16,0,16,0,,,,,,resonant,w,g,lower,,,,,,,3,w,LoDemNoTar,h,0,0.4888552059419453,,,,,,,,,,,,,,,,,,,,350,2023-11-13_13h45.02.188,leap3,2022.2.5,59.998251998035315,
,,,,,,,,,,,,,,,,,,,,14,0,14,0,17,0,17,0,,,,,,noblin,nw,h,lower,,,,,,,3,nw,LoDemNoTar,h,1,0.5716213590349071,,,,,,,,,,,,,,,,,,,,350,2023-11-13_13h45.02.188,leap3,2022.2.5,59.998251998035315,
,,,,,,,,,,,,,,,,,,,,14,0,14,0,18,0,18,0,,,,,,outset,w,g,lower,,,,,,,3,w,LoDemNoTar,g,1,0.5390095182228833,,,,,,,,,,,,,,,,,,,,350,2023-11-13_13h45.02.188,leap3,2022.2.5,59.998251998035315,
,,,,,,,,,,,,,,,,,,,,14,0,14,0,19,0,19,0,,,,,,provide,w,g,lower,,,,,,,3,w,LoDemNoTar,g,1,0.48389608989236876,,,,,,,,,,,,,,,,,,,,350,2023-11-13_13h45.02.188,leap3,2022.2.5,59.998251998035315,
,,,,,,,,,,,,,,,,,,,,14,0,14,0,20,0,20,0,,,,,,frose,nw,h,lower,,,,,,,3,nw,LoDemNoTar,g,0,0.36650385858956724,,,,,,,,,,,,,,,,,,,,350,2023-11-13_13h45.02.188,leap3,2022.2.5,59.998251998035315,
,,,,,,,,,,,,,,,,,,,,14,0,14,0,21,0,21,0,,,,,,monopoly,w,g,lower,,,,,,,3,w,LoDemNoTar,g,1,0.7105434838449582,,,,,,,,,,,,,,,,,,,,350,2023-11-13_13h45.02.188,leap3,2022.2.5,59.998251998035315,
,,,,,,,,,,,,,,,,,,,,14,0,14,0,22,0,22,0,,,,,,ergonomic,w,g,lower,,,,,,,3,w,LoDemNoTar,h,0,0.9677176318946294,,,,,,,,,,,,,,,,,,,,350,2023-11-13_13h45.02.188,leap3,2022.2.5,59.998251998035315,
,,,,,,,,,,,,,,,,,,,,14,0,14,0,23,0,23,0,,,,,,veclors,nw,h,lower,,,,,,,3,nw,LoDemNoTar,h,1,0.6470231636776589,,,,,,,,,,,,,,,,,,,,350,2023-11-13_13h45.02.188,leap3,2022.2.5,59.998251998035315,
,,,,,,,,,,,,,,,,,,,,14,0,14,0,24,0,24,0,,,,,,smolvers,nw,h,lower,,,,,,,3,nw,LoDemNoTar,h,1,0.5236835686373524,,,,,,,,,,,,,,,,,,,,350,2023-11-13_13h45.02.188,leap3,2022.2.5,59.998251998035315,
,,,,,,,,,,,,,,,,,,,,14,0,14,0,25,0,25,0,,,,,,persona,w,g,lower,,,,,,,3,w,LoDemNoTar,h,0,0.5650976003962569,,,,,,,,,,,,,,,,,,,,350,2023-11-13_13h45.02.188,leap3,2022.2.5,59.998251998035315,
,,,,,,,,,,,,,,,,,,,,14,0,14,0,26,0,26,0,,,,,,plartly,nw,h,lower,,,,,,,3,nw,LoDemNoTar,h,1,0.6292956233373843,,,,,,,,,,,,,,,,,,,,350,2023-11-13_13h45.02.188,leap3,2022.2.5,59.998251998035315,
,,,,,,,,,,,,,,,,,,,,14,0,14,0,27,0,27,0,,,,,,rewrite,w,g,lower,,,,,,,3,w,LoDemNoTar,g,1,0.5705023382324725,,,,,,,,,,,,,,,,,,,,350,2023-11-13_13h45.02.188,leap3,2022.2.5,59.998251998035315,
,,,,,,,,,,,,,,,,,,,,14,0,14,0,28,0,28,0,,,,,,terrify,w,g,lower,,,,,,,3,w,LoDemNoTar,g,1,0.46365307038649917,,,,,,,,,,,,,,,,,,,,350,2023-11-13_13h45.02.188,leap3,2022.2.5,59.998251998035315,
,,,,,,,,,,,,,,,,,,,,14,0,14,0,29,0,29,0,,,,,,dumult,nw,h,lower,,,,,,,3,nw,LoDemNoTar,h,1,0.558045452053193,,,,,,,,,,,,,,,,,,,,350,2023-11-13_13h45.02.188,leap3,2022.2.5,59.998251998035315,
,,,,,,,,,,,,,,,,,,,,14,0,14,0,,,,,,,,,,,,,,,,,,,,,,,,,,,,NA,,,,,,,,,,,,,,,,,350,2023-11-13_13h45.02.188,leap3,2022.2.5,59.998251998035315,
,,,,,,,,,,,,,,,,,,,,15,0,15,0,0,0,0,0,,,,,,shamrock,w,g,lower,,,,,,,4,w,LoDemTar,g,1,0.7336009399150498,,,,,,,,,,,,,,,,,,,,350,2023-11-13_13h45.02.188,leap3,2022.2.5,59.998251998035315,
,,,,,,,,,,,,,,,,,,,,15,0,15,0,1,0,1,0,,,,,,profats,nw,h,lower,,,,,,,4,nw,LoDemTar,h,1,0.5510419711354189,,,,,,,,,,,,,,,,,,,,350,2023-11-13_13h45.02.188,leap3,2022.2.5,59.998251998035315,
,,,,,,,,,,,,,,,,,,,,15,0,15,0,2,0,2,0,,,,,,rumblos,nw,h,lower,,,,,,,4,nw,LoDemTar,h,1,0.4629336525686085,,,,,,,,,,,,,,,,,,,,350,2023-11-13_13h45.02.188,leap3,2022.2.5,59.998251998035315,
,,,,,,,,,,,,,,,,,,,,15,0,15,0,3,0,3,0,,,,,,glating,nw,h,lower,,,,,,,4,nw,LoDemTar,h,1,0.4110067849396728,,,,,,,,,,,,,,,,,,,,350,2023-11-13_13h45.02.188,leap3,2022.2.5,59.998251998035315,
,,,,,,,,,,,,,,,,,,,,15,0,15,0,4,0,4,0,,,,,,acorn,w,g,lower,,,,,,,4,w,LoDemTar,h,0,0.38515012152493,,,,,,,,,,,,,,,,,,,,350,2023-11-13_13h45.02.188,leap3,2022.2.5,59.998251998035315,
,,,,,,,,,,,,,,,,,,,,15,0,15,0,5,0,5,0,,,,,,jinds,nw,h,lower,,,,,,,4,nw,LoDemTar,h,1,0.4398056783247739,,,,,,,,,,,,,,,,,,,,350,2023-11-13_13h45.02.188,leap3,2022.2.5,59.998251998035315,
,,,,,,,,,,,,,,,,,,,,15,0,15,0,6,0,6,0,,,,,,trophy,w,g,lower,,,,,,,4,w,LoDemTar,g,1,0.452546292624902,,,,,,,,,,,,,,,,,,,,350,2023-11-13_13h45.02.188,leap3,2022.2.5,59.998251998035315,
,,,,,,,,,,,,,,,,,,,,15,0,15,0,7,0,7,0,,,,,,lofty,w,g,lower,,,,,,,4,w,LoDemTar,g,1,0.529316745698452,,,,,,,,,,,,,,,,,,,,350,2023-11-13_13h45.02.188,leap3,2022.2.5,59.998251998035315,
,,,,,,,,,,,,,,,,,,,,15,0,15,0,8,0,8,0,,,,,,integral,w,g,lower,,,,,,,4,w,LoDemTar,g,1,0.46667310217162594,,,,,,,,,,,,,,,,,,,,350,2023-11-13_13h45.02.188,leap3,2022.2.5,59.998251998035315,
,,,,,,,,,,,,,,,,,,,,15,0,15,0,9,0,9,0,,,,,,gaioty,nw,h,lower,,,,,,,4,nw,LoDemTar,h,1,0.4616818722570315,,,,,,,,,,,,,,,,,,,,350,2023-11-13_13h45.02.188,leap3,2022.2.5,59.998251998035315,
,,,,,,,,,,,,,,,,,,,,15,0,15,0,10,0,10,0,,,,,,railroad,w,g,lower,,,,,,,4,w,LoDemTar,g,1,0.5617299437872134,,,,,,,,,,,,,,,,,,,,350,2023-11-13_13h45.02.188,leap3,2022.2.5,59.998251998035315,
,,,,,,,,,,,,,,,,,,,,15,0,15,0,11,0,11,0,,,,,,surdens,nw,h,lower,,,,,,,4,nw,LoDemTar,h,1,0.5058024112950079,,,,,,,,,,,,,,,,,,,,350,2023-11-13_13h45.02.188,leap3,2022.2.5,59.998251998035315,
,,,,,,,,,,,,,,,,,,,,15,0,15,0,12,0,12,0,,,,,,afford,w,g,lower,,,,,,,4,w,LoDemTar,h,0,0.4199116078671068,,,,,,,,,,,,,,,,,,,,350,2023-11-13_13h45.02.188,leap3,2022.2.5,59.998251998035315,
,,,,,,,,,,,,,,,,,,,,15,0,15,0,13,0,13,0,,,,,,exclusion,w,g,lower,,,,,,,4,w,LoDemTar,g,1,0.6813310824218206,,,,,,,,,,,,,,,,,,,,350,2023-11-13_13h45.02.188,leap3,2022.2.5,59.998251998035315,
,,,,,,,,,,,,,,,,,,,,15,0,15,0,14,0,14,0,,,,,,boulder,w,g,lower,,,,,,,4,w,LoDemTar,g,1,0.44469626259524375,,,,,,,,,,,,,,,,,,,,350,2023-11-13_13h45.02.188,leap3,2022.2.5,59.998251998035315,
,,,,,,,,,,,,,,,,,,,,15,0,15,0,15,0,15,0,,,,,,butterfly,target,q,lower,,,,,,,4,target,LoDemTar,g,0,0.425436855701264,,,,,,,,,,,,,,,,,,,,350,2023-11-13_13h45.02.188,leap3,2022.2.5,59.998251998035315,
,,,,,,,,,,,,,,,,,,,,15,0,15,0,16,0,16,0,,,,,,paranoid,w,g,lower,,,,,,,4,aftertar1,LoDemTar,q,0,0.6860640767845325,,,,1,,,,,,,,,,,,,,,,350,2023-11-13_13h45.02.188,leap3,2022.2.5,59.998251998035315,
,,,,,,,,,,,,,,,,,,,,15,0,15,0,17,0,17,0,,,,,,punctual,w,g,lower,,,,,,,4,aftertar2,LoDemTar,h,0,0.8736030190484598,,,,,,,,,,,,,,,,,,,,350,2023-11-13_13h45.02.188,leap3,2022.2.5,59.998251998035315,
,,,,,,,,,,,,,,,,,,,,15,0,15,0,18,0,18,0,,,,,,sording,nw,h,lower,,,,,,,4,aftertar3,LoDemTar,h,1,0.6520650474703871,,,,,,,,,,,,,,,,,,,,350,2023-11-13_13h45.02.188,leap3,2022.2.5,59.998251998035315,
,,,,,,,,,,,,,,,,,,,,15,0,15,0,19,0,19,0,,,,,,otoist,nw,h,lower,,,,,,,4,nw,LoDemTar,h,1,0.4960659373900853,,,,,,,,,,,,,,,,,,,,350,2023-11-13_13h45.02.188,leap3,2022.2.5,59.998251998035315,
,,,,,,,,,,,,,,,,,,,,15,0,15,0,20,0,20,0,,,,,,reborn,w,g,lower,,,,,,,4,nw,LoDemTar,g,1,0.5947615829645656,,,,,,,,,,,,,,,,,,,,350,2023-11-13_13h45.02.188,leap3,2022.2.5,59.998251998035315,
,,,,,,,,,,,,,,,,,,,,15,0,15,0,21,0,21,0,,,,,,ucility,nw,h,lower,,,,,,,4,w,LoDemTar,h,1,0.7455724757164717,,,,,,,,,,,,,,,,,,,,350,2023-11-13_13h45.02.188,leap3,2022.2.5,59.998251998035315,
,,,,,,,,,,,,,,,,,,,,15,0,15,0,22,0,22,0,,,,,,incidonts,nw,h,lower,,,,,,,4,nw,LoDemTar,h,1,0.5942073697224259,,,,,,,,,,,,,,,,,,,,350,2023-11-13_13h45.02.188,leap3,2022.2.5,59.998251998035315,
,,,,,,,,,,,,,,,,,,,,15,0,15,0,23,0,23,0,,,,,,erony,nw,h,lower,,,,,,,4,nw,LoDemTar,h,1,0.8649829172645696,,,,,,,,,,,,,,,,,,,,350,2023-11-13_13h45.02.188,leap3,2022.2.5,59.998251998035315,
,,,,,,,,,,,,,,,,,,,,15,0,15,0,24,0,24,0,,,,,,balign,nw,h,lower,,,,,,,4,nw,LoDemTar,h,1,0.5002208813675679,,,,,,,,,,,,,,,,,,,,350,2023-11-13_13h45.02.188,leap3,2022.2.5,59.998251998035315,
,,,,,,,,,,,,,,,,,,,,15,0,15,0,25,0,25,0,,,,,,gablus,nw,h,lower,,,,,,,4,nw,LoDemTar,h,1,0.5357607162441127,,,,,,,,,,,,,,,,,,,,350,2023-11-13_13h45.02.188,leap3,2022.2.5,59.998251998035315,
,,,,,,,,,,,,,,,,,,,,15,0,15,0,26,0,26,0,,,,,,sefraud,nw,h,lower,,,,,,,4,nw,LoDemTar,h,1,0.5045466581359506,,,,,,,,,,,,,,,,,,,,350,2023-11-13_13h45.02.188,leap3,2022.2.5,59.998251998035315,
,,,,,,,,,,,,,,,,,,,,15,0,15,0,27,0,27,0,,,,,,abstain,w,g,lower,,,,,,,4,nw,LoDemTar,g,1,0.8905753858271055,,,,,,,,,,,,,,,,,,,,350,2023-11-13_13h45.02.188,leap3,2022.2.5,59.998251998035315,
,,,,,,,,,,,,,,,,,,,,15,0,15,0,28,0,28,0,,,,,,innocent,w,g,lower,,,,,,,4,w,LoDemTar,g,1,0.4763254839926958,,,,,,,,,,,,,,,,,,,,350,2023-11-13_13h45.02.188,leap3,2022.2.5,59.998251998035315,
,,,,,,,,,,,,,,,,,,,,15,0,15,0,29,0,29,0,,,,,,rantho,nw,h,lower,,,,,,,4,w,LoDemTar,h,1,0.719789641269017,,,,,,,,,,,,,,,,,,,,350,2023-11-13_13h45.02.188,leap3,2022.2.5,59.998251998035315,
,,,,,,,,,,,,,,,,,,,,15,0,15,0,,,,,,,,,,,,,,,,,,,,,,,,,,,,1,,,,,,,,,,,,,,,,,350,2023-11-13_13h45.02.188,leap3,2022.2.5,59.998251998035315,
,,,,,,,,,,,,,,,,,,,,16,0,16,0,0,0,0,0,,,,,,dariner,nw,h,upper,,,,,,,2,nw,HiDemNoTar,h,1,0.6662160251871683,,,,,,,,,,,,,,,,,,,,350,2023-11-13_13h45.02.188,leap3,2022.2.5,59.998251998035315,
,,,,,,,,,,,,,,,,,,,,16,0,16,0,1,0,1,0,,,,,,plapping,nw,h,upper,,,,,,,2,nw,HiDemNoTar,h,1,0.46229071222478524,,,,,,,,,,,,,,,,,,,,350,2023-11-13_13h45.02.188,leap3,2022.2.5,59.998251998035315,
