demoRace_loop.thisRepN,demoRace_loop.thisTrialN,demoRace_loop.thisN,demoRace_loop.thisIndex,LDTunderstand.thisRepN,LDTunderstand.thisTrialN,LDTunderstand.thisN,LDTunderstand.thisIndex,pracBlocks.thisRepN,pracBlocks.thisTrialN,pracBlocks.thisN,pracBlocks.thisIndex,pracTrial.thisRepN,pracTrial.thisTrialN,pracTrial.thisN,pracTrial.thisIndex,PMunderstand.thisRepN,PMunderstand.thisTrialN,PMunderstand.thisN,PMunderstand.thisIndex,LDT_block.thisRepN,LDT_block.thisTrialN,LDT_block.thisN,LDT_block.thisIndex,LDT_trial.thisRepN,LDT_trial.thisTrialN,LDT_trial.thisN,LDT_trial.thisIndex,ageTextbox.text,genderTextbox.text,race,raceResp,LDTunderstand,stim,word_type,corr_key,stim_location,LDTpracKey.keys,LDTpracKey.corr,LDTpracKey.rt,PMunderstand,cueTextbox.text,intentionTextbox.text,block_type,role,block_desc,LDTResp.keys,LDTResp.corr,LDTResp.rt,PM_accuracy,pressedQ,pressedQ_blank,participant,date,expName,psychopyVersion,frameRate,
0,0,0,0,,,,,,,,,,,,,,,,,,,,,,,,,"
18", Male,American Indian or Alaska Native,n,,,,,,,,,,,,,,,,,,,,,351,2023-11-14_10h14.28.234,leap3,2022.2.5,60.08469603243979,
1,0,1,0,,,,,,,,,,,,,,,,,,,,,,,,,,,Asian,n,,,,,,,,,,,,,,,,,,,,,351,2023-11-14_10h14.28.234,leap3,2022.2.5,60.08469603243979,
2,0,2,0,,,,,,,,,,,,,,,,,,,,,,,,,,,Black or African American,y,,,,,,,,,,,,,,,,,,,,,351,2023-11-14_10h14.28.234,leap3,2022.2.5,60.08469603243979,
3,0,3,0,,,,,,,,,,,,,,,,,,,,,,,,,,,Native Hawaiian or other Pacific Islander,n,,,,,,,,,,,,,,,,,,,,,351,2023-11-14_10h14.28.234,leap3,2022.2.5,60.08469603243979,
4,0,4,0,,,,,,,,,,,,,,,,,,,,,,,,,,,White,n,,,,,,,,,,,,,,,,,,,,,351,2023-11-14_10h14.28.234,leap3,2022.2.5,60.08469603243979,
,,,,0,0,0,0,,,,,,,,,,,,,,,,,,,,,,,,,y,,,,,,,,,,,,,,,,,,,,351,2023-11-14_10h14.28.234,leap3,2022.2.5,60.08469603243979,
,,,,,,,,0,0,0,0,0,0,0,0,,,,,,,,,,,,,,,,,,picture,w,g,lower,g,1,0.46848976891487837,,,,,,,,,,,,,351,2023-11-14_10h14.28.234,leap3,2022.2.5,60.08469603243979,
,,,,,,,,0,0,0,0,1,0,1,0,,,,,,,,,,,,,,,,,,trotch,nw,h,lower,g,0,0.8792100055143237,,,,,,,,,,,,,351,2023-11-14_10h14.28.234,leap3,2022.2.5,60.08469603243979,
,,,,,,,,0,0,0,0,2,0,2,0,,,,,,,,,,,,,,,,,,summary,w,g,lower,g,1,0.4072893597185612,,,,,,,,,,,,,351,2023-11-14_10h14.28.234,leap3,2022.2.5,60.08469603243979,
,,,,,,,,0,0,0,0,3,0,3,0,,,,,,,,,,,,,,,,,,hiring,w,g,lower,g,1,0.4241914236918092,,,,,,,,,,,,,351,2023-11-14_10h14.28.234,leap3,2022.2.5,60.08469603243979,
,,,,,,,,0,0,0,0,4,0,4,0,,,,,,,,,,,,,,,,,,slumber,w,g,lower,g,1,0.47713488806039095,,,,,,,,,,,,,351,2023-11-14_10h14.28.234,leap3,2022.2.5,60.08469603243979,
,,,,,,,,0,0,0,0,5,0,5,0,,,,,,,,,,,,,,,,,,julled,nw,h,lower,g,0,0.19959492981433868,,,,,,,,,,,,,351,2023-11-14_10h14.28.234,leap3,2022.2.5,60.08469603243979,
,,,,,,,,0,0,0,0,6,0,6,0,,,,,,,,,,,,,,,,,,revival,w,g,lower,g,1,0.40676022600382566,,,,,,,,,,,,,351,2023-11-14_10h14.28.234,leap3,2022.2.5,60.08469603243979,
,,,,,,,,0,0,0,0,7,0,7,0,,,,,,,,,,,,,,,,,,lurshing,nw,h,lower,g,0,0.5006111180409789,,,,,,,,,,,,,351,2023-11-14_10h14.28.234,leap3,2022.2.5,60.08469603243979,
,,,,,,,,0,0,0,0,8,0,8,0,,,,,,,,,,,,,,,,,,latador,nw,h,lower,g,0,0.9417231352999806,,,,,,,,,,,,,351,2023-11-14_10h14.28.234,leap3,2022.2.5,60.08469603243979,
,,,,,,,,0,0,0,0,9,0,9,0,,,,,,,,,,,,,,,,,,curlecs,nw,h,lower,g,0,0.38226014096289873,,,,,,,,,,,,,351,2023-11-14_10h14.28.234,leap3,2022.2.5,60.08469603243979,
,,,,,,,,0,0,0,0,10,0,10,0,,,,,,,,,,,,,,,,,,overshoot,w,g,lower,g,1,0.469536866992712,,,,,,,,,,,,,351,2023-11-14_10h14.28.234,leap3,2022.2.5,60.08469603243979,
,,,,,,,,0,0,0,0,11,0,11,0,,,,,,,,,,,,,,,,,,grimace,w,g,lower,g,1,0.6088512223213911,,,,,,,,,,,,,351,2023-11-14_10h14.28.234,leap3,2022.2.5,60.08469603243979,
,,,,,,,,0,0,0,0,12,0,12,0,,,,,,,,,,,,,,,,,,crinklo,nw,h,lower,g,0,1.252789224497974,,,,,,,,,,,,,351,2023-11-14_10h14.28.234,leap3,2022.2.5,60.08469603243979,
,,,,,,,,0,0,0,0,13,0,13,0,,,,,,,,,,,,,,,,,,treeps,nw,h,lower,g,0,0.4660360775887966,,,,,,,,,,,,,351,2023-11-14_10h14.28.234,leap3,2022.2.5,60.08469603243979,
,,,,,,,,0,0,0,0,,,,,,,,,,,,,,,,,,,,,,,,,,,,,,,,,,,,,,,,,351,2023-11-14_10h14.28.234,leap3,2022.2.5,60.08469603243979,
,,,,,,,,1,0,1,0,0,0,0,0,,,,,,,,,,,,,,,,,,infinity,w,g,upper,g,1,0.484951744787395,,,,,,,,,,,,,351,2023-11-14_10h14.28.234,leap3,2022.2.5,60.08469603243979,
,,,,,,,,1,0,1,0,1,0,1,0,,,,,,,,,,,,,,,,,,alolition,nw,h,upper,g,0,0.9210003279149532,,,,,,,,,,,,,351,2023-11-14_10h14.28.234,leap3,2022.2.5,60.08469603243979,
,,,,,,,,1,0,1,0,2,0,2,0,,,,,,,,,,,,,,,,,,umpire,w,g,upper,g,1,0.35416961926966906,,,,,,,,,,,,,351,2023-11-14_10h14.28.234,leap3,2022.2.5,60.08469603243979,
,,,,,,,,1,0,1,0,3,0,3,0,,,,,,,,,,,,,,,,,,unscrew,w,g,upper,g,1,0.3610359700396657,,,,,,,,,,,,,351,2023-11-14_10h14.28.234,leap3,2022.2.5,60.08469603243979,
,,,,,,,,1,0,1,0,4,0,4,0,,,,,,,,,,,,,,,,,,tricycle,w,g,upper,g,1,0.257155098952353,,,,,,,,,,,,,351,2023-11-14_10h14.28.234,leap3,2022.2.5,60.08469603243979,
,,,,,,,,1,0,1,0,5,0,5,0,,,,,,,,,,,,,,,,,,raestro,nw,h,upper,g,0,0.14104833267629147,,,,,,,,,,,,,351,2023-11-14_10h14.28.234,leap3,2022.2.5,60.08469603243979,
,,,,,,,,1,0,1,0,6,0,6,0,,,,,,,,,,,,,,,,,,sponsor,w,g,upper,g,1,0.2616884959861636,,,,,,,,,,,,,351,2023-11-14_10h14.28.234,leap3,2022.2.5,60.08469603243979,
,,,,,,,,1,0,1,0,7,0,7,0,,,,,,,,,,,,,,,,,,grocus,nw,h,upper,g,0,0.3376611592248082,,,,,,,,,,,,,351,2023-11-14_10h14.28.234,leap3,2022.2.5,60.08469603243979,
,,,,,,,,1,0,1,0,8,0,8,0,,,,,,,,,,,,,,,,,,turative,nw,h,upper,g,0,0.28229449037462473,,,,,,,,,,,,,351,2023-11-14_10h14.28.234,leap3,2022.2.5,60.08469603243979,
,,,,,,,,1,0,1,0,9,0,9,0,,,,,,,,,,,,,,,,,,lumbigo,nw,h,upper,g,0,0.8376421425491571,,,,,,,,,,,,,351,2023-11-14_10h14.28.234,leap3,2022.2.5,60.08469603243979,
,,,,,,,,1,0,1,0,10,0,10,0,,,,,,,,,,,,,,,,,,reputable,w,g,upper,g,1,0.4093581987544894,,,,,,,,,,,,,351,2023-11-14_10h14.28.234,leap3,2022.2.5,60.08469603243979,
,,,,,,,,1,0,1,0,11,0,11,0,,,,,,,,,,,,,,,,,,busted,w,g,upper,g,1,0.2873464561998844,,,,,,,,,,,,,351,2023-11-14_10h14.28.234,leap3,2022.2.5,60.08469603243979,
,,,,,,,,1,0,1,0,12,0,12,0,,,,,,,,,,,,,,,,,,grutch,nw,h,upper,g,0,0.20868405979126692,,,,,,,,,,,,,351,2023-11-14_10h14.28.234,leap3,2022.2.5,60.08469603243979,
,,,,,,,,1,0,1,0,13,0,13,0,,,,,,,,,,,,,,,,,,hasking,nw,h,upper,g,0,0.43932528607547283,,,,,,,,,,,,,351,2023-11-14_10h14.28.234,leap3,2022.2.5,60.08469603243979,
,,,,,,,,1,0,1,0,,,,,,,,,,,,,,,,,,,,,,,,,,,,,,,,,,,,,,,,,351,2023-11-14_10h14.28.234,leap3,2022.2.5,60.08469603243979,
,,,,,,,,,,,,,,,,0,0,0,0,,,,,,,,,,,,,,,,,,,,,y,,,,,,,,,,,,351,2023-11-14_10h14.28.234,leap3,2022.2.5,60.08469603243979,
,,,,,,,,,,,,,,,,,,,,0,0,0,0,0,0,0,0,,,,,,sampling,w,g,lower,,,,,animal,"
q",1,w,HiDemTar,g,1,0.7951304130256176,,,,351,2023-11-14_10h14.28.234,leap3,2022.2.5,60.08469603243979,
,,,,,,,,,,,,,,,,,,,,0,0,0,0,1,0,1,0,,,,,,cherry,w,g,lower,,,,,,,1,w,HiDemTar,g,1,0.6493997564539313,,,,351,2023-11-14_10h14.28.234,leap3,2022.2.5,60.08469603243979,
,,,,,,,,,,,,,,,,,,,,0,0,0,0,2,0,2,0,,,,,,mystery,w,g,lower,,,,,,,1,w,HiDemTar,g,1,0.5186952045187354,,,,351,2023-11-14_10h14.28.234,leap3,2022.2.5,60.08469603243979,
,,,,,,,,,,,,,,,,,,,,0,0,0,0,3,0,3,0,,,,,,recipus,nw,h,lower,,,,,,,1,nw,HiDemTar,h,1,0.6726580560207367,,,,351,2023-11-14_10h14.28.234,leap3,2022.2.5,60.08469603243979,
,,,,,,,,,,,,,,,,,,,,0,0,0,0,4,0,4,0,,,,,,parlayid,nw,h,lower,,,,,,,1,nw,HiDemTar,h,1,0.7777656204998493,,,,351,2023-11-14_10h14.28.234,leap3,2022.2.5,60.08469603243979,
,,,,,,,,,,,,,,,,,,,,0,0,0,0,5,0,5,0,,,,,,slears,nw,h,lower,,,,,,,1,nw,HiDemTar,g,0,0.6111497655510902,,,,351,2023-11-14_10h14.28.234,leap3,2022.2.5,60.08469603243979,
,,,,,,,,,,,,,,,,,,,,0,0,0,0,6,0,6,0,,,,,,rocket,w,g,lower,,,,,,,1,w,HiDemTar,g,1,0.5384137770161033,,,,351,2023-11-14_10h14.28.234,leap3,2022.2.5,60.08469603243979,
,,,,,,,,,,,,,,,,,,,,0,0,0,0,7,0,7,0,,,,,,charcoal,w,g,lower,,,,,,,1,w,HiDemTar,g,1,0.635920001193881,,,,351,2023-11-14_10h14.28.234,leap3,2022.2.5,60.08469603243979,
,,,,,,,,,,,,,,,,,,,,0,0,0,0,8,0,8,0,,,,,,vibrate,w,g,lower,,,,,,,1,w,HiDemTar,g,1,0.5611833902075887,,,,351,2023-11-14_10h14.28.234,leap3,2022.2.5,60.08469603243979,
,,,,,,,,,,,,,,,,,,,,0,0,0,0,9,0,9,0,,,,,,metrol,nw,h,lower,,,,,,,1,nw,HiDemTar,h,1,0.7619722289964557,,,,351,2023-11-14_10h14.28.234,leap3,2022.2.5,60.08469603243979,
,,,,,,,,,,,,,,,,,,,,0,0,0,0,10,0,10,0,,,,,,fission,w,g,lower,,,,,,,1,w,HiDemTar,g,1,0.7931669168174267,,,,351,2023-11-14_10h14.28.234,leap3,2022.2.5,60.08469603243979,
,,,,,,,,,,,,,,,,,,,,0,0,0,0,11,0,11,0,,,,,,haurded,nw,h,lower,,,,,,,1,nw,HiDemTar,h,1,0.5285081574693322,,,,351,2023-11-14_10h14.28.234,leap3,2022.2.5,60.08469603243979,
,,,,,,,,,,,,,,,,,,,,0,0,0,0,12,0,12,0,,,,,,tiery,nw,h,lower,,,,,,,1,nw,HiDemTar,h,1,0.6505346912890673,,,,351,2023-11-14_10h14.28.234,leap3,2022.2.5,60.08469603243979,
,,,,,,,,,,,,,,,,,,,,0,0,0,0,13,0,13,0,,,,,,lindo,nw,h,lower,,,,,,,1,nw,HiDemTar,h,1,0.6870608506724238,,,,351,2023-11-14_10h14.28.234,leap3,2022.2.5,60.08469603243979,
,,,,,,,,,,,,,,,,,,,,0,0,0,0,14,0,14,0,,,,,,regional,w,g,lower,,,,,,,1,w,HiDemTar,g,1,0.5143697774037719,,,,351,2023-11-14_10h14.28.234,leap3,2022.2.5,60.08469603243979,
,,,,,,,,,,,,,,,,,,,,0,0,0,0,15,0,15,0,,,,,,graiking,nw,h,lower,,,,,,,1,nw,HiDemTar,h,1,0.5330005045980215,,,,351,2023-11-14_10h14.28.234,leap3,2022.2.5,60.08469603243979,
,,,,,,,,,,,,,,,,,,,,0,0,0,0,16,0,16,0,,,,,,gorilla,target,q,lower,,,,,,,1,target,HiDemTar,g,0,0.5510652726516128,,,,351,2023-11-14_10h14.28.234,leap3,2022.2.5,60.08469603243979,
,,,,,,,,,,,,,,,,,,,,0,0,0,0,17,0,17,0,,,,,,trembla,nw,h,lower,,,,,,,1,aftertar1,HiDemTar,h,1,0.7748093595728278,,,,351,2023-11-14_10h14.28.234,leap3,2022.2.5,60.08469603243979,
,,,,,,,,,,,,,,,,,,,,0,0,0,0,18,0,18,0,,,,,,overwork,w,g,lower,,,,,,,1,aftertar2,HiDemTar,g,1,0.5827522668987513,,,,351,2023-11-14_10h14.28.234,leap3,2022.2.5,60.08469603243979,
,,,,,,,,,,,,,,,,,,,,0,0,0,0,19,0,19,0,,,,,,patio,w,g,lower,,,,,,,1,aftertar3,HiDemTar,g,1,0.774672020226717,,,,351,2023-11-14_10h14.28.234,leap3,2022.2.5,60.08469603243979,
,,,,,,,,,,,,,,,,,,,,0,0,0,0,20,0,20,0,,,,,,preserve,w,g,lower,,,,,,,1,w,HiDemTar,g,1,0.5585268596187234,,,,351,2023-11-14_10h14.28.234,leap3,2022.2.5,60.08469603243979,
,,,,,,,,,,,,,,,,,,,,0,0,0,0,21,0,21,0,,,,,,sorping,nw,h,lower,,,,,,,1,w,HiDemTar,h,1,0.6551655838266015,,,,351,2023-11-14_10h14.28.234,leap3,2022.2.5,60.08469603243979,
,,,,,,,,,,,,,,,,,,,,0,0,0,0,22,0,22,0,,,,,,afternoon,w,g,lower,,,,,,,1,nw,HiDemTar,g,1,0.5798829365521669,,,,351,2023-11-14_10h14.28.234,leap3,2022.2.5,60.08469603243979,
,,,,,,,,,,,,,,,,,,,,0,0,0,0,23,0,23,0,,,,,,uncle,w,g,lower,,,,,,,1,w,HiDemTar,g,1,0.6278954744338989,,,,351,2023-11-14_10h14.28.234,leap3,2022.2.5,60.08469603243979,
,,,,,,,,,,,,,,,,,,,,0,0,0,0,24,0,24,0,,,,,,soluced,nw,h,lower,,,,,,,1,w,HiDemTar,h,1,0.7538604699075222,,,,351,2023-11-14_10h14.28.234,leap3,2022.2.5,60.08469603243979,
,,,,,,,,,,,,,,,,,,,,0,0,0,0,25,0,25,0,,,,,,collute,nw,h,lower,,,,,,,1,nw,HiDemTar,g,0,0.7224665656685829,,,,351,2023-11-14_10h14.28.234,leap3,2022.2.5,60.08469603243979,
,,,,,,,,,,,,,,,,,,,,0,0,0,0,26,0,26,0,,,,,,whirling,w,g,lower,,,,,,,1,nw,HiDemTar,g,1,0.7644271282479167,,,,351,2023-11-14_10h14.28.234,leap3,2022.2.5,60.08469603243979,
,,,,,,,,,,,,,,,,,,,,0,0,0,0,27,0,27,0,,,,,,orange,w,g,lower,,,,,,,1,w,HiDemTar,g,1,0.8198490338400006,,,,351,2023-11-14_10h14.28.234,leap3,2022.2.5,60.08469603243979,
,,,,,,,,,,,,,,,,,,,,0,0,0,0,28,0,28,0,,,,,,bureaug,nw,h,lower,,,,,,,1,w,HiDemTar,h,1,0.737032356671989,,,,351,2023-11-14_10h14.28.234,leap3,2022.2.5,60.08469603243979,
,,,,,,,,,,,,,,,,,,,,0,0,0,0,29,0,29,0,,,,,,unburnid,nw,h,lower,,,,,,,1,nw,HiDemTar,h,1,0.7625955380499363,,,,351,2023-11-14_10h14.28.234,leap3,2022.2.5,60.08469603243979,
,,,,,,,,,,,,,,,,,,,,0,0,0,0,,,,,,,,,,,,,,,,,,,,,,,,,,0,,,351,2023-11-14_10h14.28.234,leap3,2022.2.5,60.08469603243979,
,,,,,,,,,,,,,,,,,,,,1,0,1,0,0,0,0,0,,,,,,mining,w,g,upper,,,,,,,3,w,LoDemNoTar,g,1,0.931921954266727,,,,351,2023-11-14_10h14.28.234,leap3,2022.2.5,60.08469603243979,
,,,,,,,,,,,,,,,,,,,,1,0,1,0,1,0,1,0,,,,,,penalize,w,g,upper,,,,,,,3,w,LoDemNoTar,g,1,0.6115140905603766,,,,351,2023-11-14_10h14.28.234,leap3,2022.2.5,60.08469603243979,
,,,,,,,,,,,,,,,,,,,,1,0,1,0,2,0,2,0,,,,,,quittint,nw,h,upper,,,,,,,3,nw,LoDemNoTar,h,1,0.5564275337383151,,,,351,2023-11-14_10h14.28.234,leap3,2022.2.5,60.08469603243979,
,,,,,,,,,,,,,,,,,,,,1,0,1,0,3,0,3,0,,,,,,superstar,w,g,upper,,,,,,,3,w,LoDemNoTar,g,1,0.6840677643194795,,,,351,2023-11-14_10h14.28.234,leap3,2022.2.5,60.08469603243979,
,,,,,,,,,,,,,,,,,,,,1,0,1,0,4,0,4,0,,,,,,forfeit,w,g,upper,,,,,,,3,w,LoDemNoTar,g,1,0.5914408518001437,,,,351,2023-11-14_10h14.28.234,leap3,2022.2.5,60.08469603243979,
,,,,,,,,,,,,,,,,,,,,1,0,1,0,5,0,5,0,,,,,,rangel,nw,h,upper,,,,,,,3,nw,LoDemNoTar,h,1,0.7186959283426404,,,,351,2023-11-14_10h14.28.234,leap3,2022.2.5,60.08469603243979,
,,,,,,,,,,,,,,,,,,,,1,0,1,0,6,0,6,0,,,,,,roughly,w,g,upper,,,,,,,3,w,LoDemNoTar,g,1,0.5927472319453955,,,,351,2023-11-14_10h14.28.234,leap3,2022.2.5,60.08469603243979,
,,,,,,,,,,,,,,,,,,,,1,0,1,0,7,0,7,0,,,,,,rejoiced,w,g,upper,,,,,,,3,w,LoDemNoTar,g,1,0.6240197950974107,,,,351,2023-11-14_10h14.28.234,leap3,2022.2.5,60.08469603243979,
,,,,,,,,,,,,,,,,,,,,1,0,1,0,8,0,8,0,,,,,,rawhide,w,g,upper,,,,,,,3,w,LoDemNoTar,h,0,0.7419970892369747,,,,351,2023-11-14_10h14.28.234,leap3,2022.2.5,60.08469603243979,
,,,,,,,,,,,,,,,,,,,,1,0,1,0,9,0,9,0,,,,,,blocking,w,g,upper,,,,,,,3,w,LoDemNoTar,g,1,0.6393577037379146,,,,351,2023-11-14_10h14.28.234,leap3,2022.2.5,60.08469603243979,
,,,,,,,,,,,,,,,,,,,,1,0,1,0,10,0,10,0,,,,,,bellicove,nw,h,upper,,,,,,,3,nw,LoDemNoTar,h,1,0.6286968709900975,,,,351,2023-11-14_10h14.28.234,leap3,2022.2.5,60.08469603243979,
,,,,,,,,,,,,,,,,,,,,1,0,1,0,11,0,11,0,,,,,,spaceship,w,g,upper,,,,,,,3,w,LoDemNoTar,g,1,0.6737111900001764,,,,351,2023-11-14_10h14.28.234,leap3,2022.2.5,60.08469603243979,
,,,,,,,,,,,,,,,,,,,,1,0,1,0,12,0,12,0,,,,,,midday,w,g,upper,,,,,,,3,w,LoDemNoTar,g,1,0.5496215522289276,,,,351,2023-11-14_10h14.28.234,leap3,2022.2.5,60.08469603243979,
,,,,,,,,,,,,,,,,,,,,1,0,1,0,13,0,13,0,,,,,,itself,w,g,upper,,,,,,,3,w,LoDemNoTar,g,1,0.7748682191595435,,,,351,2023-11-14_10h14.28.234,leap3,2022.2.5,60.08469603243979,
,,,,,,,,,,,,,,,,,,,,1,0,1,0,14,0,14,0,,,,,,culer,nw,h,upper,,,,,,,3,nw,LoDemNoTar,h,1,0.5988423712551594,,,,351,2023-11-14_10h14.28.234,leap3,2022.2.5,60.08469603243979,
,,,,,,,,,,,,,,,,,,,,1,0,1,0,15,0,15,0,,,,,,inforl,nw,h,upper,,,,,,,3,nw,LoDemNoTar,h,1,0.6061654118821025,,,,351,2023-11-14_10h14.28.234,leap3,2022.2.5,60.08469603243979,
,,,,,,,,,,,,,,,,,,,,1,0,1,0,16,0,16,0,,,,,,arrival,w,g,upper,,,,,,,3,w,LoDemNoTar,g,1,0.5647614505141973,,,,351,2023-11-14_10h14.28.234,leap3,2022.2.5,60.08469603243979,
,,,,,,,,,,,,,,,,,,,,1,0,1,0,17,0,17,0,,,,,,pripend,nw,h,upper,,,,,,,3,nw,LoDemNoTar,h,1,0.636215204373002,,,,351,2023-11-14_10h14.28.234,leap3,2022.2.5,60.08469603243979,
,,,,,,,,,,,,,,,,,,,,1,0,1,0,18,0,18,0,,,,,,checkout,w,g,upper,,,,,,,3,w,LoDemNoTar,g,1,0.5055930558592081,,,,351,2023-11-14_10h14.28.234,leap3,2022.2.5,60.08469603243979,
,,,,,,,,,,,,,,,,,,,,1,0,1,0,19,0,19,0,,,,,,image,w,g,upper,,,,,,,3,w,LoDemNoTar,g,1,0.6604713993147016,,,,351,2023-11-14_10h14.28.234,leap3,2022.2.5,60.08469603243979,
,,,,,,,,,,,,,,,,,,,,1,0,1,0,20,0,20,0,,,,,,togglo,nw,h,upper,,,,,,,3,nw,LoDemNoTar,h,1,0.7698696805164218,,,,351,2023-11-14_10h14.28.234,leap3,2022.2.5,60.08469603243979,
,,,,,,,,,,,,,,,,,,,,1,0,1,0,21,0,21,0,,,,,,frowsed,nw,h,upper,,,,,,,3,nw,LoDemNoTar,h,1,0.5540369283407927,,,,351,2023-11-14_10h14.28.234,leap3,2022.2.5,60.08469603243979,
,,,,,,,,,,,,,,,,,,,,1,0,1,0,22,0,22,0,,,,,,loached,nw,h,upper,,,,,,,3,nw,LoDemNoTar,h,1,0.6096927635371685,,,,351,2023-11-14_10h14.28.234,leap3,2022.2.5,60.08469603243979,
,,,,,,,,,,,,,,,,,,,,1,0,1,0,23,0,23,0,,,,,,spiud,nw,h,upper,,,,,,,3,nw,LoDemNoTar,h,1,0.5923071438446641,,,,351,2023-11-14_10h14.28.234,leap3,2022.2.5,60.08469603243979,
,,,,,,,,,,,,,,,,,,,,1,0,1,0,24,0,24,0,,,,,,glapula,nw,h,upper,,,,,,,3,nw,LoDemNoTar,h,1,0.6956087751314044,,,,351,2023-11-14_10h14.28.234,leap3,2022.2.5,60.08469603243979,
,,,,,,,,,,,,,,,,,,,,1,0,1,0,25,0,25,0,,,,,,drauns,nw,h,upper,,,,,,,3,nw,LoDemNoTar,h,1,0.6828923840075731,,,,351,2023-11-14_10h14.28.234,leap3,2022.2.5,60.08469603243979,
,,,,,,,,,,,,,,,,,,,,1,0,1,0,26,0,26,0,,,,,,gepealed,nw,h,upper,,,,,,,3,nw,LoDemNoTar,h,1,0.7346960827708244,,,,351,2023-11-14_10h14.28.234,leap3,2022.2.5,60.08469603243979,
,,,,,,,,,,,,,,,,,,,,1,0,1,0,27,0,27,0,,,,,,unversed,w,g,upper,,,,,,,3,w,LoDemNoTar,g,1,0.8482329482212663,,,,351,2023-11-14_10h14.28.234,leap3,2022.2.5,60.08469603243979,
,,,,,,,,,,,,,,,,,,,,1,0,1,0,28,0,28,0,,,,,,finstrel,nw,h,upper,,,,,,,3,nw,LoDemNoTar,h,1,0.5976205058395863,,,,351,2023-11-14_10h14.28.234,leap3,2022.2.5,60.08469603243979,
,,,,,,,,,,,,,,,,,,,,1,0,1,0,29,0,29,0,,,,,,thaken,nw,h,upper,,,,,,,3,nw,LoDemNoTar,h,1,0.5807736786082387,,,,351,2023-11-14_10h14.28.234,leap3,2022.2.5,60.08469603243979,
,,,,,,,,,,,,,,,,,,,,1,0,1,0,,,,,,,,,,,,,,,,,,,,,,,,,,NA,,,351,2023-11-14_10h14.28.234,leap3,2022.2.5,60.08469603243979,
,,,,,,,,,,,,,,,,,,,,2,0,2,0,0,0,0,0,,,,,,sponto,nw,h,lower,,,,,,,1,nw,HiDemTar,h,1,0.5956579158082604,,,,351,2023-11-14_10h14.28.234,leap3,2022.2.5,60.08469603243979,
,,,,,,,,,,,,,,,,,,,,2,0,2,0,1,0,1,0,,,,,,rapport,w,g,lower,,,,,,,1,w,HiDemTar,h,0,0.6269932622089982,,,,351,2023-11-14_10h14.28.234,leap3,2022.2.5,60.08469603243979,
,,,,,,,,,,,,,,,,,,,,2,0,2,0,2,0,2,0,,,,,,ezulated,nw,h,lower,,,,,,,1,nw,HiDemTar,h,1,0.5769616886973381,,,,351,2023-11-14_10h14.28.234,leap3,2022.2.5,60.08469603243979,
,,,,,,,,,,,,,,,,,,,,2,0,2,0,3,0,3,0,,,,,,reconcile,w,g,lower,,,,,,,1,w,HiDemTar,g,1,0.6169059323146939,,,,351,2023-11-14_10h14.28.234,leap3,2022.2.5,60.08469603243979,
,,,,,,,,,,,,,,,,,,,,2,0,2,0,4,0,4,0,,,,,,beggarlan,nw,h,lower,,,,,,,1,nw,HiDemTar,h,1,0.6636440837755799,,,,351,2023-11-14_10h14.28.234,leap3,2022.2.5,60.08469603243979,
,,,,,,,,,,,,,,,,,,,,2,0,2,0,5,0,5,0,,,,,,vorm,nw,h,lower,,,,,,,1,nw,HiDemTar,h,1,0.9482118794694543,,,,351,2023-11-14_10h14.28.234,leap3,2022.2.5,60.08469603243979,
,,,,,,,,,,,,,,,,,,,,2,0,2,0,6,0,6,0,,,,,,impirt,nw,h,lower,,,,,,,1,nw,HiDemTar,h,1,0.732562649063766,,,,351,2023-11-14_10h14.28.234,leap3,2022.2.5,60.08469603243979,
,,,,,,,,,,,,,,,,,,,,2,0,2,0,7,0,7,0,,,,,,catacomb,w,g,lower,,,,,,,1,w,HiDemTar,g,1,0.6226059580221772,,,,351,2023-11-14_10h14.28.234,leap3,2022.2.5,60.08469603243979,
,,,,,,,,,,,,,,,,,,,,2,0,2,0,8,0,8,0,,,,,,pexts,nw,h,lower,,,,,,,1,nw,HiDemTar,h,1,0.5057285828515887,,,,351,2023-11-14_10h14.28.234,leap3,2022.2.5,60.08469603243979,
,,,,,,,,,,,,,,,,,,,,2,0,2,0,9,0,9,0,,,,,,pretzel,w,g,lower,,,,,,,1,w,HiDemTar,g,1,0.5902413222938776,,,,351,2023-11-14_10h14.28.234,leap3,2022.2.5,60.08469603243979,
,,,,,,,,,,,,,,,,,,,,2,0,2,0,10,0,10,0,,,,,,huzzles,nw,h,lower,,,,,,,1,nw,HiDemTar,h,1,1.0702206045389175,,,,351,2023-11-14_10h14.28.234,leap3,2022.2.5,60.08469603243979,
,,,,,,,,,,,,,,,,,,,,2,0,2,0,11,0,11,0,,,,,,seartfelt,nw,h,lower,,,,,,,1,nw,HiDemTar,h,1,1.0904019037261605,,,,351,2023-11-14_10h14.28.234,leap3,2022.2.5,60.08469603243979,
,,,,,,,,,,,,,,,,,,,,2,0,2,0,12,0,12,0,,,,,,bulmed,nw,h,lower,,,,,,,1,nw,HiDemTar,h,1,0.6696719117462635,,,,351,2023-11-14_10h14.28.234,leap3,2022.2.5,60.08469603243979,
,,,,,,,,,,,,,,,,,,,,2,0,2,0,13,0,13,0,,,,,,permeable,w,g,lower,,,,,,,1,w,HiDemTar,g,1,0.8256670795381069,,,,351,2023-11-14_10h14.28.234,leap3,2022.2.5,60.08469603243979,
,,,,,,,,,,,,,,,,,,,,2,0,2,0,14,0,14,0,,,,,,plunging,w,g,lower,,,,,,,1,w,HiDemTar,g,1,0.711688918992877,,,,351,2023-11-14_10h14.28.234,leap3,2022.2.5,60.08469603243979,
,,,,,,,,,,,,,,,,,,,,2,0,2,0,15,0,15,0,,,,,,actively,w,g,lower,,,,,,,1,w,HiDemTar,g,1,0.521306156180799,,,,351,2023-11-14_10h14.28.234,leap3,2022.2.5,60.08469603243979,
,,,,,,,,,,,,,,,,,,,,2,0,2,0,16,0,16,0,,,,,,dreaded,w,g,lower,,,,,,,1,w,HiDemTar,g,1,0.5393277611583471,,,,351,2023-11-14_10h14.28.234,leap3,2022.2.5,60.08469603243979,
,,,,,,,,,,,,,,,,,,,,2,0,2,0,17,0,17,0,,,,,,tenpince,nw,h,lower,,,,,,,1,nw,HiDemTar,h,1,0.6446109991520643,,,,351,2023-11-14_10h14.28.234,leap3,2022.2.5,60.08469603243979,
,,,,,,,,,,,,,,,,,,,,2,0,2,0,18,0,18,0,,,,,,sliding,w,g,lower,,,,,,,1,w,HiDemTar,g,1,0.6018756031990051,,,,351,2023-11-14_10h14.28.234,leap3,2022.2.5,60.08469603243979,
,,,,,,,,,,,,,,,,,,,,2,0,2,0,19,0,19,0,,,,,,lutton,nw,h,lower,,,,,,,1,nw,HiDemTar,h,1,0.6805207934230566,,,,351,2023-11-14_10h14.28.234,leap3,2022.2.5,60.08469603243979,
,,,,,,,,,,,,,,,,,,,,2,0,2,0,20,0,20,0,,,,,,stagger,w,g,lower,,,,,,,1,w,HiDemTar,g,1,0.6204906338825822,,,,351,2023-11-14_10h14.28.234,leap3,2022.2.5,60.08469603243979,
,,,,,,,,,,,,,,,,,,,,2,0,2,0,21,0,21,0,,,,,,widely,w,g,lower,,,,,,,1,w,HiDemTar,g,1,0.5463972529396415,,,,351,2023-11-14_10h14.28.234,leap3,2022.2.5,60.08469603243979,
,,,,,,,,,,,,,,,,,,,,2,0,2,0,22,0,22,0,,,,,,stretches,w,g,lower,,,,,,,1,w,HiDemTar,g,1,0.539673674851656,,,,351,2023-11-14_10h14.28.234,leap3,2022.2.5,60.08469603243979,
,,,,,,,,,,,,,,,,,,,,2,0,2,0,23,0,23,0,,,,,,giraffe,target,q,lower,,,,,,,1,target,HiDemTar,g,0,0.5081243198364973,,1,1,351,2023-11-14_10h14.28.234,leap3,2022.2.5,60.08469603243979,
,,,,,,,,,,,,,,,,,,,,2,0,2,0,24,0,24,0,,,,,,demon,w,g,lower,,,,,,,1,aftertar1,HiDemTar,g,1,0.8067393396049738,,,,351,2023-11-14_10h14.28.234,leap3,2022.2.5,60.08469603243979,
,,,,,,,,,,,,,,,,,,,,2,0,2,0,25,0,25,0,,,,,,efcorted,nw,h,lower,,,,,,,1,aftertar2,HiDemTar,h,1,0.6853065323084593,,,,351,2023-11-14_10h14.28.234,leap3,2022.2.5,60.08469603243979,
,,,,,,,,,,,,,,,,,,,,2,0,2,0,26,0,26,0,,,,,,couple,w,g,lower,,,,,,,1,aftertar3,HiDemTar,g,1,0.552589887753129,,,,351,2023-11-14_10h14.28.234,leap3,2022.2.5,60.08469603243979,
,,,,,,,,,,,,,,,,,,,,2,0,2,0,27,0,27,0,,,,,,dileting,nw,h,lower,,,,,,,1,w,HiDemTar,h,1,0.7132603200152516,,,,351,2023-11-14_10h14.28.234,leap3,2022.2.5,60.08469603243979,
,,,,,,,,,,,,,,,,,,,,2,0,2,0,28,0,28,0,,,,,,handbook,w,g,lower,,,,,,,1,nw,HiDemTar,g,1,0.6039387080818415,,,,351,2023-11-14_10h14.28.234,leap3,2022.2.5,60.08469603243979,
,,,,,,,,,,,,,,,,,,,,2,0,2,0,29,0,29,0,,,,,,vintnel,nw,h,lower,,,,,,,1,w,HiDemTar,h,1,0.5945504494011402,,,,351,2023-11-14_10h14.28.234,leap3,2022.2.5,60.08469603243979,
,,,,,,,,,,,,,,,,,,,,2,0,2,0,,,,,,,,,,,,,,,,,,,,,,,,,,1,,,351,2023-11-14_10h14.28.234,leap3,2022.2.5,60.08469603243979,
,,,,,,,,,,,,,,,,,,,,3,0,3,0,0,0,0,0,,,,,,rowel,nw,h,lower,,,,,,,2,nw,HiDemNoTar,h,1,1.0573692880570889,,,,351,2023-11-14_10h14.28.234,leap3,2022.2.5,60.08469603243979,
,,,,,,,,,,,,,,,,,,,,3,0,3,0,1,0,1,0,,,,,,create,w,g,lower,,,,,,,2,w,HiDemNoTar,g,1,0.55001877900213,,,,351,2023-11-14_10h14.28.234,leap3,2022.2.5,60.08469603243979,
,,,,,,,,,,,,,,,,,,,,3,0,3,0,2,0,2,0,,,,,,pallir,nw,h,lower,,,,,,,2,nw,HiDemNoTar,h,1,0.5833070566877723,,,,351,2023-11-14_10h14.28.234,leap3,2022.2.5,60.08469603243979,
,,,,,,,,,,,,,,,,,,,,3,0,3,0,3,0,3,0,,,,,,courier,w,g,lower,,,,,,,2,w,HiDemNoTar,g,1,0.639237267896533,,,,351,2023-11-14_10h14.28.234,leap3,2022.2.5,60.08469603243979,
,,,,,,,,,,,,,,,,,,,,3,0,3,0,4,0,4,0,,,,,,populace,w,g,lower,,,,,,,2,w,HiDemNoTar,h,0,0.8446026686578989,,,,351,2023-11-14_10h14.28.234,leap3,2022.2.5,60.08469603243979,
,,,,,,,,,,,,,,,,,,,,3,0,3,0,5,0,5,0,,,,,,hardest,w,g,lower,,,,,,,2,w,HiDemNoTar,g,1,0.553955128416419,,,,351,2023-11-14_10h14.28.234,leap3,2022.2.5,60.08469603243979,
,,,,,,,,,,,,,,,,,,,,3,0,3,0,6,0,6,0,,,,,,blerapies,nw,h,lower,,,,,,,2,nw,HiDemNoTar,h,1,0.5705752708017826,,,,351,2023-11-14_10h14.28.234,leap3,2022.2.5,60.08469603243979,
,,,,,,,,,,,,,,,,,,,,3,0,3,0,7,0,7,0,,,,,,disease,w,g,lower,,,,,,,2,w,HiDemNoTar,g,1,0.6256600162014365,,,,351,2023-11-14_10h14.28.234,leap3,2022.2.5,60.08469603243979,
,,,,,,,,,,,,,,,,,,,,3,0,3,0,8,0,8,0,,,,,,blassed,nw,h,lower,,,,,,,2,nw,HiDemNoTar,h,1,0.5355734238401055,,,,351,2023-11-14_10h14.28.234,leap3,2022.2.5,60.08469603243979,
,,,,,,,,,,,,,,,,,,,,3,0,3,0,9,0,9,0,,,,,,handcuff,w,g,lower,,,,,,,2,w,HiDemNoTar,g,1,0.5927973380312324,,,,351,2023-11-14_10h14.28.234,leap3,2022.2.5,60.08469603243979,
,,,,,,,,,,,,,,,,,,,,3,0,3,0,10,0,10,0,,,,,,comment,w,g,lower,,,,,,,2,w,HiDemNoTar,g,1,0.5680793216452003,,,,351,2023-11-14_10h14.28.234,leap3,2022.2.5,60.08469603243979,
,,,,,,,,,,,,,,,,,,,,3,0,3,0,11,0,11,0,,,,,,emergence,w,g,lower,,,,,,,2,w,HiDemNoTar,g,1,0.49607168417423964,,,,351,2023-11-14_10h14.28.234,leap3,2022.2.5,60.08469603243979,
,,,,,,,,,,,,,,,,,,,,3,0,3,0,12,0,12,0,,,,,,brighten,w,g,lower,,,,,,,2,w,HiDemNoTar,g,1,0.5633838344365358,,,,351,2023-11-14_10h14.28.234,leap3,2022.2.5,60.08469603243979,
,,,,,,,,,,,,,,,,,,,,3,0,3,0,13,0,13,0,,,,,,asclibed,nw,h,lower,,,,,,,2,nw,HiDemNoTar,h,1,0.5640349118039012,,,,351,2023-11-14_10h14.28.234,leap3,2022.2.5,60.08469603243979,
,,,,,,,,,,,,,,,,,,,,3,0,3,0,14,0,14,0,,,,,,grenavier,nw,h,lower,,,,,,,2,nw,HiDemNoTar,g,0,0.8366973698139191,,,,351,2023-11-14_10h14.28.234,leap3,2022.2.5,60.08469603243979,
,,,,,,,,,,,,,,,,,,,,3,0,3,0,15,0,15,0,,,,,,thamp,nw,h,lower,,,,,,,2,nw,HiDemNoTar,h,1,1.1700597815215588,,,,351,2023-11-14_10h14.28.234,leap3,2022.2.5,60.08469603243979,
,,,,,,,,,,,,,,,,,,,,3,0,3,0,16,0,16,0,,,,,,unbridled,w,g,lower,,,,,,,2,w,HiDemNoTar,g,1,0.7219341127201915,,,,351,2023-11-14_10h14.28.234,leap3,2022.2.5,60.08469603243979,
,,,,,,,,,,,,,,,,,,,,3,0,3,0,17,0,17,0,,,,,,mebase,nw,h,lower,,,,,,,2,nw,HiDemNoTar,h,1,0.7639592699706554,,,,351,2023-11-14_10h14.28.234,leap3,2022.2.5,60.08469603243979,
,,,,,,,,,,,,,,,,,,,,3,0,3,0,18,0,18,0,,,,,,massacre,w,g,lower,,,,,,,2,w,HiDemNoTar,g,1,0.6275918195024133,,,,351,2023-11-14_10h14.28.234,leap3,2022.2.5,60.08469603243979,
,,,,,,,,,,,,,,,,,,,,3,0,3,0,19,0,19,0,,,,,,finish,w,g,lower,,,,,,,2,w,HiDemNoTar,g,1,0.4976017316803336,,,,351,2023-11-14_10h14.28.234,leap3,2022.2.5,60.08469603243979,
,,,,,,,,,,,,,,,,,,,,3,0,3,0,20,0,20,0,,,,,,sazer,nw,h,lower,,,,,,,2,nw,HiDemNoTar,h,1,0.7488679671660066,,,,351,2023-11-14_10h14.28.234,leap3,2022.2.5,60.08469603243979,
,,,,,,,,,,,,,,,,,,,,3,0,3,0,21,0,21,0,,,,,,clume,nw,h,lower,,,,,,,2,nw,HiDemNoTar,h,1,0.9009922863915563,,,,351,2023-11-14_10h14.28.234,leap3,2022.2.5,60.08469603243979,
,,,,,,,,,,,,,,,,,,,,3,0,3,0,22,0,22,0,,,,,,arbitrary,w,g,lower,,,,,,,2,w,HiDemNoTar,g,1,0.5839596446603537,,,,351,2023-11-14_10h14.28.234,leap3,2022.2.5,60.08469603243979,
,,,,,,,,,,,,,,,,,,,,3,0,3,0,23,0,23,0,,,,,,scack,nw,h,lower,,,,,,,2,nw,HiDemNoTar,h,1,0.6633340902626514,,,,351,2023-11-14_10h14.28.234,leap3,2022.2.5,60.08469603243979,
,,,,,,,,,,,,,,,,,,,,3,0,3,0,24,0,24,0,,,,,,erlighten,nw,h,lower,,,,,,,2,nw,HiDemNoTar,h,1,1.2128009125590324,,,,351,2023-11-14_10h14.28.234,leap3,2022.2.5,60.08469603243979,
,,,,,,,,,,,,,,,,,,,,3,0,3,0,25,0,25,0,,,,,,squadroim,nw,h,lower,,,,,,,2,nw,HiDemNoTar,h,1,0.7154613668099046,,,,351,2023-11-14_10h14.28.234,leap3,2022.2.5,60.08469603243979,
,,,,,,,,,,,,,,,,,,,,3,0,3,0,26,0,26,0,,,,,,slimped,nw,h,lower,,,,,,,2,nw,HiDemNoTar,h,1,0.9011272108182311,,,,351,2023-11-14_10h14.28.234,leap3,2022.2.5,60.08469603243979,
,,,,,,,,,,,,,,,,,,,,3,0,3,0,27,0,27,0,,,,,,retreat,w,g,lower,,,,,,,2,w,HiDemNoTar,g,1,0.43158992659300566,,,,351,2023-11-14_10h14.28.234,leap3,2022.2.5,60.08469603243979,
,,,,,,,,,,,,,,,,,,,,3,0,3,0,28,0,28,0,,,,,,exit,w,g,lower,,,,,,,2,w,HiDemNoTar,g,1,0.5015857722610235,,,,351,2023-11-14_10h14.28.234,leap3,2022.2.5,60.08469603243979,
,,,,,,,,,,,,,,,,,,,,3,0,3,0,29,0,29,0,,,,,,elvisages,nw,h,lower,,,,,,,2,nw,HiDemNoTar,h,1,0.6083193719387054,,,,351,2023-11-14_10h14.28.234,leap3,2022.2.5,60.08469603243979,
,,,,,,,,,,,,,,,,,,,,3,0,3,0,,,,,,,,,,,,,,,,,,,,,,,,,,NA,,,351,2023-11-14_10h14.28.234,leap3,2022.2.5,60.08469603243979,
,,,,,,,,,,,,,,,,,,,,4,0,4,0,0,0,0,0,,,,,,contact,w,g,upper,,,,,,,3,w,LoDemNoTar,g,1,0.6147779319435358,,,,351,2023-11-14_10h14.28.234,leap3,2022.2.5,60.08469603243979,
,,,,,,,,,,,,,,,,,,,,4,0,4,0,1,0,1,0,,,,,,matter,w,g,upper,,,,,,,3,w,LoDemNoTar,g,1,0.42945709452033043,,,,351,2023-11-14_10h14.28.234,leap3,2022.2.5,60.08469603243979,
,,,,,,,,,,,,,,,,,,,,4,0,4,0,2,0,2,0,,,,,,record,w,g,upper,,,,,,,3,w,LoDemNoTar,g,1,0.346495533362031,,,,351,2023-11-14_10h14.28.234,leap3,2022.2.5,60.08469603243979,
,,,,,,,,,,,,,,,,,,,,4,0,4,0,3,0,3,0,,,,,,colored,w,g,upper,,,,,,,3,w,LoDemNoTar,g,1,0.34768932685256004,,,,351,2023-11-14_10h14.28.234,leap3,2022.2.5,60.08469603243979,
,,,,,,,,,,,,,,,,,,,,4,0,4,0,4,0,4,0,,,,,,govern,w,g,upper,,,,,,,3,w,LoDemNoTar,g,1,0.5410223146900535,,,,351,2023-11-14_10h14.28.234,leap3,2022.2.5,60.08469603243979,
,,,,,,,,,,,,,,,,,,,,4,0,4,0,5,0,5,0,,,,,,ronic,nw,h,upper,,,,,,,3,nw,LoDemNoTar,h,1,0.5344934249296784,,,,351,2023-11-14_10h14.28.234,leap3,2022.2.5,60.08469603243979,
,,,,,,,,,,,,,,,,,,,,4,0,4,0,6,0,6,0,,,,,,forgive,w,g,upper,,,,,,,3,w,LoDemNoTar,h,0,0.38384633138775826,,,,351,2023-11-14_10h14.28.234,leap3,2022.2.5,60.08469603243979,
,,,,,,,,,,,,,,,,,,,,4,0,4,0,7,0,7,0,,,,,,pracking,nw,h,upper,,,,,,,3,nw,LoDemNoTar,h,1,0.6149931466206908,,,,351,2023-11-14_10h14.28.234,leap3,2022.2.5,60.08469603243979,
,,,,,,,,,,,,,,,,,,,,4,0,4,0,8,0,8,0,,,,,,emotion,w,g,upper,,,,,,,3,w,LoDemNoTar,g,1,0.37361019290983677,,,,351,2023-11-14_10h14.28.234,leap3,2022.2.5,60.08469603243979,
,,,,,,,,,,,,,,,,,,,,4,0,4,0,9,0,9,0,,,,,,gaining,w,g,upper,,,,,,,3,w,LoDemNoTar,g,1,0.45363511331379414,,,,351,2023-11-14_10h14.28.234,leap3,2022.2.5,60.08469603243979,
,,,,,,,,,,,,,,,,,,,,4,0,4,0,10,0,10,0,,,,,,tritical,nw,h,upper,,,,,,,3,nw,LoDemNoTar,h,1,0.5463175661861897,,,,351,2023-11-14_10h14.28.234,leap3,2022.2.5,60.08469603243979,
,,,,,,,,,,,,,,,,,,,,4,0,4,0,11,0,11,0,,,,,,bettled,nw,h,upper,,,,,,,3,nw,LoDemNoTar,h,1,0.658721006475389,,,,351,2023-11-14_10h14.28.234,leap3,2022.2.5,60.08469603243979,
,,,,,,,,,,,,,,,,,,,,4,0,4,0,12,0,12,0,,,,,,pammed,nw,h,upper,,,,,,,3,nw,LoDemNoTar,h,1,0.5340669192373753,,,,351,2023-11-14_10h14.28.234,leap3,2022.2.5,60.08469603243979,
,,,,,,,,,,,,,,,,,,,,4,0,4,0,13,0,13,0,,,,,,amms,nw,h,upper,,,,,,,3,nw,LoDemNoTar,h,1,0.4473784873262048,,,,351,2023-11-14_10h14.28.234,leap3,2022.2.5,60.08469603243979,
,,,,,,,,,,,,,,,,,,,,4,0,4,0,14,0,14,0,,,,,,cheathe,nw,h,upper,,,,,,,3,nw,LoDemNoTar,h,1,0.4929092628881335,,,,351,2023-11-14_10h14.28.234,leap3,2022.2.5,60.08469603243979,
,,,,,,,,,,,,,,,,,,,,4,0,4,0,15,0,15,0,,,,,,fallint,nw,h,upper,,,,,,,3,nw,LoDemNoTar,h,1,0.4888434214517474,,,,351,2023-11-14_10h14.28.234,leap3,2022.2.5,60.08469603243979,
,,,,,,,,,,,,,,,,,,,,4,0,4,0,16,0,16,0,,,,,,elbalm,nw,h,upper,,,,,,,3,nw,LoDemNoTar,h,1,0.5005522575229406,,,,351,2023-11-14_10h14.28.234,leap3,2022.2.5,60.08469603243979,
,,,,,,,,,,,,,,,,,,,,4,0,4,0,17,0,17,0,,,,,,argue,w,g,upper,,,,,,,3,w,LoDemNoTar,g,1,0.519079452380538,,,,351,2023-11-14_10h14.28.234,leap3,2022.2.5,60.08469603243979,
,,,,,,,,,,,,,,,,,,,,4,0,4,0,18,0,18,0,,,,,,pocket,w,g,upper,,,,,,,3,w,LoDemNoTar,g,1,0.4971169698983431,,,,351,2023-11-14_10h14.28.234,leap3,2022.2.5,60.08469603243979,
,,,,,,,,,,,,,,,,,,,,4,0,4,0,19,0,19,0,,,,,,huntry,nw,h,upper,,,,,,,3,nw,LoDemNoTar,h,1,0.6044403733685613,,,,351,2023-11-14_10h14.28.234,leap3,2022.2.5,60.08469603243979,
,,,,,,,,,,,,,,,,,,,,4,0,4,0,20,0,20,0,,,,,,chight,nw,h,upper,,,,,,,3,nw,LoDemNoTar,h,1,0.4672226272523403,,,,351,2023-11-14_10h14.28.234,leap3,2022.2.5,60.08469603243979,
,,,,,,,,,,,,,,,,,,,,4,0,4,0,21,0,21,0,,,,,,dusmy,nw,h,upper,,,,,,,3,nw,LoDemNoTar,h,1,0.40615774504840374,,,,351,2023-11-14_10h14.28.234,leap3,2022.2.5,60.08469603243979,
,,,,,,,,,,,,,,,,,,,,4,0,4,0,22,0,22,0,,,,,,acting,w,g,upper,,,,,,,3,w,LoDemNoTar,h,0,0.3576215086504817,,,,351,2023-11-14_10h14.28.234,leap3,2022.2.5,60.08469603243979,
,,,,,,,,,,,,,,,,,,,,4,0,4,0,23,0,23,0,,,,,,arranged,w,g,upper,,,,,,,3,w,LoDemNoTar,g,1,0.46134210005402565,,,,351,2023-11-14_10h14.28.234,leap3,2022.2.5,60.08469603243979,
,,,,,,,,,,,,,,,,,,,,4,0,4,0,24,0,24,0,,,,,,undimmec,nw,h,upper,,,,,,,3,nw,LoDemNoTar,h,1,0.6660392172634602,,,,351,2023-11-14_10h14.28.234,leap3,2022.2.5,60.08469603243979,
,,,,,,,,,,,,,,,,,,,,4,0,4,0,25,0,25,0,,,,,,confined,w,g,upper,,,,,,,3,w,LoDemNoTar,g,1,0.5185798993334174,,,,351,2023-11-14_10h14.28.234,leap3,2022.2.5,60.08469603243979,
,,,,,,,,,,,,,,,,,,,,4,0,4,0,26,0,26,0,,,,,,grieving,w,g,upper,,,,,,,3,w,LoDemNoTar,g,1,0.6805482618510723,,,,351,2023-11-14_10h14.28.234,leap3,2022.2.5,60.08469603243979,
,,,,,,,,,,,,,,,,,,,,4,0,4,0,27,0,27,0,,,,,,venturous,w,g,upper,,,,,,,3,w,LoDemNoTar,g,1,0.6845081551000476,,,,351,2023-11-14_10h14.28.234,leap3,2022.2.5,60.08469603243979,
,,,,,,,,,,,,,,,,,,,,4,0,4,0,28,0,28,0,,,,,,coster,nw,h,upper,,,,,,,3,nw,LoDemNoTar,h,1,0.6798377204686403,,,,351,2023-11-14_10h14.28.234,leap3,2022.2.5,60.08469603243979,
,,,,,,,,,,,,,,,,,,,,4,0,4,0,29,0,29,0,,,,,,ebince,nw,h,upper,,,,,,,3,nw,LoDemNoTar,h,1,0.6838591899722815,,,,351,2023-11-14_10h14.28.234,leap3,2022.2.5,60.08469603243979,
,,,,,,,,,,,,,,,,,,,,4,0,4,0,,,,,,,,,,,,,,,,,,,,,,,,,,NA,,,351,2023-11-14_10h14.28.234,leap3,2022.2.5,60.08469603243979,
,,,,,,,,,,,,,,,,,,,,5,0,5,0,0,0,0,0,,,,,,ethical,w,g,upper,,,,,,,4,w,LoDemTar,g,1,0.47002525068819523,,,,351,2023-11-14_10h14.28.234,leap3,2022.2.5,60.08469603243979,
,,,,,,,,,,,,,,,,,,,,5,0,5,0,1,0,1,0,,,,,,plogging,nw,h,upper,,,,,,,4,nw,LoDemTar,h,1,0.7059768196195364,,,,351,2023-11-14_10h14.28.234,leap3,2022.2.5,60.08469603243979,
,,,,,,,,,,,,,,,,,,,,5,0,5,0,2,0,2,0,,,,,,glocked,nw,h,upper,,,,,,,4,nw,LoDemTar,h,1,0.6926310826092958,,,,351,2023-11-14_10h14.28.234,leap3,2022.2.5,60.08469603243979,
,,,,,,,,,,,,,,,,,,,,5,0,5,0,3,0,3,0,,,,,,loneliest,w,g,upper,,,,,,,4,w,LoDemTar,g,1,0.5999634210020304,,,,351,2023-11-14_10h14.28.234,leap3,2022.2.5,60.08469603243979,
,,,,,,,,,,,,,,,,,,,,5,0,5,0,4,0,4,0,,,,,,cemoir,nw,h,upper,,,,,,,4,nw,LoDemTar,h,1,0.5500199859961867,,,,351,2023-11-14_10h14.28.234,leap3,2022.2.5,60.08469603243979,
,,,,,,,,,,,,,,,,,,,,5,0,5,0,5,0,5,0,,,,,,sustain,w,g,upper,,,,,,,4,w,LoDemTar,g,1,0.9913330329582095,,,,351,2023-11-14_10h14.28.234,leap3,2022.2.5,60.08469603243979,
,,,,,,,,,,,,,,,,,,,,5,0,5,0,6,0,6,0,,,,,,buttress,w,g,upper,,,,,,,4,w,LoDemTar,h,0,0.7754761334508657,,,,351,2023-11-14_10h14.28.234,leap3,2022.2.5,60.08469603243979,
,,,,,,,,,,,,,,,,,,,,5,0,5,0,7,0,7,0,,,,,,owner,w,g,upper,,,,,,,4,w,LoDemTar,g,1,0.4068471575155854,,,,351,2023-11-14_10h14.28.234,leap3,2022.2.5,60.08469603243979,
,,,,,,,,,,,,,,,,,,,,5,0,5,0,8,0,8,0,,,,,,dorth,nw,h,upper,,,,,,,4,nw,LoDemTar,h,1,0.5813668025657535,,,,351,2023-11-14_10h14.28.234,leap3,2022.2.5,60.08469603243979,
,,,,,,,,,,,,,,,,,,,,5,0,5,0,9,0,9,0,,,,,,pamine,nw,h,upper,,,,,,,4,nw,LoDemTar,h,1,0.5333901848644018,,,,351,2023-11-14_10h14.28.234,leap3,2022.2.5,60.08469603243979,
,,,,,,,,,,,,,,,,,,,,5,0,5,0,10,0,10,0,,,,,,eightiech,nw,h,upper,,,,,,,4,nw,LoDemTar,h,1,0.5833610873669386,,,,351,2023-11-14_10h14.28.234,leap3,2022.2.5,60.08469603243979,
,,,,,,,,,,,,,,,,,,,,5,0,5,0,11,0,11,0,,,,,,forecast,w,g,upper,,,,,,,4,w,LoDemTar,g,1,0.6153052523732185,,,,351,2023-11-14_10h14.28.234,leap3,2022.2.5,60.08469603243979,
,,,,,,,,,,,,,,,,,,,,5,0,5,0,12,0,12,0,,,,,,geborn,nw,h,upper,,,,,,,4,nw,LoDemTar,h,1,0.8860171949490905,,,,351,2023-11-14_10h14.28.234,leap3,2022.2.5,60.08469603243979,
,,,,,,,,,,,,,,,,,,,,5,0,5,0,13,0,13,0,,,,,,picnic,w,g,upper,,,,,,,4,w,LoDemTar,g,1,0.7293389532715082,,,,351,2023-11-14_10h14.28.234,leap3,2022.2.5,60.08469603243979,
,,,,,,,,,,,,,,,,,,,,5,0,5,0,14,0,14,0,,,,,,gewer,nw,h,upper,,,,,,,4,nw,LoDemTar,h,1,0.5713322963565588,,,,351,2023-11-14_10h14.28.234,leap3,2022.2.5,60.08469603243979,
,,,,,,,,,,,,,,,,,,,,5,0,5,0,15,0,15,0,,,,,,baladroit,nw,h,upper,,,,,,,4,nw,LoDemTar,h,1,0.5952335232868791,,,,351,2023-11-14_10h14.28.234,leap3,2022.2.5,60.08469603243979,
,,,,,,,,,,,,,,,,,,,,5,0,5,0,16,0,16,0,,,,,,gumdrep,nw,h,upper,,,,,,,4,nw,LoDemTar,g,0,0.5855135377496481,,,,351,2023-11-14_10h14.28.234,leap3,2022.2.5,60.08469603243979,
,,,,,,,,,,,,,,,,,,,,5,0,5,0,17,0,17,0,,,,,,giving,w,g,upper,,,,,,,4,w,LoDemTar,g,1,0.5848893243819475,,,,351,2023-11-14_10h14.28.234,leap3,2022.2.5,60.08469603243979,
,,,,,,,,,,,,,,,,,,,,5,0,5,0,18,0,18,0,,,,,,sequence,w,g,upper,,,,,,,4,w,LoDemTar,g,1,0.48815129324793816,,,,351,2023-11-14_10h14.28.234,leap3,2022.2.5,60.08469603243979,
,,,,,,,,,,,,,,,,,,,,5,0,5,0,19,0,19,0,,,,,,classify,w,g,upper,,,,,,,4,w,LoDemTar,g,1,0.45950809493660927,,,,351,2023-11-14_10h14.28.234,leap3,2022.2.5,60.08469603243979,
,,,,,,,,,,,,,,,,,,,,5,0,5,0,20,0,20,0,,,,,,maroon,w,g,upper,,,,,,,4,w,LoDemTar,g,1,0.5440984079614282,,,,351,2023-11-14_10h14.28.234,leap3,2022.2.5,60.08469603243979,
,,,,,,,,,,,,,,,,,,,,5,0,5,0,21,0,21,0,,,,,,paterways,nw,h,upper,,,,,,,4,nw,LoDemTar,h,1,0.6174124274402857,,,,351,2023-11-14_10h14.28.234,leap3,2022.2.5,60.08469603243979,
,,,,,,,,,,,,,,,,,,,,5,0,5,0,22,0,22,0,,,,,,melodic,w,g,upper,,,,,,,4,w,LoDemTar,h,0,0.7274165078997612,,,,351,2023-11-14_10h14.28.234,leap3,2022.2.5,60.08469603243979,
,,,,,,,,,,,,,,,,,,,,5,0,5,0,23,0,23,0,,,,,,fetching,w,g,upper,,,,,,,4,w,LoDemTar,g,1,0.5454289363697171,,,,351,2023-11-14_10h14.28.234,leap3,2022.2.5,60.08469603243979,
,,,,,,,,,,,,,,,,,,,,5,0,5,0,24,0,24,0,,,,,,fullity,nw,h,upper,,,,,,,4,nw,LoDemTar,h,1,0.7467134045436978,,,,351,2023-11-14_10h14.28.234,leap3,2022.2.5,60.08469603243979,
,,,,,,,,,,,,,,,,,,,,5,0,5,0,25,0,25,0,,,,,,lizard,target,q,upper,,,,,,,4,target,LoDemTar,q,1,0.7711205221712589,,1,,351,2023-11-14_10h14.28.234,leap3,2022.2.5,60.08469603243979,
,,,,,,,,,,,,,,,,,,,,5,0,5,0,26,0,26,0,,,,,,rudder,w,g,upper,,,,,,,4,aftertar1,LoDemTar,h,0,0.6830375706776977,,,,351,2023-11-14_10h14.28.234,leap3,2022.2.5,60.08469603243979,
,,,,,,,,,,,,,,,,,,,,5,0,5,0,27,0,27,0,,,,,,migmarole,nw,h,upper,,,,,,,4,aftertar2,LoDemTar,h,1,0.6629999494180083,,,,351,2023-11-14_10h14.28.234,leap3,2022.2.5,60.08469603243979,
,,,,,,,,,,,,,,,,,,,,5,0,5,0,28,0,28,0,,,,,,elalt,nw,h,upper,,,,,,,4,aftertar3,LoDemTar,h,1,0.706361067481339,,,,351,2023-11-14_10h14.28.234,leap3,2022.2.5,60.08469603243979,
,,,,,,,,,,,,,,,,,,,,5,0,5,0,29,0,29,0,,,,,,deadly,w,g,upper,,,,,,,4,nw,LoDemTar,g,1,0.5330264624208212,,,,351,2023-11-14_10h14.28.234,leap3,2022.2.5,60.08469603243979,
,,,,,,,,,,,,,,,,,,,,5,0,5,0,,,,,,,,,,,,,,,,,,,,,,,,,,1,,,351,2023-11-14_10h14.28.234,leap3,2022.2.5,60.08469603243979,
,,,,,,,,,,,,,,,,,,,,6,0,6,0,0,0,0,0,,,,,,latirizes,nw,h,lower,,,,,,,1,nw,HiDemTar,h,1,0.8385769538581371,,,,351,2023-11-14_10h14.28.234,leap3,2022.2.5,60.08469603243979,
,,,,,,,,,,,,,,,,,,,,6,0,6,0,1,0,1,0,,,,,,chraps,nw,h,lower,,,,,,,1,nw,HiDemTar,h,1,0.5310925468802452,,,,351,2023-11-14_10h14.28.234,leap3,2022.2.5,60.08469603243979,
,,,,,,,,,,,,,,,,,,,,6,0,6,0,2,0,2,0,,,,,,offonents,nw,h,lower,,,,,,,1,nw,HiDemTar,h,1,0.5246747368946671,,,,351,2023-11-14_10h14.28.234,leap3,2022.2.5,60.08469603243979,
,,,,,,,,,,,,,,,,,,,,6,0,6,0,3,0,3,0,,,,,,tibs,nw,h,lower,,,,,,,1,nw,HiDemTar,h,1,0.49503182992339134,,,,351,2023-11-14_10h14.28.234,leap3,2022.2.5,60.08469603243979,
,,,,,,,,,,,,,,,,,,,,6,0,6,0,4,0,4,0,,,,,,mestowal,nw,h,lower,,,,,,,1,nw,HiDemTar,h,1,0.6103661777451634,,,,351,2023-11-14_10h14.28.234,leap3,2022.2.5,60.08469603243979,
,,,,,,,,,,,,,,,,,,,,6,0,6,0,5,0,5,0,,,,,,tuckel,nw,h,lower,,,,,,,1,nw,HiDemTar,h,1,0.8169706482440233,,,,351,2023-11-14_10h14.28.234,leap3,2022.2.5,60.08469603243979,
,,,,,,,,,,,,,,,,,,,,6,0,6,0,6,0,6,0,,,,,,number,w,g,lower,,,,,,,1,w,HiDemTar,g,1,0.5436127400025725,,,,351,2023-11-14_10h14.28.234,leap3,2022.2.5,60.08469603243979,
,,,,,,,,,,,,,,,,,,,,6,0,6,0,7,0,7,0,,,,,,natch,nw,h,lower,,,,,,,1,nw,HiDemTar,h,1,0.7289999816566706,,,,351,2023-11-14_10h14.28.234,leap3,2022.2.5,60.08469603243979,
,,,,,,,,,,,,,,,,,,,,6,0,6,0,8,0,8,0,,,,,,hangar,w,g,lower,,,,,,,1,w,HiDemTar,h,0,0.9309297930449247,,,,351,2023-11-14_10h14.28.234,leap3,2022.2.5,60.08469603243979,
,,,,,,,,,,,,,,,,,,,,6,0,6,0,9,0,9,0,,,,,,burrowing,w,g,lower,,,,,,,1,w,HiDemTar,g,1,0.7399943536147475,,,,351,2023-11-14_10h14.28.234,leap3,2022.2.5,60.08469603243979,
,,,,,,,,,,,,,,,,,,,,6,0,6,0,10,0,10,0,,,,,,curricula,w,g,lower,,,,,,,1,w,HiDemTar,h,0,0.5502327857539058,,,,351,2023-11-14_10h14.28.234,leap3,2022.2.5,60.08469603243979,
,,,,,,,,,,,,,,,,,,,,6,0,6,0,11,0,11,0,,,,,,cessation,w,g,lower,,,,,,,1,w,HiDemTar,h,0,0.5665187872946262,,,,351,2023-11-14_10h14.28.234,leap3,2022.2.5,60.08469603243979,
,,,,,,,,,,,,,,,,,,,,6,0,6,0,12,0,12,0,,,,,,birn,nw,h,lower,,,,,,,1,nw,HiDemTar,h,1,0.5831331945955753,,,,351,2023-11-14_10h14.28.234,leap3,2022.2.5,60.08469603243979,
,,,,,,,,,,,,,,,,,,,,6,0,6,0,13,0,13,0,,,,,,intended,w,g,lower,,,,,,,1,w,HiDemTar,g,1,0.6151009043678641,,,,351,2023-11-14_10h14.28.234,leap3,2022.2.5,60.08469603243979,
,,,,,,,,,,,,,,,,,,,,6,0,6,0,14,0,14,0,,,,,,monkey,target,q,lower,,,,,,,1,target,HiDemTar,q,1,0.5177151160314679,,1,,351,2023-11-14_10h14.28.234,leap3,2022.2.5,60.08469603243979,
,,,,,,,,,,,,,,,,,,,,6,0,6,0,15,0,15,0,,,,,,facienda,nw,h,lower,,,,,,,1,aftertar1,HiDemTar,h,1,0.6557206753641367,,,,351,2023-11-14_10h14.28.234,leap3,2022.2.5,60.08469603243979,
,,,,,,,,,,,,,,,,,,,,6,0,6,0,16,0,16,0,,,,,,irregular,w,g,lower,,,,,,,1,aftertar2,HiDemTar,g,1,0.5244208853691816,,,,351,2023-11-14_10h14.28.234,leap3,2022.2.5,60.08469603243979,
,,,,,,,,,,,,,,,,,,,,6,0,6,0,17,0,17,0,,,,,,stelled,nw,h,lower,,,,,,,1,aftertar3,HiDemTar,h,1,0.5583985764533281,,,,351,2023-11-14_10h14.28.234,leap3,2022.2.5,60.08469603243979,
,,,,,,,,,,,,,,,,,,,,6,0,6,0,18,0,18,0,,,,,,fuestion,nw,h,lower,,,,,,,1,nw,HiDemTar,h,1,0.5750229442492127,,,,351,2023-11-14_10h14.28.234,leap3,2022.2.5,60.08469603243979,
,,,,,,,,,,,,,,,,,,,,6,0,6,0,19,0,19,0,,,,,,persona,w,g,lower,,,,,,,1,nw,HiDemTar,g,1,1.3642140859737992,,,,351,2023-11-14_10h14.28.234,leap3,2022.2.5,60.08469603243979,
,,,,,,,,,,,,,,,,,,,,6,0,6,0,20,0,20,0,,,,,,colicky,w,g,lower,,,,,,,1,w,HiDemTar,h,0,0.5724853407591581,,,,351,2023-11-14_10h14.28.234,leap3,2022.2.5,60.08469603243979,
,,,,,,,,,,,,,,,,,,,,6,0,6,0,21,0,21,0,,,,,,vinegar,w,g,lower,,,,,,,1,w,HiDemTar,g,1,0.47638148441910744,,,,351,2023-11-14_10h14.28.234,leap3,2022.2.5,60.08469603243979,
,,,,,,,,,,,,,,,,,,,,6,0,6,0,22,0,22,0,,,,,,serving,w,g,lower,,,,,,,1,w,HiDemTar,g,1,0.5359172243624926,,,,351,2023-11-14_10h14.28.234,leap3,2022.2.5,60.08469603243979,
,,,,,,,,,,,,,,,,,,,,6,0,6,0,23,0,23,0,,,,,,kickoff,w,g,lower,,,,,,,1,w,HiDemTar,g,1,0.40058509912341833,,,,351,2023-11-14_10h14.28.234,leap3,2022.2.5,60.08469603243979,
,,,,,,,,,,,,,,,,,,,,6,0,6,0,24,0,24,0,,,,,,daylight,w,g,lower,,,,,,,1,w,HiDemTar,g,1,0.35111737065017223,,,,351,2023-11-14_10h14.28.234,leap3,2022.2.5,60.08469603243979,
,,,,,,,,,,,,,,,,,,,,6,0,6,0,25,0,25,0,,,,,,cobalt,w,g,lower,,,,,,,1,w,HiDemTar,h,0,0.45583163294941187,,,,351,2023-11-14_10h14.28.234,leap3,2022.2.5,60.08469603243979,
,,,,,,,,,,,,,,,,,,,,6,0,6,0,26,0,26,0,,,,,,volder,nw,h,lower,,,,,,,1,w,HiDemTar,g,0,0.29977337922900915,,,,351,2023-11-14_10h14.28.234,leap3,2022.2.5,60.08469603243979,
,,,,,,,,,,,,,,,,,,,,6,0,6,0,27,0,27,0,,,,,,veclors,nw,h,lower,,,,,,,1,nw,HiDemTar,h,1,0.6944783693179488,,,,351,2023-11-14_10h14.28.234,leap3,2022.2.5,60.08469603243979,
,,,,,,,,,,,,,,,,,,,,6,0,6,0,28,0,28,0,,,,,,vaporize,w,g,lower,,,,,,,1,nw,HiDemTar,g,1,0.33780393097549677,,,,351,2023-11-14_10h14.28.234,leap3,2022.2.5,60.08469603243979,
,,,,,,,,,,,,,,,,,,,,6,0,6,0,29,0,29,0,,,,,,ubefully,nw,h,lower,,,,,,,1,w,HiDemTar,h,1,0.49910974502563477,,,,351,2023-11-14_10h14.28.234,leap3,2022.2.5,60.08469603243979,
,,,,,,,,,,,,,,,,,,,,6,0,6,0,,,,,,,,,,,,,,,,,,,,,,,,,,1,,,351,2023-11-14_10h14.28.234,leap3,2022.2.5,60.08469603243979,
,,,,,,,,,,,,,,,,,,,,7,0,7,0,0,0,0,0,,,,,,sengry,nw,h,lower,,,,,,,1,nw,HiDemTar,q,0,0.5812699105590582,,,,351,2023-11-14_10h14.28.234,leap3,2022.2.5,60.08469603243979,
,,,,,,,,,,,,,,,,,,,,7,0,7,0,1,0,1,0,,,,,,fashing,nw,h,lower,,,,,,,1,nw,HiDemTar,h,1,0.7332662474364042,,,,351,2023-11-14_10h14.28.234,leap3,2022.2.5,60.08469603243979,
,,,,,,,,,,,,,,,,,,,,7,0,7,0,2,0,2,0,,,,,,peadgear,nw,h,lower,,,,,,,1,nw,HiDemTar,h,1,0.6232066275551915,,,,351,2023-11-14_10h14.28.234,leap3,2022.2.5,60.08469603243979,
,,,,,,,,,,,,,,,,,,,,7,0,7,0,3,0,3,0,,,,,,carony,nw,h,lower,,,,,,,1,nw,HiDemTar,h,1,0.5812140693888068,,,,351,2023-11-14_10h14.28.234,leap3,2022.2.5,60.08469603243979,
,,,,,,,,,,,,,,,,,,,,7,0,7,0,4,0,4,0,,,,,,harder,w,g,lower,,,,,,,1,w,HiDemTar,g,1,0.5402770610526204,,,,351,2023-11-14_10h14.28.234,leap3,2022.2.5,60.08469603243979,
,,,,,,,,,,,,,,,,,,,,7,0,7,0,5,0,5,0,,,,,,castaway,w,g,lower,,,,,,,1,w,HiDemTar,g,1,0.7176237786188722,,,,351,2023-11-14_10h14.28.234,leap3,2022.2.5,60.08469603243979,
,,,,,,,,,,,,,,,,,,,,7,0,7,0,6,0,6,0,,,,,,nopping,nw,h,lower,,,,,,,1,nw,HiDemTar,h,1,0.6234767781570554,,,,351,2023-11-14_10h14.28.234,leap3,2022.2.5,60.08469603243979,
,,,,,,,,,,,,,,,,,,,,7,0,7,0,7,0,7,0,,,,,,fisco,nw,h,lower,,,,,,,1,nw,HiDemTar,h,1,0.8294410370290279,,,,351,2023-11-14_10h14.28.234,leap3,2022.2.5,60.08469603243979,
,,,,,,,,,,,,,,,,,,,,7,0,7,0,8,0,8,0,,,,,,gallon,w,g,lower,,,,,,,1,w,HiDemTar,g,1,0.6354391630738974,,,,351,2023-11-14_10h14.28.234,leap3,2022.2.5,60.08469603243979,
,,,,,,,,,,,,,,,,,,,,7,0,7,0,9,0,9,0,,,,,,insole,w,g,lower,,,,,,,1,w,HiDemTar,g,1,0.7687220685184002,,,,351,2023-11-14_10h14.28.234,leap3,2022.2.5,60.08469603243979,
,,,,,,,,,,,,,,,,,,,,7,0,7,0,10,0,10,0,,,,,,calming,w,g,lower,,,,,,,1,w,HiDemTar,g,1,0.44754993449896574,,,,351,2023-11-14_10h14.28.234,leap3,2022.2.5,60.08469603243979,
,,,,,,,,,,,,,,,,,,,,7,0,7,0,11,0,11,0,,,,,,etcess,nw,h,lower,,,,,,,1,nw,HiDemTar,h,1,0.6042656050994992,,,,351,2023-11-14_10h14.28.234,leap3,2022.2.5,60.08469603243979,
,,,,,,,,,,,,,,,,,,,,7,0,7,0,12,0,12,0,,,,,,elephant,target,q,lower,,,,,,,1,target,HiDemTar,g,0,0.4350016703829169,,,,351,2023-11-14_10h14.28.234,leap3,2022.2.5,60.08469603243979,
,,,,,,,,,,,,,,,,,,,,7,0,7,0,13,0,13,0,,,,,,egect,nw,h,lower,,,,,,,1,aftertar1,HiDemTar,h,1,0.7438129838556051,,,,351,2023-11-14_10h14.28.234,leap3,2022.2.5,60.08469603243979,
,,,,,,,,,,,,,,,,,,,,7,0,7,0,14,0,14,0,,,,,,wrestle,w,g,lower,,,,,,,1,aftertar2,HiDemTar,g,1,0.5373078202828765,,,,351,2023-11-14_10h14.28.234,leap3,2022.2.5,60.08469603243979,
,,,,,,,,,,,,,,,,,,,,7,0,7,0,15,0,15,0,,,,,,otoist,nw,h,lower,,,,,,,1,aftertar3,HiDemTar,h,1,0.5848920410498977,,,,351,2023-11-14_10h14.28.234,leap3,2022.2.5,60.08469603243979,
,,,,,,,,,,,,,,,,,,,,7,0,7,0,16,0,16,0,,,,,,carnival,w,g,lower,,,,,,,1,nw,HiDemTar,q,0,0.5851845275610685,,,,351,2023-11-14_10h14.28.234,leap3,2022.2.5,60.08469603243979,
,,,,,,,,,,,,,,,,,,,,7,0,7,0,17,0,17,0,,,,,,befin,nw,h,lower,,,,,,,1,w,HiDemTar,h,1,0.5355550106614828,,,,351,2023-11-14_10h14.28.234,leap3,2022.2.5,60.08469603243979,
,,,,,,,,,,,,,,,,,,,,7,0,7,0,18,0,18,0,,,,,,implode,w,g,lower,,,,,,,1,nw,HiDemTar,g,1,0.5769378431141376,,,,351,2023-11-14_10h14.28.234,leap3,2022.2.5,60.08469603243979,
,,,,,,,,,,,,,,,,,,,,7,0,7,0,19,0,19,0,,,,,,tinker,w,g,lower,,,,,,,1,w,HiDemTar,h,0,0.8488345239311457,,,,351,2023-11-14_10h14.28.234,leap3,2022.2.5,60.08469603243979,
,,,,,,,,,,,,,,,,,,,,7,0,7,0,20,0,20,0,,,,,,snorls,nw,h,lower,,,,,,,1,w,HiDemTar,g,0,0.8294917466118932,,,,351,2023-11-14_10h14.28.234,leap3,2022.2.5,60.08469603243979,
,,,,,,,,,,,,,,,,,,,,7,0,7,0,21,0,21,0,,,,,,efficient,w,g,lower,,,,,,,1,nw,HiDemTar,h,0,0.4667131146416068,,,,351,2023-11-14_10h14.28.234,leap3,2022.2.5,60.08469603243979,
,,,,,,,,,,,,,,,,,,,,7,0,7,0,22,0,22,0,,,,,,grolific,nw,h,lower,,,,,,,1,w,HiDemTar,g,0,0.774718202650547,,,,351,2023-11-14_10h14.28.234,leap3,2022.2.5,60.08469603243979,
,,,,,,,,,,,,,,,,,,,,7,0,7,0,23,0,23,0,,,,,,serfume,nw,h,lower,,,,,,,1,nw,HiDemTar,h,1,0.622100368142128,,,,351,2023-11-14_10h14.28.234,leap3,2022.2.5,60.08469603243979,
,,,,,,,,,,,,,,,,,,,,7,0,7,0,24,0,24,0,,,,,,lofty,w,g,lower,,,,,,,1,nw,HiDemTar,g,1,0.8503244258463383,,,,351,2023-11-14_10h14.28.234,leap3,2022.2.5,60.08469603243979,
,,,,,,,,,,,,,,,,,,,,7,0,7,0,25,0,25,0,,,,,,puyer,nw,h,lower,,,,,,,1,w,HiDemTar,h,1,0.6149907317012548,,,,351,2023-11-14_10h14.28.234,leap3,2022.2.5,60.08469603243979,
,,,,,,,,,,,,,,,,,,,,7,0,7,0,26,0,26,0,,,,,,function,w,g,lower,,,,,,,1,nw,HiDemTar,g,1,0.492988346144557,,,,351,2023-11-14_10h14.28.234,leap3,2022.2.5,60.08469603243979,
,,,,,,,,,,,,,,,,,,,,7,0,7,0,27,0,27,0,,,,,,fomrade,nw,h,lower,,,,,,,1,w,HiDemTar,h,1,0.5356045132502913,,,,351,2023-11-14_10h14.28.234,leap3,2022.2.5,60.08469603243979,
,,,,,,,,,,,,,,,,,,,,7,0,7,0,28,0,28,0,,,,,,skiing,w,g,lower,,,,,,,1,nw,HiDemTar,g,1,0.8169039404019713,,,,351,2023-11-14_10h14.28.234,leap3,2022.2.5,60.08469603243979,
,,,,,,,,,,,,,,,,,,,,7,0,7,0,29,0,29,0,,,,,,suspect,w,g,lower,,,,,,,1,w,HiDemTar,g,1,0.48694602865725756,,,,351,2023-11-14_10h14.28.234,leap3,2022.2.5,60.08469603243979,
,,,,,,,,,,,,,,,,,,,,7,0,7,0,,,,,,,,,,,,,,,,,,,,,,,,,,0,,,351,2023-11-14_10h14.28.234,leap3,2022.2.5,60.08469603243979,
,,,,,,,,,,,,,,,,,,,,8,0,8,0,0,0,0,0,,,,,,filny,nw,h,upper,,,,,,,3,nw,LoDemNoTar,h,1,0.6398645006120205,,,,351,2023-11-14_10h14.28.234,leap3,2022.2.5,60.08469603243979,
,,,,,,,,,,,,,,,,,,,,8,0,8,0,1,0,1,0,,,,,,visible,w,g,upper,,,,,,,3,w,LoDemNoTar,g,1,0.4445375306531787,,,,351,2023-11-14_10h14.28.234,leap3,2022.2.5,60.08469603243979,
,,,,,,,,,,,,,,,,,,,,8,0,8,0,2,0,2,0,,,,,,portify,nw,h,upper,,,,,,,3,nw,LoDemNoTar,g,0,0.7297256151214242,,,,351,2023-11-14_10h14.28.234,leap3,2022.2.5,60.08469603243979,
,,,,,,,,,,,,,,,,,,,,8,0,8,0,3,0,3,0,,,,,,movie,w,g,upper,,,,,,,3,w,LoDemNoTar,g,1,0.4197742370888591,,,,351,2023-11-14_10h14.28.234,leap3,2022.2.5,60.08469603243979,
,,,,,,,,,,,,,,,,,,,,8,0,8,0,4,0,4,0,,,,,,enabled,w,g,upper,,,,,,,3,w,LoDemNoTar,g,1,0.4409953895956278,,,,351,2023-11-14_10h14.28.234,leap3,2022.2.5,60.08469603243979,
,,,,,,,,,,,,,,,,,,,,8,0,8,0,5,0,5,0,,,,,,system,w,g,upper,,,,,,,3,w,LoDemNoTar,g,1,0.38956657983362675,,,,351,2023-11-14_10h14.28.234,leap3,2022.2.5,60.08469603243979,
,,,,,,,,,,,,,,,,,,,,8,0,8,0,6,0,6,0,,,,,,vivid,w,g,upper,,,,,,,3,w,LoDemNoTar,g,1,0.5243378784507513,,,,351,2023-11-14_10h14.28.234,leap3,2022.2.5,60.08469603243979,
,,,,,,,,,,,,,,,,,,,,8,0,8,0,7,0,7,0,,,,,,tinion,nw,h,upper,,,,,,,3,nw,LoDemNoTar,h,1,0.6295329788699746,,,,351,2023-11-14_10h14.28.234,leap3,2022.2.5,60.08469603243979,
,,,,,,,,,,,,,,,,,,,,8,0,8,0,8,0,8,0,,,,,,minister,w,g,upper,,,,,,,3,w,LoDemNoTar,g,1,0.4429902769625187,,,,351,2023-11-14_10h14.28.234,leap3,2022.2.5,60.08469603243979,
,,,,,,,,,,,,,,,,,,,,8,0,8,0,9,0,9,0,,,,,,schides,nw,h,upper,,,,,,,3,nw,LoDemNoTar,h,1,0.9344885358586907,,,,351,2023-11-14_10h14.28.234,leap3,2022.2.5,60.08469603243979,
,,,,,,,,,,,,,,,,,,,,8,0,8,0,10,0,10,0,,,,,,martial,w,g,upper,,,,,,,3,w,LoDemNoTar,g,1,0.5998155176639557,,,,351,2023-11-14_10h14.28.234,leap3,2022.2.5,60.08469603243979,
,,,,,,,,,,,,,,,,,,,,8,0,8,0,11,0,11,0,,,,,,saucer,w,g,upper,,,,,,,3,w,LoDemNoTar,h,0,0.566408614628017,,,,351,2023-11-14_10h14.28.234,leap3,2022.2.5,60.08469603243979,
,,,,,,,,,,,,,,,,,,,,8,0,8,0,12,0,12,0,,,,,,phraining,nw,h,upper,,,,,,,3,nw,LoDemNoTar,h,1,1.0144084133207798,,,,351,2023-11-14_10h14.28.234,leap3,2022.2.5,60.08469603243979,
,,,,,,,,,,,,,,,,,,,,8,0,8,0,13,0,13,0,,,,,,clarms,nw,h,upper,,,,,,,3,nw,LoDemNoTar,h,1,0.9724581139162183,,,,351,2023-11-14_10h14.28.234,leap3,2022.2.5,60.08469603243979,
,,,,,,,,,,,,,,,,,,,,8,0,8,0,14,0,14,0,,,,,,slogan,w,g,upper,,,,,,,3,w,LoDemNoTar,g,1,0.9236562540754676,,,,351,2023-11-14_10h14.28.234,leap3,2022.2.5,60.08469603243979,
,,,,,,,,,,,,,,,,,,,,8,0,8,0,15,0,15,0,,,,,,prohibit,w,g,upper,,,,,,,3,w,LoDemNoTar,g,1,0.5250408733263612,,,,351,2023-11-14_10h14.28.234,leap3,2022.2.5,60.08469603243979,
,,,,,,,,,,,,,,,,,,,,8,0,8,0,16,0,16,0,,,,,,official,w,g,upper,,,,,,,3,w,LoDemNoTar,g,1,0.46143204905092716,,,,351,2023-11-14_10h14.28.234,leap3,2022.2.5,60.08469603243979,
,,,,,,,,,,,,,,,,,,,,8,0,8,0,17,0,17,0,,,,,,micron,w,g,upper,,,,,,,3,w,LoDemNoTar,g,1,0.5542430877685547,,,,351,2023-11-14_10h14.28.234,leap3,2022.2.5,60.08469603243979,
,,,,,,,,,,,,,,,,,,,,8,0,8,0,18,0,18,0,,,,,,lignpost,nw,h,upper,,,,,,,3,nw,LoDemNoTar,h,1,0.5292666917666793,,,,351,2023-11-14_10h14.28.234,leap3,2022.2.5,60.08469603243979,
,,,,,,,,,,,,,,,,,,,,8,0,8,0,19,0,19,0,,,,,,gures,nw,h,upper,,,,,,,3,nw,LoDemNoTar,h,1,0.682547677308321,,,,351,2023-11-14_10h14.28.234,leap3,2022.2.5,60.08469603243979,
,,,,,,,,,,,,,,,,,,,,8,0,8,0,20,0,20,0,,,,,,bedding,w,g,upper,,,,,,,3,w,LoDemNoTar,g,1,0.5818790327757597,,,,351,2023-11-14_10h14.28.234,leap3,2022.2.5,60.08469603243979,
,,,,,,,,,,,,,,,,,,,,8,0,8,0,21,0,21,0,,,,,,ilterfere,nw,h,upper,,,,,,,3,nw,LoDemNoTar,h,1,0.5892222970724106,,,,351,2023-11-14_10h14.28.234,leap3,2022.2.5,60.08469603243979,
,,,,,,,,,,,,,,,,,,,,8,0,8,0,22,0,22,0,,,,,,dishwater,w,g,upper,,,,,,,3,w,LoDemNoTar,g,1,0.6838902793824673,,,,351,2023-11-14_10h14.28.234,leap3,2022.2.5,60.08469603243979,
,,,,,,,,,,,,,,,,,,,,8,0,8,0,23,0,23,0,,,,,,decency,w,g,upper,,,,,,,3,w,LoDemNoTar,g,1,0.5431626914069057,,,,351,2023-11-14_10h14.28.234,leap3,2022.2.5,60.08469603243979,
,,,,,,,,,,,,,,,,,,,,8,0,8,0,24,0,24,0,,,,,,kiner,nw,h,upper,,,,,,,3,nw,LoDemNoTar,h,1,0.6158141624182463,,,,351,2023-11-14_10h14.28.234,leap3,2022.2.5,60.08469603243979,
,,,,,,,,,,,,,,,,,,,,8,0,8,0,25,0,25,0,,,,,,shimble,nw,h,upper,,,,,,,3,nw,LoDemNoTar,h,1,0.5565748335793614,,,,351,2023-11-14_10h14.28.234,leap3,2022.2.5,60.08469603243979,
,,,,,,,,,,,,,,,,,,,,8,0,8,0,26,0,26,0,,,,,,ragtam,nw,h,upper,,,,,,,3,nw,LoDemNoTar,h,1,0.523902015760541,,,,351,2023-11-14_10h14.28.234,leap3,2022.2.5,60.08469603243979,
,,,,,,,,,,,,,,,,,,,,8,0,8,0,27,0,27,0,,,,,,drobate,nw,h,upper,,,,,,,3,nw,LoDemNoTar,h,1,0.541795639321208,,,,351,2023-11-14_10h14.28.234,leap3,2022.2.5,60.08469603243979,
,,,,,,,,,,,,,,,,,,,,8,0,8,0,28,0,28,0,,,,,,moyeur,nw,h,upper,,,,,,,3,nw,LoDemNoTar,h,1,0.5267142979428172,,,,351,2023-11-14_10h14.28.234,leap3,2022.2.5,60.08469603243979,
,,,,,,,,,,,,,,,,,,,,8,0,8,0,29,0,29,0,,,,,,eaglot,nw,h,upper,,,,,,,3,nw,LoDemNoTar,h,1,0.5359588777646422,,,,351,2023-11-14_10h14.28.234,leap3,2022.2.5,60.08469603243979,
,,,,,,,,,,,,,,,,,,,,8,0,8,0,,,,,,,,,,,,,,,,,,,,,,,,,,NA,,,351,2023-11-14_10h14.28.234,leap3,2022.2.5,60.08469603243979,
,,,,,,,,,,,,,,,,,,,,9,0,9,0,0,0,0,0,,,,,,nollow,nw,h,upper,,,,,,,3,nw,LoDemNoTar,h,1,0.5772155402228236,,,,351,2023-11-14_10h14.28.234,leap3,2022.2.5,60.08469603243979,
,,,,,,,,,,,,,,,,,,,,9,0,9,0,1,0,1,0,,,,,,glamorous,w,g,upper,,,,,,,3,w,LoDemNoTar,g,1,0.567784721031785,,,,351,2023-11-14_10h14.28.234,leap3,2022.2.5,60.08469603243979,
,,,,,,,,,,,,,,,,,,,,9,0,9,0,2,0,2,0,,,,,,treason,w,g,upper,,,,,,,3,w,LoDemNoTar,g,1,0.6644964916631579,,,,351,2023-11-14_10h14.28.234,leap3,2022.2.5,60.08469603243979,
,,,,,,,,,,,,,,,,,,,,9,0,9,0,3,0,3,0,,,,,,unsmilung,nw,h,upper,,,,,,,3,nw,LoDemNoTar,h,1,0.5074451714754105,,,,351,2023-11-14_10h14.28.234,leap3,2022.2.5,60.08469603243979,
,,,,,,,,,,,,,,,,,,,,9,0,9,0,4,0,4,0,,,,,,slutches,nw,h,upper,,,,,,,3,nw,LoDemNoTar,g,0,0.6374355601146817,,,,351,2023-11-14_10h14.28.234,leap3,2022.2.5,60.08469603243979,
,,,,,,,,,,,,,,,,,,,,9,0,9,0,5,0,5,0,,,,,,sording,nw,h,upper,,,,,,,3,nw,LoDemNoTar,h,1,0.609995512291789,,,,351,2023-11-14_10h14.28.234,leap3,2022.2.5,60.08469603243979,
,,,,,,,,,,,,,,,,,,,,9,0,9,0,6,0,6,0,,,,,,congraks,nw,h,upper,,,,,,,3,nw,LoDemNoTar,h,1,0.53600958827883,,,,351,2023-11-14_10h14.28.234,leap3,2022.2.5,60.08469603243979,
,,,,,,,,,,,,,,,,,,,,9,0,9,0,7,0,7,0,,,,,,huffle,nw,h,upper,,,,,,,3,nw,LoDemNoTar,g,0,0.6006274782121181,,,,351,2023-11-14_10h14.28.234,leap3,2022.2.5,60.08469603243979,
,,,,,,,,,,,,,,,,,,,,9,0,9,0,8,0,8,0,,,,,,deakers,nw,h,upper,,,,,,,3,nw,LoDemNoTar,h,1,0.6553394459187984,,,,351,2023-11-14_10h14.28.234,leap3,2022.2.5,60.08469603243979,
,,,,,,,,,,,,,,,,,,,,9,0,9,0,9,0,9,0,,,,,,volume,w,g,upper,,,,,,,3,w,LoDemNoTar,g,1,0.49933401495218277,,,,351,2023-11-14_10h14.28.234,leap3,2022.2.5,60.08469603243979,
,,,,,,,,,,,,,,,,,,,,9,0,9,0,10,0,10,0,,,,,,guivers,nw,h,upper,,,,,,,3,nw,LoDemNoTar,h,1,0.5411868197843432,,,,351,2023-11-14_10h14.28.234,leap3,2022.2.5,60.08469603243979,
,,,,,,,,,,,,,,,,,,,,9,0,9,0,11,0,11,0,,,,,,shurk,nw,h,upper,,,,,,,3,nw,LoDemNoTar,h,1,0.8146084155887365,,,,351,2023-11-14_10h14.28.234,leap3,2022.2.5,60.08469603243979,
,,,,,,,,,,,,,,,,,,,,9,0,9,0,12,0,12,0,,,,,,inducing,w,g,upper,,,,,,,3,w,LoDemNoTar,g,1,0.49962197430431843,,,,351,2023-11-14_10h14.28.234,leap3,2022.2.5,60.08469603243979,
,,,,,,,,,,,,,,,,,,,,9,0,9,0,13,0,13,0,,,,,,neuran,nw,h,upper,,,,,,,3,nw,LoDemNoTar,h,1,0.8222028147429228,,,,351,2023-11-14_10h14.28.234,leap3,2022.2.5,60.08469603243979,
,,,,,,,,,,,,,,,,,,,,9,0,9,0,14,0,14,0,,,,,,single,w,g,upper,,,,,,,3,w,LoDemNoTar,g,1,0.4754581432789564,,,,351,2023-11-14_10h14.28.234,leap3,2022.2.5,60.08469603243979,
,,,,,,,,,,,,,,,,,,,,9,0,9,0,15,0,15,0,,,,,,unmarked,w,g,upper,,,,,,,3,w,LoDemNoTar,g,1,0.8709292132407427,,,,351,2023-11-14_10h14.28.234,leap3,2022.2.5,60.08469603243979,
,,,,,,,,,,,,,,,,,,,,9,0,9,0,16,0,16,0,,,,,,slending,nw,h,upper,,,,,,,3,nw,LoDemNoTar,h,1,0.7689457349479198,,,,351,2023-11-14_10h14.28.234,leap3,2022.2.5,60.08469603243979,
,,,,,,,,,,,,,,,,,,,,9,0,9,0,17,0,17,0,,,,,,located,w,g,upper,,,,,,,3,w,LoDemNoTar,g,1,0.5695336060598493,,,,351,2023-11-14_10h14.28.234,leap3,2022.2.5,60.08469603243979,
,,,,,,,,,,,,,,,,,,,,9,0,9,0,18,0,18,0,,,,,,target,w,g,upper,,,,,,,3,w,LoDemNoTar,g,1,0.39348149858415127,,,,351,2023-11-14_10h14.28.234,leap3,2022.2.5,60.08469603243979,
,,,,,,,,,,,,,,,,,,,,9,0,9,0,19,0,19,0,,,,,,blanned,nw,h,upper,,,,,,,3,nw,LoDemNoTar,g,0,0.47207416873425245,,,,351,2023-11-14_10h14.28.234,leap3,2022.2.5,60.08469603243979,
,,,,,,,,,,,,,,,,,,,,9,0,9,0,20,0,20,0,,,,,,dominion,w,g,upper,,,,,,,3,w,LoDemNoTar,g,1,0.5706456005573273,,,,351,2023-11-14_10h14.28.234,leap3,2022.2.5,60.08469603243979,
,,,,,,,,,,,,,,,,,,,,9,0,9,0,21,0,21,0,,,,,,sporidic,nw,h,upper,,,,,,,3,nw,LoDemNoTar,h,1,0.7547128777951002,,,,351,2023-11-14_10h14.28.234,leap3,2022.2.5,60.08469603243979,
,,,,,,,,,,,,,,,,,,,,9,0,9,0,22,0,22,0,,,,,,trembles,w,g,upper,,,,,,,3,w,LoDemNoTar,g,1,0.7136463783681393,,,,351,2023-11-14_10h14.28.234,leap3,2022.2.5,60.08469603243979,
,,,,,,,,,,,,,,,,,,,,9,0,9,0,23,0,23,0,,,,,,railroad,w,g,upper,,,,,,,3,w,LoDemNoTar,g,1,0.5316597120836377,,,,351,2023-11-14_10h14.28.234,leap3,2022.2.5,60.08469603243979,
,,,,,,,,,,,,,,,,,,,,9,0,9,0,24,0,24,0,,,,,,combat,w,g,upper,,,,,,,3,w,LoDemNoTar,g,1,0.5890879761427641,,,,351,2023-11-14_10h14.28.234,leap3,2022.2.5,60.08469603243979,
,,,,,,,,,,,,,,,,,,,,9,0,9,0,25,0,25,0,,,,,,decant,w,g,upper,,,,,,,3,w,LoDemNoTar,h,0,0.6677548997104168,,,,351,2023-11-14_10h14.28.234,leap3,2022.2.5,60.08469603243979,
,,,,,,,,,,,,,,,,,,,,9,0,9,0,26,0,26,0,,,,,,acoustic,w,g,upper,,,,,,,3,w,LoDemNoTar,g,1,1.0235745152458549,,,,351,2023-11-14_10h14.28.234,leap3,2022.2.5,60.08469603243979,
,,,,,,,,,,,,,,,,,,,,9,0,9,0,27,0,27,0,,,,,,felevance,nw,h,upper,,,,,,,3,nw,LoDemNoTar,h,1,0.7328949794173241,,,,351,2023-11-14_10h14.28.234,leap3,2022.2.5,60.08469603243979,
,,,,,,,,,,,,,,,,,,,,9,0,9,0,28,0,28,0,,,,,,minimum,w,g,upper,,,,,,,3,w,LoDemNoTar,g,1,0.4781898334622383,,,,351,2023-11-14_10h14.28.234,leap3,2022.2.5,60.08469603243979,
,,,,,,,,,,,,,,,,,,,,9,0,9,0,29,0,29,0,,,,,,gelented,nw,h,upper,,,,,,,3,nw,LoDemNoTar,h,1,0.6405865112319589,,,,351,2023-11-14_10h14.28.234,leap3,2022.2.5,60.08469603243979,
,,,,,,,,,,,,,,,,,,,,9,0,9,0,,,,,,,,,,,,,,,,,,,,,,,,,,NA,,,351,2023-11-14_10h14.28.234,leap3,2022.2.5,60.08469603243979,
,,,,,,,,,,,,,,,,,,,,10,0,10,0,0,0,0,0,,,,,,attract,w,g,lower,,,,,,,1,w,HiDemTar,g,1,0.8296773815527558,,,,351,2023-11-14_10h14.28.234,leap3,2022.2.5,60.08469603243979,
,,,,,,,,,,,,,,,,,,,,10,0,10,0,1,0,1,0,,,,,,veranpah,nw,h,lower,,,,,,,1,nw,HiDemTar,h,1,0.5790160400792956,,,,351,2023-11-14_10h14.28.234,leap3,2022.2.5,60.08469603243979,
,,,,,,,,,,,,,,,,,,,,10,0,10,0,2,0,2,0,,,,,,recollect,w,g,lower,,,,,,,1,w,HiDemTar,g,1,0.5303472941741347,,,,351,2023-11-14_10h14.28.234,leap3,2022.2.5,60.08469603243979,
,,,,,,,,,,,,,,,,,,,,10,0,10,0,3,0,3,0,,,,,,rationale,w,g,lower,,,,,,,1,w,HiDemTar,h,0,0.6116734649986029,,,,351,2023-11-14_10h14.28.234,leap3,2022.2.5,60.08469603243979,
,,,,,,,,,,,,,,,,,,,,10,0,10,0,4,0,4,0,,,,,,affluent,w,g,lower,,,,,,,1,w,HiDemTar,g,1,0.7536416333168745,,,,351,2023-11-14_10h14.28.234,leap3,2022.2.5,60.08469603243979,
,,,,,,,,,,,,,,,,,,,,10,0,10,0,5,0,5,0,,,,,,resent,w,g,lower,,,,,,,1,w,HiDemTar,g,1,0.6007515359669924,,,,351,2023-11-14_10h14.28.234,leap3,2022.2.5,60.08469603243979,
,,,,,,,,,,,,,,,,,,,,10,0,10,0,6,0,6,0,,,,,,presence,w,g,lower,,,,,,,1,w,HiDemTar,g,1,0.5100694037973881,,,,351,2023-11-14_10h14.28.234,leap3,2022.2.5,60.08469603243979,
,,,,,,,,,,,,,,,,,,,,10,0,10,0,7,0,7,0,,,,,,burning,w,g,lower,,,,,,,1,w,HiDemTar,g,1,0.6082958281040192,,,,351,2023-11-14_10h14.28.234,leap3,2022.2.5,60.08469603243979,
,,,,,,,,,,,,,,,,,,,,10,0,10,0,8,0,8,0,,,,,,poyride,nw,h,lower,,,,,,,1,nw,HiDemTar,h,1,0.6629987405613065,,,,351,2023-11-14_10h14.28.234,leap3,2022.2.5,60.08469603243979,
,,,,,,,,,,,,,,,,,,,,10,0,10,0,9,0,9,0,,,,,,addma,nw,h,lower,,,,,,,1,nw,HiDemTar,g,0,0.7951491270214319,,,,351,2023-11-14_10h14.28.234,leap3,2022.2.5,60.08469603243979,
,,,,,,,,,,,,,,,,,,,,10,0,10,0,10,0,10,0,,,,,,puggers,nw,h,lower,,,,,,,1,nw,HiDemTar,h,1,1.1697383178398013,,,,351,2023-11-14_10h14.28.234,leap3,2022.2.5,60.08469603243979,
,,,,,,,,,,,,,,,,,,,,10,0,10,0,11,0,11,0,,,,,,ipiocy,nw,h,lower,,,,,,,1,nw,HiDemTar,h,1,0.5850568478927016,,,,351,2023-11-14_10h14.28.234,leap3,2022.2.5,60.08469603243979,
,,,,,,,,,,,,,,,,,,,,10,0,10,0,12,0,12,0,,,,,,outfit,w,g,lower,,,,,,,1,w,HiDemTar,g,1,0.4963593417778611,,,,351,2023-11-14_10h14.28.234,leap3,2022.2.5,60.08469603243979,
,,,,,,,,,,,,,,,,,,,,10,0,10,0,13,0,13,0,,,,,,ements,nw,h,lower,,,,,,,1,nw,HiDemTar,h,1,0.6030035950243473,,,,351,2023-11-14_10h14.28.234,leap3,2022.2.5,60.08469603243979,
,,,,,,,,,,,,,,,,,,,,10,0,10,0,14,0,14,0,,,,,,glaims,nw,h,lower,,,,,,,1,nw,HiDemTar,h,1,0.5600019721314311,,,,351,2023-11-14_10h14.28.234,leap3,2022.2.5,60.08469603243979,
,,,,,,,,,,,,,,,,,,,,10,0,10,0,15,0,15,0,,,,,,alticles,nw,h,lower,,,,,,,1,nw,HiDemTar,h,1,0.5919742090627551,,,,351,2023-11-14_10h14.28.234,leap3,2022.2.5,60.08469603243979,
,,,,,,,,,,,,,,,,,,,,10,0,10,0,16,0,16,0,,,,,,contusiok,nw,h,lower,,,,,,,1,nw,HiDemTar,h,1,0.5345284389331937,,,,351,2023-11-14_10h14.28.234,leap3,2022.2.5,60.08469603243979,
,,,,,,,,,,,,,,,,,,,,10,0,10,0,17,0,17,0,,,,,,digested,w,g,lower,,,,,,,1,w,HiDemTar,g,1,0.5359407672658563,,,,351,2023-11-14_10h14.28.234,leap3,2022.2.5,60.08469603243979,
,,,,,,,,,,,,,,,,,,,,10,0,10,0,18,0,18,0,,,,,,atch,nw,h,lower,,,,,,,1,nw,HiDemTar,h,1,0.5525648342445493,,,,351,2023-11-14_10h14.28.234,leap3,2022.2.5,60.08469603243979,
,,,,,,,,,,,,,,,,,,,,10,0,10,0,19,0,19,0,,,,,,ladybug,target,q,lower,,,,,,,1,target,HiDemTar,q,1,0.7125355917960405,,1,,351,2023-11-14_10h14.28.234,leap3,2022.2.5,60.08469603243979,
,,,,,,,,,,,,,,,,,,,,10,0,10,0,20,0,20,0,,,,,,angry,w,g,lower,,,,,,,1,aftertar1,HiDemTar,g,1,0.5384020050987601,,,,351,2023-11-14_10h14.28.234,leap3,2022.2.5,60.08469603243979,
,,,,,,,,,,,,,,,,,,,,10,0,10,0,21,0,21,0,,,,,,professor,w,g,lower,,,,,,,1,aftertar2,HiDemTar,g,1,0.44307600148022175,,,,351,2023-11-14_10h14.28.234,leap3,2022.2.5,60.08469603243979,
,,,,,,,,,,,,,,,,,,,,10,0,10,0,22,0,22,0,,,,,,ephically,nw,h,lower,,,,,,,1,aftertar3,HiDemTar,h,1,0.41576393507421017,,,,351,2023-11-14_10h14.28.234,leap3,2022.2.5,60.08469603243979,
,,,,,,,,,,,,,,,,,,,,10,0,10,0,23,0,23,0,,,,,,pypecast,nw,h,lower,,,,,,,1,nw,HiDemTar,h,1,0.4528044378384948,,,,351,2023-11-14_10h14.28.234,leap3,2022.2.5,60.08469603243979,
,,,,,,,,,,,,,,,,,,,,10,0,10,0,24,0,24,0,,,,,,nostril,w,g,lower,,,,,,,1,nw,HiDemTar,g,1,0.5136870061978698,,,,351,2023-11-14_10h14.28.234,leap3,2022.2.5,60.08469603243979,
,,,,,,,,,,,,,,,,,,,,10,0,10,0,25,0,25,0,,,,,,poars,nw,h,lower,,,,,,,1,w,HiDemTar,h,1,0.5067113880068064,,,,351,2023-11-14_10h14.28.234,leap3,2022.2.5,60.08469603243979,
,,,,,,,,,,,,,,,,,,,,10,0,10,0,26,0,26,0,,,,,,lawsuit,w,g,lower,,,,,,,1,nw,HiDemTar,g,1,0.2766844155266881,,,,351,2023-11-14_10h14.28.234,leap3,2022.2.5,60.08469603243979,
,,,,,,,,,,,,,,,,,,,,10,0,10,0,27,0,27,0,,,,,,splatter,w,g,lower,,,,,,,1,w,HiDemTar,h,0,0.3119367929175496,,,,351,2023-11-14_10h14.28.234,leap3,2022.2.5,60.08469603243979,
,,,,,,,,,,,,,,,,,,,,10,0,10,0,28,0,28,0,,,,,,ilcurring,nw,h,lower,,,,,,,1,w,HiDemTar,h,1,0.4739395650103688,,,,351,2023-11-14_10h14.28.234,leap3,2022.2.5,60.08469603243979,
,,,,,,,,,,,,,,,,,,,,10,0,10,0,29,0,29,0,,,,,,alarm,w,g,lower,,,,,,,1,nw,HiDemTar,g,1,0.37335966248065233,,,,351,2023-11-14_10h14.28.234,leap3,2022.2.5,60.08469603243979,
,,,,,,,,,,,,,,,,,,,,10,0,10,0,,,,,,,,,,,,,,,,,,,,,,,,,,1,,,351,2023-11-14_10h14.28.234,leap3,2022.2.5,60.08469603243979,
,,,,,,,,,,,,,,,,,,,,11,0,11,0,0,0,0,0,,,,,,satisfies,w,g,upper,,,,,,,3,w,LoDemNoTar,g,1,0.4372507110238075,,,,351,2023-11-14_10h14.28.234,leap3,2022.2.5,60.08469603243979,
,,,,,,,,,,,,,,,,,,,,11,0,11,0,1,0,1,0,,,,,,elderly,w,g,upper,,,,,,,3,w,LoDemNoTar,g,1,0.5527248112484813,,,,351,2023-11-14_10h14.28.234,leap3,2022.2.5,60.08469603243979,
,,,,,,,,,,,,,,,,,,,,11,0,11,0,2,0,2,0,,,,,,deeper,w,g,upper,,,,,,,3,w,LoDemNoTar,g,1,0.42473232839256525,,,,351,2023-11-14_10h14.28.234,leap3,2022.2.5,60.08469603243979,
,,,,,,,,,,,,,,,,,,,,11,0,11,0,3,0,3,0,,,,,,ifling,nw,h,upper,,,,,,,3,nw,LoDemNoTar,h,1,0.49416131246834993,,,,351,2023-11-14_10h14.28.234,leap3,2022.2.5,60.08469603243979,
,,,,,,,,,,,,,,,,,,,,11,0,11,0,4,0,4,0,,,,,,retain,w,g,upper,,,,,,,3,w,LoDemNoTar,g,1,0.4246586784720421,,,,351,2023-11-14_10h14.28.234,leap3,2022.2.5,60.08469603243979,
,,,,,,,,,,,,,,,,,,,,11,0,11,0,5,0,5,0,,,,,,currowing,nw,h,upper,,,,,,,3,nw,LoDemNoTar,h,1,0.6219056788831949,,,,351,2023-11-14_10h14.28.234,leap3,2022.2.5,60.08469603243979,
,,,,,,,,,,,,,,,,,,,,11,0,11,0,6,0,6,0,,,,,,razelle,nw,h,upper,,,,,,,3,nw,LoDemNoTar,h,1,0.5793036976829171,,,,351,2023-11-14_10h14.28.234,leap3,2022.2.5,60.08469603243979,
,,,,,,,,,,,,,,,,,,,,11,0,11,0,7,0,7,0,,,,,,gelfry,nw,h,upper,,,,,,,3,nw,LoDemNoTar,h,1,0.5626246966421604,,,,351,2023-11-14_10h14.28.234,leap3,2022.2.5,60.08469603243979,
,,,,,,,,,,,,,,,,,,,,11,0,11,0,8,0,8,0,,,,,,selongs,nw,h,upper,,,,,,,3,nw,LoDemNoTar,h,1,0.570575874298811,,,,351,2023-11-14_10h14.28.234,leap3,2022.2.5,60.08469603243979,
,,,,,,,,,,,,,,,,,,,,11,0,11,0,9,0,9,0,,,,,,unwose,nw,h,upper,,,,,,,3,nw,LoDemNoTar,h,1,0.6417742678895593,,,,351,2023-11-14_10h14.28.234,leap3,2022.2.5,60.08469603243979,
,,,,,,,,,,,,,,,,,,,,11,0,11,0,10,0,10,0,,,,,,phonology,w,g,upper,,,,,,,3,w,LoDemNoTar,h,0,0.5744497422128916,,,,351,2023-11-14_10h14.28.234,leap3,2022.2.5,60.08469603243979,
,,,,,,,,,,,,,,,,,,,,11,0,11,0,11,0,11,0,,,,,,doads,nw,h,upper,,,,,,,3,nw,LoDemNoTar,h,1,0.5007387977093458,,,,351,2023-11-14_10h14.28.234,leap3,2022.2.5,60.08469603243979,
,,,,,,,,,,,,,,,,,,,,11,0,11,0,12,0,12,0,,,,,,foster,w,g,upper,,,,,,,3,w,LoDemNoTar,g,1,0.5354116344824433,,,,351,2023-11-14_10h14.28.234,leap3,2022.2.5,60.08469603243979,
,,,,,,,,,,,,,,,,,,,,11,0,11,0,13,0,13,0,,,,,,module,w,g,upper,,,,,,,3,w,LoDemNoTar,g,1,0.5846783351153135,,,,351,2023-11-14_10h14.28.234,leap3,2022.2.5,60.08469603243979,
,,,,,,,,,,,,,,,,,,,,11,0,11,0,14,0,14,0,,,,,,derived,w,g,upper,,,,,,,3,w,LoDemNoTar,g,1,0.8399983374401927,,,,351,2023-11-14_10h14.28.234,leap3,2022.2.5,60.08469603243979,
,,,,,,,,,,,,,,,,,,,,11,0,11,0,15,0,15,0,,,,,,obviously,w,g,upper,,,,,,,3,w,LoDemNoTar,g,1,0.44464106298983097,,,,351,2023-11-14_10h14.28.234,leap3,2022.2.5,60.08469603243979,
,,,,,,,,,,,,,,,,,,,,11,0,11,0,16,0,16,0,,,,,,lifetime,w,g,upper,,,,,,,3,w,LoDemNoTar,g,1,0.6331261312589049,,,,351,2023-11-14_10h14.28.234,leap3,2022.2.5,60.08469603243979,
,,,,,,,,,,,,,,,,,,,,11,0,11,0,17,0,17,0,,,,,,distrust,w,g,upper,,,,,,,3,w,LoDemNoTar,g,1,0.5662024542689323,,,,351,2023-11-14_10h14.28.234,leap3,2022.2.5,60.08469603243979,
,,,,,,,,,,,,,,,,,,,,11,0,11,0,18,0,18,0,,,,,,splum,nw,h,upper,,,,,,,3,nw,LoDemNoTar,h,1,0.6860089236870408,,,,351,2023-11-14_10h14.28.234,leap3,2022.2.5,60.08469603243979,
,,,,,,,,,,,,,,,,,,,,11,0,11,0,19,0,19,0,,,,,,upstairs,w,g,upper,,,,,,,3,w,LoDemNoTar,g,1,0.4876336306333542,,,,351,2023-11-14_10h14.28.234,leap3,2022.2.5,60.08469603243979,
,,,,,,,,,,,,,,,,,,,,11,0,11,0,20,0,20,0,,,,,,deceit,w,g,upper,,,,,,,3,w,LoDemNoTar,g,1,0.63422907050699,,,,351,2023-11-14_10h14.28.234,leap3,2022.2.5,60.08469603243979,
,,,,,,,,,,,,,,,,,,,,11,0,11,0,21,0,21,0,,,,,,urgency,w,g,upper,,,,,,,3,w,LoDemNoTar,g,1,0.4383144099265337,,,,351,2023-11-14_10h14.28.234,leap3,2022.2.5,60.08469603243979,
,,,,,,,,,,,,,,,,,,,,11,0,11,0,22,0,22,0,,,,,,dazid,nw,h,upper,,,,,,,3,nw,LoDemNoTar,h,1,0.378855942748487,,,,351,2023-11-14_10h14.28.234,leap3,2022.2.5,60.08469603243979,
,,,,,,,,,,,,,,,,,,,,11,0,11,0,23,0,23,0,,,,,,olerates,nw,h,upper,,,,,,,3,nw,LoDemNoTar,g,0,0.43490508012473583,,,,351,2023-11-14_10h14.28.234,leap3,2022.2.5,60.08469603243979,
,,,,,,,,,,,,,,,,,,,,11,0,11,0,24,0,24,0,,,,,,mustled,nw,h,upper,,,,,,,3,nw,LoDemNoTar,h,1,0.9847368318587542,,,,351,2023-11-14_10h14.28.234,leap3,2022.2.5,60.08469603243979,
,,,,,,,,,,,,,,,,,,,,11,0,11,0,25,0,25,0,,,,,,aviation,w,g,upper,,,,,,,3,w,LoDemNoTar,g,1,0.46405054721981287,,,,351,2023-11-14_10h14.28.234,leap3,2022.2.5,60.08469603243979,
,,,,,,,,,,,,,,,,,,,,11,0,11,0,26,0,26,0,,,,,,markot,nw,h,upper,,,,,,,3,nw,LoDemNoTar,h,1,0.5717065827921033,,,,351,2023-11-14_10h14.28.234,leap3,2022.2.5,60.08469603243979,
,,,,,,,,,,,,,,,,,,,,11,0,11,0,27,0,27,0,,,,,,ludictous,nw,h,upper,,,,,,,3,nw,LoDemNoTar,h,1,0.7871004529297352,,,,351,2023-11-14_10h14.28.234,leap3,2022.2.5,60.08469603243979,
,,,,,,,,,,,,,,,,,,,,11,0,11,0,28,0,28,0,,,,,,withep,nw,h,upper,,,,,,,3,nw,LoDemNoTar,h,1,0.5056990031152964,,,,351,2023-11-14_10h14.28.234,leap3,2022.2.5,60.08469603243979,
,,,,,,,,,,,,,,,,,,,,11,0,11,0,29,0,29,0,,,,,,nomma,nw,h,upper,,,,,,,3,nw,LoDemNoTar,h,1,0.5713187120854855,,,,351,2023-11-14_10h14.28.234,leap3,2022.2.5,60.08469603243979,
,,,,,,,,,,,,,,,,,,,,11,0,11,0,,,,,,,,,,,,,,,,,,,,,,,,,,NA,,,351,2023-11-14_10h14.28.234,leap3,2022.2.5,60.08469603243979,
,,,,,,,,,,,,,,,,,,,,12,0,12,0,0,0,0,0,,,,,,virulent,w,g,lower,,,,,,,1,w,HiDemTar,h,0,0.6344473036006093,,,,351,2023-11-14_10h14.28.234,leap3,2022.2.5,60.08469603243979,
,,,,,,,,,,,,,,,,,,,,12,0,12,0,1,0,1,0,,,,,,issue,w,g,lower,,,,,,,1,w,HiDemTar,g,1,0.5675855046138167,,,,351,2023-11-14_10h14.28.234,leap3,2022.2.5,60.08469603243979,
,,,,,,,,,,,,,,,,,,,,12,0,12,0,2,0,2,0,,,,,,troven,nw,h,lower,,,,,,,1,nw,HiDemTar,h,1,0.5194926764816046,,,,351,2023-11-14_10h14.28.234,leap3,2022.2.5,60.08469603243979,
,,,,,,,,,,,,,,,,,,,,12,0,12,0,3,0,3,0,,,,,,frunted,nw,h,lower,,,,,,,1,nw,HiDemTar,h,1,0.5288353562355042,,,,351,2023-11-14_10h14.28.234,leap3,2022.2.5,60.08469603243979,
,,,,,,,,,,,,,,,,,,,,12,0,12,0,4,0,4,0,,,,,,erithets,nw,h,lower,,,,,,,1,nw,HiDemTar,h,1,0.48924577981233597,,,,351,2023-11-14_10h14.28.234,leap3,2022.2.5,60.08469603243979,
,,,,,,,,,,,,,,,,,,,,12,0,12,0,5,0,5,0,,,,,,defeat,w,g,lower,,,,,,,1,w,HiDemTar,h,0,0.42878820840269327,,,,351,2023-11-14_10h14.28.234,leap3,2022.2.5,60.08469603243979,
,,,,,,,,,,,,,,,,,,,,12,0,12,0,6,0,6,0,,,,,,apop,nw,h,lower,,,,,,,1,nw,HiDemTar,h,1,0.48909033089876175,,,,351,2023-11-14_10h14.28.234,leap3,2022.2.5,60.08469603243979,
,,,,,,,,,,,,,,,,,,,,12,0,12,0,7,0,7,0,,,,,,shests,nw,h,lower,,,,,,,1,nw,HiDemTar,h,1,0.5717778177931905,,,,351,2023-11-14_10h14.28.234,leap3,2022.2.5,60.08469603243979,
,,,,,,,,,,,,,,,,,,,,12,0,12,0,8,0,8,0,,,,,,elormity,nw,h,lower,,,,,,,1,nw,HiDemTar,h,1,0.6270814007148147,,,,351,2023-11-14_10h14.28.234,leap3,2022.2.5,60.08469603243979,
,,,,,,,,,,,,,,,,,,,,12,0,12,0,9,0,9,0,,,,,,reloant,nw,h,lower,,,,,,,1,nw,HiDemTar,h,1,0.6484187627211213,,,,351,2023-11-14_10h14.28.234,leap3,2022.2.5,60.08469603243979,
,,,,,,,,,,,,,,,,,,,,12,0,12,0,10,0,10,0,,,,,,dentures,w,g,lower,,,,,,,1,w,HiDemTar,g,1,0.7730112737044692,,,,351,2023-11-14_10h14.28.234,leap3,2022.2.5,60.08469603243979,
,,,,,,,,,,,,,,,,,,,,12,0,12,0,11,0,11,0,,,,,,kettle,w,g,lower,,,,,,,1,w,HiDemTar,h,0,0.5631151925772429,,,,351,2023-11-14_10h14.28.234,leap3,2022.2.5,60.08469603243979,
,,,,,,,,,,,,,,,,,,,,12,0,12,0,12,0,12,0,,,,,,gradielts,nw,h,lower,,,,,,,1,nw,HiDemTar,h,1,0.6506611639633775,,,,351,2023-11-14_10h14.28.234,leap3,2022.2.5,60.08469603243979,
,,,,,,,,,,,,,,,,,,,,12,0,12,0,13,0,13,0,,,,,,encounter,w,g,lower,,,,,,,1,w,HiDemTar,g,1,0.527875492349267,,,,351,2023-11-14_10h14.28.234,leap3,2022.2.5,60.08469603243979,
,,,,,,,,,,,,,,,,,,,,12,0,12,0,14,0,14,0,,,,,,figure,w,g,lower,,,,,,,1,w,HiDemTar,g,1,0.42574561946094036,,,,351,2023-11-14_10h14.28.234,leap3,2022.2.5,60.08469603243979,
,,,,,,,,,,,,,,,,,,,,12,0,12,0,15,0,15,0,,,,,,unlined,w,g,lower,,,,,,,1,w,HiDemTar,h,0,0.7498966529965401,,,,351,2023-11-14_10h14.28.234,leap3,2022.2.5,60.08469603243979,
,,,,,,,,,,,,,,,,,,,,12,0,12,0,16,0,16,0,,,,,,theery,nw,h,lower,,,,,,,1,nw,HiDemTar,h,1,0.5585153894498944,,,,351,2023-11-14_10h14.28.234,leap3,2022.2.5,60.08469603243979,
,,,,,,,,,,,,,,,,,,,,12,0,12,0,17,0,17,0,,,,,,veirs,nw,h,lower,,,,,,,1,nw,HiDemTar,h,1,0.5584254404529929,,,,351,2023-11-14_10h14.28.234,leap3,2022.2.5,60.08469603243979,
,,,,,,,,,,,,,,,,,,,,12,0,12,0,18,0,18,0,,,,,,athcan,nw,h,lower,,,,,,,1,nw,HiDemTar,h,1,0.5264601456001401,,,,351,2023-11-14_10h14.28.234,leap3,2022.2.5,60.08469603243979,
,,,,,,,,,,,,,,,,,,,,12,0,12,0,19,0,19,0,,,,,,ghists,nw,h,lower,,,,,,,1,nw,HiDemTar,h,1,0.44774613343179226,,,,351,2023-11-14_10h14.28.234,leap3,2022.2.5,60.08469603243979,
,,,,,,,,,,,,,,,,,,,,12,0,12,0,20,0,20,0,,,,,,dorte,nw,h,lower,,,,,,,1,nw,HiDemTar,h,1,0.5563659574836493,,,,351,2023-11-14_10h14.28.234,leap3,2022.2.5,60.08469603243979,
,,,,,,,,,,,,,,,,,,,,12,0,12,0,21,0,21,0,,,,,,iflaid,nw,h,lower,,,,,,,1,nw,HiDemTar,h,1,0.4924160484224558,,,,351,2023-11-14_10h14.28.234,leap3,2022.2.5,60.08469603243979,
,,,,,,,,,,,,,,,,,,,,12,0,12,0,22,0,22,0,,,,,,renown,w,g,lower,,,,,,,1,w,HiDemTar,g,1,0.6470740474760532,,,,351,2023-11-14_10h14.28.234,leap3,2022.2.5,60.08469603243979,
,,,,,,,,,,,,,,,,,,,,12,0,12,0,23,0,23,0,,,,,,octopus,target,q,lower,,,,,,,1,target,HiDemTar,g,0,0.5227631572633982,,,,351,2023-11-14_10h14.28.234,leap3,2022.2.5,60.08469603243979,
,,,,,,,,,,,,,,,,,,,,12,0,12,0,24,0,24,0,,,,,,publish,w,g,lower,,,,,,,1,aftertar1,HiDemTar,g,1,0.4680487746372819,,,,351,2023-11-14_10h14.28.234,leap3,2022.2.5,60.08469603243979,
,,,,,,,,,,,,,,,,,,,,12,0,12,0,25,0,25,0,,,,,,submit,w,g,lower,,,,,,,1,aftertar2,HiDemTar,g,1,0.44799364637583494,,,,351,2023-11-14_10h14.28.234,leap3,2022.2.5,60.08469603243979,
,,,,,,,,,,,,,,,,,,,,12,0,12,0,26,0,26,0,,,,,,other,w,g,lower,,,,,,,1,aftertar3,HiDemTar,g,1,0.3806187119334936,,,,351,2023-11-14_10h14.28.234,leap3,2022.2.5,60.08469603243979,
,,,,,,,,,,,,,,,,,,,,12,0,12,0,27,0,27,0,,,,,,alchemist,w,g,lower,,,,,,,1,w,HiDemTar,g,1,0.5239255595952272,,,,351,2023-11-14_10h14.28.234,leap3,2022.2.5,60.08469603243979,
,,,,,,,,,,,,,,,,,,,,12,0,12,0,28,0,28,0,,,,,,omission,w,g,lower,,,,,,,1,w,HiDemTar,g,1,0.5413253651931882,,,,351,2023-11-14_10h14.28.234,leap3,2022.2.5,60.08469603243979,
,,,,,,,,,,,,,,,,,,,,12,0,12,0,29,0,29,0,,,,,,parent,w,g,lower,,,,,,,1,w,HiDemTar,g,1,0.41390699055045843,,,,351,2023-11-14_10h14.28.234,leap3,2022.2.5,60.08469603243979,
,,,,,,,,,,,,,,,,,,,,12,0,12,0,,,,,,,,,,,,,,,,,,,,,,,,,,0,,,351,2023-11-14_10h14.28.234,leap3,2022.2.5,60.08469603243979,
,,,,,,,,,,,,,,,,,,,,13,0,13,0,0,0,0,0,,,,,,resonant,w,g,lower,,,,,,,2,w,HiDemNoTar,g,1,0.5483444491401315,,,,351,2023-11-14_10h14.28.234,leap3,2022.2.5,60.08469603243979,
,,,,,,,,,,,,,,,,,,,,13,0,13,0,1,0,1,0,,,,,,infusion,w,g,lower,,,,,,,2,w,HiDemNoTar,g,1,0.47596161905676126,,,,351,2023-11-14_10h14.28.234,leap3,2022.2.5,60.08469603243979,
,,,,,,,,,,,,,,,,,,,,13,0,13,0,2,0,2,0,,,,,,condensed,w,g,lower,,,,,,,2,w,HiDemNoTar,g,1,0.5354671739041805,,,,351,2023-11-14_10h14.28.234,leap3,2022.2.5,60.08469603243979,
,,,,,,,,,,,,,,,,,,,,13,0,13,0,3,0,3,0,,,,,,breiled,nw,h,lower,,,,,,,2,nw,HiDemNoTar,h,1,0.590751439332962,,,,351,2023-11-14_10h14.28.234,leap3,2022.2.5,60.08469603243979,
,,,,,,,,,,,,,,,,,,,,13,0,13,0,4,0,4,0,,,,,,oppose,w,g,lower,,,,,,,2,w,HiDemNoTar,g,1,0.6856518425047398,,,,351,2023-11-14_10h14.28.234,leap3,2022.2.5,60.08469603243979,
,,,,,,,,,,,,,,,,,,,,13,0,13,0,5,0,5,0,,,,,,cogantly,nw,h,lower,,,,,,,2,nw,HiDemNoTar,h,1,0.7531438916921616,,,,351,2023-11-14_10h14.28.234,leap3,2022.2.5,60.08469603243979,
,,,,,,,,,,,,,,,,,,,,13,0,13,0,6,0,6,0,,,,,,terrify,w,g,lower,,,,,,,2,w,HiDemNoTar,g,1,0.5372821632772684,,,,351,2023-11-14_10h14.28.234,leap3,2022.2.5,60.08469603243979,
,,,,,,,,,,,,,,,,,,,,13,0,13,0,7,0,7,0,,,,,,supplier,w,g,lower,,,,,,,2,w,HiDemNoTar,g,1,0.5619878051802516,,,,351,2023-11-14_10h14.28.234,leap3,2022.2.5,60.08469603243979,
,,,,,,,,,,,,,,,,,,,,13,0,13,0,8,0,8,0,,,,,,fabstand,nw,h,lower,,,,,,,2,nw,HiDemNoTar,h,1,0.5778980096802115,,,,351,2023-11-14_10h14.28.234,leap3,2022.2.5,60.08469603243979,
,,,,,,,,,,,,,,,,,,,,13,0,13,0,9,0,9,0,,,,,,baults,nw,h,lower,,,,,,,2,nw,HiDemNoTar,h,1,0.609129823744297,,,,351,2023-11-14_10h14.28.234,leap3,2022.2.5,60.08469603243979,
,,,,,,,,,,,,,,,,,,,,13,0,13,0,10,0,10,0,,,,,,gablus,nw,h,lower,,,,,,,2,nw,HiDemNoTar,h,1,0.7661011554300785,,,,351,2023-11-14_10h14.28.234,leap3,2022.2.5,60.08469603243979,
,,,,,,,,,,,,,,,,,,,,13,0,13,0,11,0,11,0,,,,,,tragedy,w,g,lower,,,,,,,2,w,HiDemNoTar,g,1,0.6541133550927043,,,,351,2023-11-14_10h14.28.234,leap3,2022.2.5,60.08469603243979,
,,,,,,,,,,,,,,,,,,,,13,0,13,0,12,0,12,0,,,,,,uncarled,nw,h,lower,,,,,,,2,nw,HiDemNoTar,h,1,0.7221137098968029,,,,351,2023-11-14_10h14.28.234,leap3,2022.2.5,60.08469603243979,
,,,,,,,,,,,,,,,,,,,,13,0,13,0,13,0,13,0,,,,,,wienegs,nw,h,lower,,,,,,,2,nw,HiDemNoTar,h,1,0.6913874847814441,,,,351,2023-11-14_10h14.28.234,leap3,2022.2.5,60.08469603243979,
,,,,,,,,,,,,,,,,,,,,13,0,13,0,14,0,14,0,,,,,,enunciate,w,g,lower,,,,,,,2,w,HiDemNoTar,g,1,1.0140181295573711,,,,351,2023-11-14_10h14.28.234,leap3,2022.2.5,60.08469603243979,
,,,,,,,,,,,,,,,,,,,,13,0,13,0,15,0,15,0,,,,,,worps,nw,h,lower,,,,,,,2,nw,HiDemNoTar,h,1,0.715998649597168,,,,351,2023-11-14_10h14.28.234,leap3,2022.2.5,60.08469603243979,
,,,,,,,,,,,,,,,,,,,,13,0,13,0,16,0,16,0,,,,,,brouhuha,nw,h,lower,,,,,,,2,nw,HiDemNoTar,h,1,0.5899572875350714,,,,351,2023-11-14_10h14.28.234,leap3,2022.2.5,60.08469603243979,
,,,,,,,,,,,,,,,,,,,,13,0,13,0,17,0,17,0,,,,,,senalize,nw,h,lower,,,,,,,2,nw,HiDemNoTar,g,0,1.1077048182487488,,,,351,2023-11-14_10h14.28.234,leap3,2022.2.5,60.08469603243979,
,,,,,,,,,,,,,,,,,,,,13,0,13,0,18,0,18,0,,,,,,century,w,g,lower,,,,,,,2,w,HiDemNoTar,g,1,0.5337007828056812,,,,351,2023-11-14_10h14.28.234,leap3,2022.2.5,60.08469603243979,
,,,,,,,,,,,,,,,,,,,,13,0,13,0,19,0,19,0,,,,,,admire,w,g,lower,,,,,,,2,w,HiDemNoTar,g,1,0.41496163327246904,,,,351,2023-11-14_10h14.28.234,leap3,2022.2.5,60.08469603243979,
,,,,,,,,,,,,,,,,,,,,13,0,13,0,20,0,20,0,,,,,,tusied,nw,h,lower,,,,,,,2,nw,HiDemNoTar,h,1,0.501080485060811,,,,351,2023-11-14_10h14.28.234,leap3,2022.2.5,60.08469603243979,
,,,,,,,,,,,,,,,,,,,,13,0,13,0,21,0,21,0,,,,,,addition,w,g,lower,,,,,,,2,w,HiDemNoTar,g,1,0.4468683712184429,,,,351,2023-11-14_10h14.28.234,leap3,2022.2.5,60.08469603243979,
,,,,,,,,,,,,,,,,,,,,13,0,13,0,22,0,22,0,,,,,,joadbed,nw,h,lower,,,,,,,2,nw,HiDemNoTar,h,1,0.5794896334409714,,,,351,2023-11-14_10h14.28.234,leap3,2022.2.5,60.08469603243979,
,,,,,,,,,,,,,,,,,,,,13,0,13,0,23,0,23,0,,,,,,teamwork,w,g,lower,,,,,,,2,w,HiDemNoTar,g,1,0.4748846394941211,,,,351,2023-11-14_10h14.28.234,leap3,2022.2.5,60.08469603243979,
,,,,,,,,,,,,,,,,,,,,13,0,13,0,24,0,24,0,,,,,,violate,w,g,lower,,,,,,,2,w,HiDemNoTar,g,1,0.5901088127866387,,,,351,2023-11-14_10h14.28.234,leap3,2022.2.5,60.08469603243979,
,,,,,,,,,,,,,,,,,,,,13,0,13,0,25,0,25,0,,,,,,etuip,nw,h,lower,,,,,,,2,nw,HiDemNoTar,h,1,0.5248618805781007,,,,351,2023-11-14_10h14.28.234,leap3,2022.2.5,60.08469603243979,
,,,,,,,,,,,,,,,,,,,,13,0,13,0,26,0,26,0,,,,,,afford,w,g,lower,,,,,,,2,w,HiDemNoTar,g,1,0.4701200295239687,,,,351,2023-11-14_10h14.28.234,leap3,2022.2.5,60.08469603243979,
,,,,,,,,,,,,,,,,,,,,13,0,13,0,27,0,27,0,,,,,,standard,w,g,lower,,,,,,,2,w,HiDemNoTar,g,1,0.511318133212626,,,,351,2023-11-14_10h14.28.234,leap3,2022.2.5,60.08469603243979,
,,,,,,,,,,,,,,,,,,,,13,0,13,0,28,0,28,0,,,,,,sheerio,nw,h,lower,,,,,,,2,nw,HiDemNoTar,h,1,0.5621251445263624,,,,351,2023-11-14_10h14.28.234,leap3,2022.2.5,60.08469603243979,
,,,,,,,,,,,,,,,,,,,,13,0,13,0,29,0,29,0,,,,,,adok,nw,h,lower,,,,,,,2,nw,HiDemNoTar,h,1,0.5457223299890757,,,,351,2023-11-14_10h14.28.234,leap3,2022.2.5,60.08469603243979,
,,,,,,,,,,,,,,,,,,,,13,0,13,0,,,,,,,,,,,,,,,,,,,,,,,,,,NA,,,351,2023-11-14_10h14.28.234,leap3,2022.2.5,60.08469603243979,
,,,,,,,,,,,,,,,,,,,,14,0,14,0,0,0,0,0,,,,,,quickel,nw,h,upper,,,,,,,3,nw,LoDemNoTar,h,1,0.6835633832961321,,,,351,2023-11-14_10h14.28.234,leap3,2022.2.5,60.08469603243979,
,,,,,,,,,,,,,,,,,,,,14,0,14,0,1,0,1,0,,,,,,purport,w,g,upper,,,,,,,3,w,LoDemNoTar,h,0,0.6868552956730127,,,,351,2023-11-14_10h14.28.234,leap3,2022.2.5,60.08469603243979,
,,,,,,,,,,,,,,,,,,,,14,0,14,0,2,0,2,0,,,,,,gunrunker,nw,h,upper,,,,,,,3,nw,LoDemNoTar,h,1,0.5606853468343616,,,,351,2023-11-14_10h14.28.234,leap3,2022.2.5,60.08469603243979,
,,,,,,,,,,,,,,,,,,,,14,0,14,0,3,0,3,0,,,,,,germeated,nw,h,upper,,,,,,,3,nw,LoDemNoTar,h,1,0.47353086806833744,,,,351,2023-11-14_10h14.28.234,leap3,2022.2.5,60.08469603243979,
,,,,,,,,,,,,,,,,,,,,14,0,14,0,4,0,4,0,,,,,,armada,w,g,upper,,,,,,,3,w,LoDemNoTar,g,1,1.0198796400800347,,,,351,2023-11-14_10h14.28.234,leap3,2022.2.5,60.08469603243979,
,,,,,,,,,,,,,,,,,,,,14,0,14,0,5,0,5,0,,,,,,fillings,w,g,upper,,,,,,,3,w,LoDemNoTar,h,0,0.5450712507590652,,,,351,2023-11-14_10h14.28.234,leap3,2022.2.5,60.08469603243979,
,,,,,,,,,,,,,,,,,,,,14,0,14,0,6,0,6,0,,,,,,tipoff,w,g,upper,,,,,,,3,w,LoDemNoTar,g,1,0.4656943902373314,,,,351,2023-11-14_10h14.28.234,leap3,2022.2.5,60.08469603243979,
,,,,,,,,,,,,,,,,,,,,14,0,14,0,7,0,7,0,,,,,,caution,w,g,upper,,,,,,,3,w,LoDemNoTar,g,1,0.6537457089871168,,,,351,2023-11-14_10h14.28.234,leap3,2022.2.5,60.08469603243979,
,,,,,,,,,,,,,,,,,,,,14,0,14,0,8,0,8,0,,,,,,require,w,g,upper,,,,,,,3,w,LoDemNoTar,g,1,0.44966284465044737,,,,351,2023-11-14_10h14.28.234,leap3,2022.2.5,60.08469603243979,
,,,,,,,,,,,,,,,,,,,,14,0,14,0,9,0,9,0,,,,,,hodels,nw,h,upper,,,,,,,3,nw,LoDemNoTar,h,1,0.6303253201767802,,,,351,2023-11-14_10h14.28.234,leap3,2022.2.5,60.08469603243979,
,,,,,,,,,,,,,,,,,,,,14,0,14,0,10,0,10,0,,,,,,galashes,nw,h,upper,,,,,,,3,nw,LoDemNoTar,h,1,0.4836260452866554,,,,351,2023-11-14_10h14.28.234,leap3,2022.2.5,60.08469603243979,
,,,,,,,,,,,,,,,,,,,,14,0,14,0,11,0,11,0,,,,,,tapling,nw,h,upper,,,,,,,3,nw,LoDemNoTar,h,1,0.5020973980426788,,,,351,2023-11-14_10h14.28.234,leap3,2022.2.5,60.08469603243979,
,,,,,,,,,,,,,,,,,,,,14,0,14,0,12,0,12,0,,,,,,compose,w,g,upper,,,,,,,3,w,LoDemNoTar,g,1,0.49602942541241646,,,,351,2023-11-14_10h14.28.234,leap3,2022.2.5,60.08469603243979,
,,,,,,,,,,,,,,,,,,,,14,0,14,0,13,0,13,0,,,,,,mabit,nw,h,upper,,,,,,,3,nw,LoDemNoTar,h,1,0.5475665973499417,,,,351,2023-11-14_10h14.28.234,leap3,2022.2.5,60.08469603243979,
,,,,,,,,,,,,,,,,,,,,14,0,14,0,14,0,14,0,,,,,,repayment,w,g,upper,,,,,,,3,w,LoDemNoTar,g,1,0.555260905995965,,,,351,2023-11-14_10h14.28.234,leap3,2022.2.5,60.08469603243979,
,,,,,,,,,,,,,,,,,,,,14,0,14,0,15,0,15,0,,,,,,uncorked,w,g,upper,,,,,,,3,w,LoDemNoTar,h,0,0.5711928438395262,,,,351,2023-11-14_10h14.28.234,leap3,2022.2.5,60.08469603243979,
,,,,,,,,,,,,,,,,,,,,14,0,14,0,16,0,16,0,,,,,,profats,nw,h,upper,,,,,,,3,nw,LoDemNoTar,h,1,0.5145650701597333,,,,351,2023-11-14_10h14.28.234,leap3,2022.2.5,60.08469603243979,
,,,,,,,,,,,,,,,,,,,,14,0,14,0,17,0,17,0,,,,,,hustle,w,g,upper,,,,,,,3,w,LoDemNoTar,g,1,0.5885434485971928,,,,351,2023-11-14_10h14.28.234,leap3,2022.2.5,60.08469603243979,
,,,,,,,,,,,,,,,,,,,,14,0,14,0,18,0,18,0,,,,,,erony,nw,h,upper,,,,,,,3,nw,LoDemNoTar,h,1,0.8658796632662416,,,,351,2023-11-14_10h14.28.234,leap3,2022.2.5,60.08469603243979,
,,,,,,,,,,,,,,,,,,,,14,0,14,0,19,0,19,0,,,,,,exclusion,w,g,upper,,,,,,,3,w,LoDemNoTar,g,1,0.5731629803776741,,,,351,2023-11-14_10h14.28.234,leap3,2022.2.5,60.08469603243979,
,,,,,,,,,,,,,,,,,,,,14,0,14,0,20,0,20,0,,,,,,flougy,nw,h,upper,,,,,,,3,nw,LoDemNoTar,h,1,0.5979630993679166,,,,351,2023-11-14_10h14.28.234,leap3,2022.2.5,60.08469603243979,
,,,,,,,,,,,,,,,,,,,,14,0,14,0,21,0,21,0,,,,,,irfirm,nw,h,upper,,,,,,,3,nw,LoDemNoTar,h,1,0.7010634010657668,,,,351,2023-11-14_10h14.28.234,leap3,2022.2.5,60.08469603243979,
,,,,,,,,,,,,,,,,,,,,14,0,14,0,22,0,22,0,,,,,,prillway,nw,h,upper,,,,,,,3,nw,LoDemNoTar,h,1,0.4149854797869921,,,,351,2023-11-14_10h14.28.234,leap3,2022.2.5,60.08469603243979,
,,,,,,,,,,,,,,,,,,,,14,0,14,0,23,0,23,0,,,,,,integral,w,g,upper,,,,,,,3,w,LoDemNoTar,h,0,0.37202641647309065,,,,351,2023-11-14_10h14.28.234,leap3,2022.2.5,60.08469603243979,
,,,,,,,,,,,,,,,,,,,,14,0,14,0,24,0,24,0,,,,,,intrude,w,g,upper,,,,,,,3,w,LoDemNoTar,g,1,0.40345352329313755,,,,351,2023-11-14_10h14.28.234,leap3,2022.2.5,60.08469603243979,
,,,,,,,,,,,,,,,,,,,,14,0,14,0,25,0,25,0,,,,,,trocess,nw,h,upper,,,,,,,3,nw,LoDemNoTar,h,1,0.5852107871323824,,,,351,2023-11-14_10h14.28.234,leap3,2022.2.5,60.08469603243979,
,,,,,,,,,,,,,,,,,,,,14,0,14,0,26,0,26,0,,,,,,poughest,nw,h,upper,,,,,,,3,nw,LoDemNoTar,h,1,0.5279120150953531,,,,351,2023-11-14_10h14.28.234,leap3,2022.2.5,60.08469603243979,
,,,,,,,,,,,,,,,,,,,,14,0,14,0,27,0,27,0,,,,,,butler,w,g,upper,,,,,,,3,w,LoDemNoTar,h,0,0.5692444406449795,,,,351,2023-11-14_10h14.28.234,leap3,2022.2.5,60.08469603243979,
,,,,,,,,,,,,,,,,,,,,14,0,14,0,28,0,28,0,,,,,,listless,w,g,upper,,,,,,,3,w,LoDemNoTar,g,1,0.6005595633760095,,,,351,2023-11-14_10h14.28.234,leap3,2022.2.5,60.08469603243979,
,,,,,,,,,,,,,,,,,,,,14,0,14,0,29,0,29,0,,,,,,roodies,nw,h,upper,,,,,,,3,nw,LoDemNoTar,h,1,0.6065052887424827,,,,351,2023-11-14_10h14.28.234,leap3,2022.2.5,60.08469603243979,
,,,,,,,,,,,,,,,,,,,,14,0,14,0,,,,,,,,,,,,,,,,,,,,,,,,,,NA,,,351,2023-11-14_10h14.28.234,leap3,2022.2.5,60.08469603243979,
,,,,,,,,,,,,,,,,,,,,15,0,15,0,0,0,0,0,,,,,,pressing,w,g,upper,,,,,,,4,w,LoDemTar,g,1,0.5800365749746561,,,,351,2023-11-14_10h14.28.234,leap3,2022.2.5,60.08469603243979,
,,,,,,,,,,,,,,,,,,,,15,0,15,0,1,0,1,0,,,,,,warmer,w,g,upper,,,,,,,4,w,LoDemTar,g,1,0.5153966518118978,,,,351,2023-11-14_10h14.28.234,leap3,2022.2.5,60.08469603243979,
,,,,,,,,,,,,,,,,,,,,15,0,15,0,2,0,2,0,,,,,,childhood,w,g,upper,,,,,,,4,w,LoDemTar,g,1,0.4533927319571376,,,,351,2023-11-14_10h14.28.234,leap3,2022.2.5,60.08469603243979,
,,,,,,,,,,,,,,,,,,,,15,0,15,0,3,0,3,0,,,,,,pircus,nw,h,upper,,,,,,,4,nw,LoDemTar,h,1,0.5373214036226273,,,,351,2023-11-14_10h14.28.234,leap3,2022.2.5,60.08469603243979,
,,,,,,,,,,,,,,,,,,,,15,0,15,0,4,0,4,0,,,,,,gigoho,nw,h,upper,,,,,,,4,nw,LoDemTar,h,1,0.45793669391423464,,,,351,2023-11-14_10h14.28.234,leap3,2022.2.5,60.08469603243979,
,,,,,,,,,,,,,,,,,,,,15,0,15,0,5,0,5,0,,,,,,runabouk,nw,h,upper,,,,,,,4,nw,LoDemTar,h,1,0.4939639065414667,,,,351,2023-11-14_10h14.28.234,leap3,2022.2.5,60.08469603243979,
,,,,,,,,,,,,,,,,,,,,15,0,15,0,6,0,6,0,,,,,,expected,w,g,upper,,,,,,,4,w,LoDemTar,g,1,0.57581468205899,,,,351,2023-11-14_10h14.28.234,leap3,2022.2.5,60.08469603243979,
,,,,,,,,,,,,,,,,,,,,15,0,15,0,7,0,7,0,,,,,,army,w,g,upper,,,,,,,4,w,LoDemTar,g,1,0.4470008807256818,,,,351,2023-11-14_10h14.28.234,leap3,2022.2.5,60.08469603243979,
,,,,,,,,,,,,,,,,,,,,15,0,15,0,8,0,8,0,,,,,,release,w,g,upper,,,,,,,4,w,LoDemTar,g,1,0.5085535431280732,,,,351,2023-11-14_10h14.28.234,leap3,2022.2.5,60.08469603243979,
,,,,,,,,,,,,,,,,,,,,15,0,15,0,9,0,9,0,,,,,,mogus,nw,h,upper,,,,,,,4,nw,LoDemTar,h,1,0.756339818239212,,,,351,2023-11-14_10h14.28.234,leap3,2022.2.5,60.08469603243979,
,,,,,,,,,,,,,,,,,,,,15,0,15,0,10,0,10,0,,,,,,susher,nw,h,upper,,,,,,,4,nw,LoDemTar,g,0,0.4444632763043046,,,,351,2023-11-14_10h14.28.234,leap3,2022.2.5,60.08469603243979,
,,,,,,,,,,,,,,,,,,,,15,0,15,0,11,0,11,0,,,,,,porcupine,target,q,upper,,,,,,,4,target,LoDemTar,g,0,0.7454981803894043,,1,1,351,2023-11-14_10h14.28.234,leap3,2022.2.5,60.08469603243979,
,,,,,,,,,,,,,,,,,,,,15,0,15,0,12,0,12,0,,,,,,ameld,nw,h,upper,,,,,,,4,aftertar1,LoDemTar,h,1,0.8986671809107065,,,,351,2023-11-14_10h14.28.234,leap3,2022.2.5,60.08469603243979,
,,,,,,,,,,,,,,,,,,,,15,0,15,0,13,0,13,0,,,,,,pakened,nw,h,upper,,,,,,,4,aftertar2,LoDemTar,h,1,0.6133855246007442,,,,351,2023-11-14_10h14.28.234,leap3,2022.2.5,60.08469603243979,
,,,,,,,,,,,,,,,,,,,,15,0,15,0,14,0,14,0,,,,,,grefab,nw,h,upper,,,,,,,4,aftertar3,LoDemTar,h,1,0.5554389944300056,,,,351,2023-11-14_10h14.28.234,leap3,2022.2.5,60.08469603243979,
,,,,,,,,,,,,,,,,,,,,15,0,15,0,15,0,15,0,,,,,,ireology,nw,h,upper,,,,,,,4,nw,LoDemTar,h,1,0.8434656215831637,,,,351,2023-11-14_10h14.28.234,leap3,2022.2.5,60.08469603243979,
,,,,,,,,,,,,,,,,,,,,15,0,15,0,16,0,16,0,,,,,,dingly,nw,h,upper,,,,,,,4,nw,LoDemTar,h,1,1.6080489195883274,,,,351,2023-11-14_10h14.28.234,leap3,2022.2.5,60.08469603243979,
,,,,,,,,,,,,,,,,,,,,15,0,15,0,17,0,17,0,,,,,,setwixt,nw,h,upper,,,,,,,4,nw,LoDemTar,h,1,0.6687340820208192,,,,351,2023-11-14_10h14.28.234,leap3,2022.2.5,60.08469603243979,
,,,,,,,,,,,,,,,,,,,,15,0,15,0,18,0,18,0,,,,,,fidelity,w,g,upper,,,,,,,4,nw,LoDemTar,g,1,0.6322978707030416,,,,351,2023-11-14_10h14.28.234,leap3,2022.2.5,60.08469603243979,
,,,,,,,,,,,,,,,,,,,,15,0,15,0,19,0,19,0,,,,,,gerby,nw,h,upper,,,,,,,4,w,LoDemTar,h,1,0.6696429345756769,,,,351,2023-11-14_10h14.28.234,leap3,2022.2.5,60.08469603243979,
,,,,,,,,,,,,,,,,,,,,15,0,15,0,20,0,20,0,,,,,,chone,nw,h,upper,,,,,,,4,nw,LoDemTar,h,1,0.728893430903554,,,,351,2023-11-14_10h14.28.234,leap3,2022.2.5,60.08469603243979,
,,,,,,,,,,,,,,,,,,,,15,0,15,0,21,0,21,0,,,,,,handle,w,g,upper,,,,,,,4,nw,LoDemTar,g,1,0.6021744282916188,,,,351,2023-11-14_10h14.28.234,leap3,2022.2.5,60.08469603243979,
,,,,,,,,,,,,,,,,,,,,15,0,15,0,22,0,22,0,,,,,,bother,w,g,upper,,,,,,,4,w,LoDemTar,g,1,0.6721811415627599,,,,351,2023-11-14_10h14.28.234,leap3,2022.2.5,60.08469603243979,
,,,,,,,,,,,,,,,,,,,,15,0,15,0,23,0,23,0,,,,,,podes,nw,h,upper,,,,,,,4,w,LoDemTar,h,1,0.5394599689170718,,,,351,2023-11-14_10h14.28.234,leap3,2022.2.5,60.08469603243979,
,,,,,,,,,,,,,,,,,,,,15,0,15,0,24,0,24,0,,,,,,student,w,g,upper,,,,,,,4,nw,LoDemTar,g,1,0.45208333246409893,,,,351,2023-11-14_10h14.28.234,leap3,2022.2.5,60.08469603243979,
,,,,,,,,,,,,,,,,,,,,15,0,15,0,25,0,25,0,,,,,,euphoric,w,g,upper,,,,,,,4,w,LoDemTar,g,1,0.4872940555214882,,,,351,2023-11-14_10h14.28.234,leap3,2022.2.5,60.08469603243979,
,,,,,,,,,,,,,,,,,,,,15,0,15,0,26,0,26,0,,,,,,anemic,w,g,upper,,,,,,,4,w,LoDemTar,g,1,0.45777581073343754,,,,351,2023-11-14_10h14.28.234,leap3,2022.2.5,60.08469603243979,
,,,,,,,,,,,,,,,,,,,,15,0,15,0,27,0,27,0,,,,,,asthmatic,w,g,upper,,,,,,,4,w,LoDemTar,g,1,0.5496779968962073,,,,351,2023-11-14_10h14.28.234,leap3,2022.2.5,60.08469603243979,
,,,,,,,,,,,,,,,,,,,,15,0,15,0,28,0,28,0,,,,,,agony,w,g,upper,,,,,,,4,w,LoDemTar,g,1,0.5263611394912004,,,,351,2023-11-14_10h14.28.234,leap3,2022.2.5,60.08469603243979,
,,,,,,,,,,,,,,,,,,,,15,0,15,0,29,0,29,0,,,,,,ready,w,g,upper,,,,,,,4,w,LoDemTar,g,1,0.39964877907186747,,,,351,2023-11-14_10h14.28.234,leap3,2022.2.5,60.08469603243979,
,,,,,,,,,,,,,,,,,,,,15,0,15,0,,,,,,,,,,,,,,,,,,,,,,,,,,1,,,351,2023-11-14_10h14.28.234,leap3,2022.2.5,60.08469603243979,
,,,,,,,,,,,,,,,,,,,,16,0,16,0,0,0,0,0,,,,,,revising,w,g,lower,,,,,,,1,w,HiDemTar,g,1,0.501738203689456,,,,351,2023-11-14_10h14.28.234,leap3,2022.2.5,60.08469603243979,
,,,,,,,,,,,,,,,,,,,,16,0,16,0,1,0,1,0,,,,,,redefloy,nw,h,lower,,,,,,,1,nw,HiDemTar,h,1,0.6152699375525117,,,,351,2023-11-14_10h14.28.234,leap3,2022.2.5,60.08469603243979,
,,,,,,,,,,,,,,,,,,,,16,0,16,0,2,0,2,0,,,,,,hackal,nw,h,lower,,,,,,,1,nw,HiDemTar,h,1,0.709745948202908,,,,351,2023-11-14_10h14.28.234,leap3,2022.2.5,60.08469603243979,
,,,,,,,,,,,,,,,,,,,,16,0,16,0,3,0,3,0,,,,,,balign,nw,h,lower,,,,,,,1,nw,HiDemTar,h,1,0.6238235970959067,,,,351,2023-11-14_10h14.28.234,leap3,2022.2.5,60.08469603243979,
,,,,,,,,,,,,,,,,,,,,16,0,16,0,4,0,4,0,,,,,,infancy,w,g,lower,,,,,,,1,w,HiDemTar,g,1,0.9731070790439844,,,,351,2023-11-14_10h14.28.234,leap3,2022.2.5,60.08469603243979,
,,,,,,,,,,,,,,,,,,,,16,0,16,0,5,0,5,0,,,,,,slooping,nw,h,lower,,,,,,,1,nw,HiDemTar,g,0,1.0044852877035737,,,,351,2023-11-14_10h14.28.234,leap3,2022.2.5,60.08469603243979,
,,,,,,,,,,,,,,,,,,,,16,0,16,0,6,0,6,0,,,,,,miracle,w,g,lower,,,,,,,1,w,HiDemTar,g,1,0.5624695476144552,,,,351,2023-11-14_10h14.28.234,leap3,2022.2.5,60.08469603243979,
,,,,,,,,,,,,,,,,,,,,16,0,16,0,7,0,7,0,,,,,,gazes,w,g,lower,,,,,,,1,w,HiDemTar,g,1,0.6584321409463882,,,,351,2023-11-14_10h14.28.234,leap3,2022.2.5,60.08469603243979,
,,,,,,,,,,,,,,,,,,,,16,0,16,0,8,0,8,0,,,,,,reses,nw,h,lower,,,,,,,1,nw,HiDemTar,h,1,0.6062894705682993,,,,351,2023-11-14_10h14.28.234,leap3,2022.2.5,60.08469603243979,
,,,,,,,,,,,,,,,,,,,,16,0,16,0,9,0,9,0,,,,,,pepperoni,w,g,lower,,,,,,,1,w,HiDemTar,g,1,0.5564039899036288,,,,351,2023-11-14_10h14.28.234,leap3,2022.2.5,60.08469603243979,
,,,,,,,,,,,,,,,,,,,,16,0,16,0,10,0,10,0,,,,,,living,w,g,lower,,,,,,,1,w,HiDemTar,g,1,0.4603218659758568,,,,351,2023-11-14_10h14.28.234,leap3,2022.2.5,60.08469603243979,
,,,,,,,,,,,,,,,,,,,,16,0,16,0,11,0,11,0,,,,,,removable,w,g,lower,,,,,,,1,w,HiDemTar,g,1,0.5352604109793901,,,,351,2023-11-14_10h14.28.234,leap3,2022.2.5,60.08469603243979,
,,,,,,,,,,,,,,,,,,,,16,0,16,0,12,0,12,0,,,,,,contain,w,g,lower,,,,,,,1,w,HiDemTar,g,1,0.5118264388293028,,,,351,2023-11-14_10h14.28.234,leap3,2022.2.5,60.08469603243979,
,,,,,,,,,,,,,,,,,,,,16,0,16,0,13,0,13,0,,,,,,monopoly,w,g,lower,,,,,,,1,w,HiDemTar,g,1,0.497843811288476,,,,351,2023-11-14_10h14.28.234,leap3,2022.2.5,60.08469603243979,
,,,,,,,,,,,,,,,,,,,,16,0,16,0,14,0,14,0,,,,,,sludding,nw,h,lower,,,,,,,1,nw,HiDemTar,h,1,1.0925000226125121,,,,351,2023-11-14_10h14.28.234,leap3,2022.2.5,60.08469603243979,
,,,,,,,,,,,,,,,,,,,,16,0,16,0,15,0,15,0,,,,,,overflow,w,g,lower,,,,,,,1,w,HiDemTar,g,1,0.5831011990085244,,,,351,2023-11-14_10h14.28.234,leap3,2022.2.5,60.08469603243979,
,,,,,,,,,,,,,,,,,,,,16,0,16,0,16,0,16,0,,,,,,sarlock,nw,h,lower,,,,,,,1,nw,HiDemTar,g,0,2.1505494816228747,,,,351,2023-11-14_10h14.28.234,leap3,2022.2.5,60.08469603243979,
,,,,,,,,,,,,,,,,,,,,16,0,16,0,17,0,17,0,,,,,,railway,w,g,lower,,,,,,,1,w,HiDemTar,g,1,0.4624121366068721,,,,351,2023-11-14_10h14.28.234,leap3,2022.2.5,60.08469603243979,
,,,,,,,,,,,,,,,,,,,,16,0,16,0,18,0,18,0,,,,,,hindsight,w,g,lower,,,,,,,1,w,HiDemTar,g,1,0.4655802929773927,,,,351,2023-11-14_10h14.28.234,leap3,2022.2.5,60.08469603243979,
,,,,,,,,,,,,,,,,,,,,16,0,16,0,19,0,19,0,,,,,,atabaster,nw,h,lower,,,,,,,1,nw,HiDemTar,h,1,0.5013892715796828,,,,351,2023-11-14_10h14.28.234,leap3,2022.2.5,60.08469603243979,
,,,,,,,,,,,,,,,,,,,,16,0,16,0,20,0,20,0,,,,,,peanimate,nw,h,lower,,,,,,,1,nw,HiDemTar,h,1,0.6553847221657634,,,,351,2023-11-14_10h14.28.234,leap3,2022.2.5,60.08469603243979,
,,,,,,,,,,,,,,,,,,,,16,0,16,0,21,0,21,0,,,,,,chappef,nw,h,lower,,,,,,,1,nw,HiDemTar,h,1,0.44334826432168484,,,,351,2023-11-14_10h14.28.234,leap3,2022.2.5,60.08469603243979,
,,,,,,,,,,,,,,,,,,,,16,0,16,0,22,0,22,0,,,,,,heuls,nw,h,lower,,,,,,,1,nw,HiDemTar,h,1,0.6799916606396437,,,,351,2023-11-14_10h14.28.234,leap3,2022.2.5,60.08469603243979,
,,,,,,,,,,,,,,,,,,,,16,0,16,0,23,0,23,0,,,,,,kangaroo,target,q,lower,,,,,,,1,target,HiDemTar,g,0,0.47429121378809214,,,,351,2023-11-14_10h14.28.234,leap3,2022.2.5,60.08469603243979,
,,,,,,,,,,,,,,,,,,,,16,0,16,0,24,0,24,0,,,,,,remain,w,g,lower,,,,,,,1,aftertar1,HiDemTar,g,1,0.6453834185376763,,,,351,2023-11-14_10h14.28.234,leap3,2022.2.5,60.08469603243979,
,,,,,,,,,,,,,,,,,,,,16,0,16,0,25,0,25,0,,,,,,dumult,nw,h,lower,,,,,,,1,aftertar2,HiDemTar,h,1,0.5467537306249142,,,,351,2023-11-14_10h14.28.234,leap3,2022.2.5,60.08469603243979,
,,,,,,,,,,,,,,,,,,,,16,0,16,0,26,0,26,0,,,,,,olgies,nw,h,lower,,,,,,,1,aftertar3,HiDemTar,h,1,0.6199340326711535,,,,351,2023-11-14_10h14.28.234,leap3,2022.2.5,60.08469603243979,
,,,,,,,,,,,,,,,,,,,,16,0,16,0,27,0,27,0,,,,,,diatonic,w,g,lower,,,,,,,1,nw,HiDemTar,g,1,0.5291930418461561,,,,351,2023-11-14_10h14.28.234,leap3,2022.2.5,60.08469603243979,
,,,,,,,,,,,,,,,,,,,,16,0,16,0,28,0,28,0,,,,,,boulder,w,g,lower,,,,,,,1,w,HiDemTar,g,1,0.4496048903092742,,,,351,2023-11-14_10h14.28.234,leap3,2022.2.5,60.08469603243979,
,,,,,,,,,,,,,,,,,,,,16,0,16,0,29,0,29,0,,,,,,catgup,nw,h,lower,,,,,,,1,w,HiDemTar,h,1,0.646272350102663,,,,351,2023-11-14_10h14.28.234,leap3,2022.2.5,60.08469603243979,
,,,,,,,,,,,,,,,,,,,,16,0,16,0,,,,,,,,,,,,,,,,,,,,,,,,,,0,,,351,2023-11-14_10h14.28.234,leap3,2022.2.5,60.08469603243979,
,,,,,,,,,,,,,,,,,,,,17,0,17,0,0,0,0,0,,,,,,tredits,nw,h,lower,,,,,,,1,nw,HiDemTar,h,1,0.6273364592343569,,,,351,2023-11-14_10h14.28.234,leap3,2022.2.5,60.08469603243979,
,,,,,,,,,,,,,,,,,,,,17,0,17,0,1,0,1,0,,,,,,cripet,nw,h,lower,,,,,,,1,nw,HiDemTar,h,1,0.5285999178886414,,,,351,2023-11-14_10h14.28.234,leap3,2022.2.5,60.08469603243979,
,,,,,,,,,,,,,,,,,,,,17,0,17,0,2,0,2,0,,,,,,equitable,w,g,lower,,,,,,,1,w,HiDemTar,g,1,0.7379134399816394,,,,351,2023-11-14_10h14.28.234,leap3,2022.2.5,60.08469603243979,
,,,,,,,,,,,,,,,,,,,,17,0,17,0,3,0,3,0,,,,,,unamufed,nw,h,lower,,,,,,,1,nw,HiDemTar,h,1,0.4656451903283596,,,,351,2023-11-14_10h14.28.234,leap3,2022.2.5,60.08469603243979,
,,,,,,,,,,,,,,,,,,,,17,0,17,0,4,0,4,0,,,,,,reprint,w,g,lower,,,,,,,1,w,HiDemTar,h,0,0.41457829158753157,,,,351,2023-11-14_10h14.28.234,leap3,2022.2.5,60.08469603243979,
,,,,,,,,,,,,,,,,,,,,17,0,17,0,5,0,5,0,,,,,,aicline,nw,h,lower,,,,,,,1,nw,HiDemTar,h,1,0.579527665860951,,,,351,2023-11-14_10h14.28.234,leap3,2022.2.5,60.08469603243979,
,,,,,,,,,,,,,,,,,,,,17,0,17,0,6,0,6,0,,,,,,entropy,w,g,lower,,,,,,,1,w,HiDemTar,h,0,0.5867812829092145,,,,351,2023-11-14_10h14.28.234,leap3,2022.2.5,60.08469603243979,
,,,,,,,,,,,,,,,,,,,,17,0,17,0,7,0,7,0,,,,,,scabry,nw,h,lower,,,,,,,1,nw,HiDemTar,h,1,0.5053820656612515,,,,351,2023-11-14_10h14.28.234,leap3,2022.2.5,60.08469603243979,
,,,,,,,,,,,,,,,,,,,,17,0,17,0,8,0,8,0,,,,,,robbery,w,g,lower,,,,,,,1,w,HiDemTar,h,0,0.4194322479888797,,,,351,2023-11-14_10h14.28.234,leap3,2022.2.5,60.08469603243979,
,,,,,,,,,,,,,,,,,,,,17,0,17,0,9,0,9,0,,,,,,holdup,w,g,lower,,,,,,,1,w,HiDemTar,g,1,0.45669007766991854,,,,351,2023-11-14_10h14.28.234,leap3,2022.2.5,60.08469603243979,
,,,,,,,,,,,,,,,,,,,,17,0,17,0,10,0,10,0,,,,,,scrobby,nw,h,lower,,,,,,,1,nw,HiDemTar,h,1,0.644681328907609,,,,351,2023-11-14_10h14.28.234,leap3,2022.2.5,60.08469603243979,
,,,,,,,,,,,,,,,,,,,,17,0,17,0,11,0,11,0,,,,,,intersect,w,g,lower,,,,,,,1,w,HiDemTar,g,1,0.4813293134793639,,,,351,2023-11-14_10h14.28.234,leap3,2022.2.5,60.08469603243979,
,,,,,,,,,,,,,,,,,,,,17,0,17,0,12,0,12,0,,,,,,apology,w,g,lower,,,,,,,1,w,HiDemTar,g,1,0.40467689745128155,,,,351,2023-11-14_10h14.28.234,leap3,2022.2.5,60.08469603243979,
,,,,,,,,,,,,,,,,,,,,17,0,17,0,13,0,13,0,,,,,,graciap,nw,h,lower,,,,,,,1,nw,HiDemTar,h,1,0.5058297012001276,,,,351,2023-11-14_10h14.28.234,leap3,2022.2.5,60.08469603243979,
,,,,,,,,,,,,,,,,,,,,17,0,17,0,14,0,14,0,,,,,,frogmy,nw,h,lower,,,,,,,1,nw,HiDemTar,h,1,0.5793984774500132,,,,351,2023-11-14_10h14.28.234,leap3,2022.2.5,60.08469603243979,
,,,,,,,,,,,,,,,,,,,,17,0,17,0,15,0,15,0,,,,,,gontracts,nw,h,lower,,,,,,,1,nw,HiDemTar,h,1,0.5455789538100362,,,,351,2023-11-14_10h14.28.234,leap3,2022.2.5,60.08469603243979,
,,,,,,,,,,,,,,,,,,,,17,0,17,0,16,0,16,0,,,,,,roaned,nw,h,lower,,,,,,,1,nw,HiDemTar,h,1,0.6109110061079264,,,,351,2023-11-14_10h14.28.234,leap3,2022.2.5,60.08469603243979,
,,,,,,,,,,,,,,,,,,,,17,0,17,0,17,0,17,0,,,,,,butled,nw,h,lower,,,,,,,1,nw,HiDemTar,h,1,0.6734525095671415,,,,351,2023-11-14_10h14.28.234,leap3,2022.2.5,60.08469603243979,
,,,,,,,,,,,,,,,,,,,,17,0,17,0,18,0,18,0,,,,,,purpose,w,g,lower,,,,,,,1,w,HiDemTar,g,1,0.7168398890644312,,,,351,2023-11-14_10h14.28.234,leap3,2022.2.5,60.08469603243979,
,,,,,,,,,,,,,,,,,,,,17,0,17,0,19,0,19,0,,,,,,metebing,nw,h,lower,,,,,,,1,nw,HiDemTar,h,1,0.6467963512986898,,,,351,2023-11-14_10h14.28.234,leap3,2022.2.5,60.08469603243979,
,,,,,,,,,,,,,,,,,,,,17,0,17,0,20,0,20,0,,,,,,collision,w,g,lower,,,,,,,1,w,HiDemTar,g,1,0.3794541973620653,,,,351,2023-11-14_10h14.28.234,leap3,2022.2.5,60.08469603243979,
,,,,,,,,,,,,,,,,,,,,17,0,17,0,21,0,21,0,,,,,,fallacy,w,g,lower,,,,,,,1,w,HiDemTar,g,1,0.618732693605125,,,,351,2023-11-14_10h14.28.234,leap3,2022.2.5,60.08469603243979,
,,,,,,,,,,,,,,,,,,,,17,0,17,0,22,0,22,0,,,,,,porghum,nw,h,lower,,,,,,,1,nw,HiDemTar,h,1,0.5201313784345984,,,,351,2023-11-14_10h14.28.234,leap3,2022.2.5,60.08469603243979,
,,,,,,,,,,,,,,,,,,,,17,0,17,0,23,0,23,0,,,,,,insertion,w,g,lower,,,,,,,1,w,HiDemTar,g,1,0.465490042231977,,,,351,2023-11-14_10h14.28.234,leap3,2022.2.5,60.08469603243979,
,,,,,,,,,,,,,,,,,,,,17,0,17,0,24,0,24,0,,,,,,pressures,w,g,lower,,,,,,,1,w,HiDemTar,g,1,0.452339899726212,,,,351,2023-11-14_10h14.28.234,leap3,2022.2.5,60.08469603243979,
