demoRace_loop.thisRepN,demoRace_loop.thisTrialN,demoRace_loop.thisN,demoRace_loop.thisIndex,LDTunderstand.thisRepN,LDTunderstand.thisTrialN,LDTunderstand.thisN,LDTunderstand.thisIndex,pracBlocks.thisRepN,pracBlocks.thisTrialN,pracBlocks.thisN,pracBlocks.thisIndex,pracTrial.thisRepN,pracTrial.thisTrialN,pracTrial.thisN,pracTrial.thisIndex,PMunderstand.thisRepN,PMunderstand.thisTrialN,PMunderstand.thisN,PMunderstand.thisIndex,LDT_block.thisRepN,LDT_block.thisTrialN,LDT_block.thisN,LDT_block.thisIndex,LDT_trial.thisRepN,LDT_trial.thisTrialN,LDT_trial.thisN,LDT_trial.thisIndex,ageTextbox.text,genderTextbox.text,race,raceResp,LDTunderstand,stim,word_type,corr_key,stim_location,LDTpracKey.keys,LDTpracKey.corr,LDTpracKey.rt,PMunderstand,cueTextbox.text,intentionTextbox.text,block_type,role,block_desc,LDTResp.keys,LDTResp.corr,LDTResp.rt,pressedQ,PM_accuracy,pressedQ_late,pressedQ_blank,postQ1,Q2Textbox.text,Q3Textbox.text,Q4,Q5,Q6Key.keys,Q6Key.rt,postQ7_correct,postQ7,Q8Textbox.text,education,medTextbox.text,health,healthLimit,psych,participant,date,expName,psychopyVersion,frameRate,
0,0,0,0,,,,,,,,,,,,,,,,,,,,,,,,,"
20
 ",female,American Indian or Alaska Native,n,,,,,,,,,,,,,,,,,,,,,,,,,,,,,,,,,,,,,352,2023-11-14_10h41.18.936,leap3,2022.2.5,59.9947303133085,
1,0,1,0,,,,,,,,,,,,,,,,,,,,,,,,,,,Asian,n,,,,,,,,,,,,,,,,,,,,,,,,,,,,,,,,,,,,,352,2023-11-14_10h41.18.936,leap3,2022.2.5,59.9947303133085,
2,0,2,0,,,,,,,,,,,,,,,,,,,,,,,,,,,Black or African American,n,,,,,,,,,,,,,,,,,,,,,,,,,,,,,,,,,,,,,352,2023-11-14_10h41.18.936,leap3,2022.2.5,59.9947303133085,
3,0,3,0,,,,,,,,,,,,,,,,,,,,,,,,,,,Native Hawaiian or other Pacific Islander,n,,,,,,,,,,,,,,,,,,,,,,,,,,,,,,,,,,,,,352,2023-11-14_10h41.18.936,leap3,2022.2.5,59.9947303133085,
4,0,4,0,,,,,,,,,,,,,,,,,,,,,,,,,,,White,n,,,,,,,,,,,,,,,,,,,,,,,,,,,,,,,,,,,,,352,2023-11-14_10h41.18.936,leap3,2022.2.5,59.9947303133085,
,,,,0,0,0,0,,,,,,,,,,,,,,,,,,,,,,,,,y,,,,,,,,,,,,,,,,,,,,,,,,,,,,,,,,,,,,352,2023-11-14_10h41.18.936,leap3,2022.2.5,59.9947303133085,
,,,,,,,,0,0,0,0,0,0,0,0,,,,,,,,,,,,,,,,,,tricycle,w,g,upper,g,1,0.5920948218554258,,,,,,,,,,,,,,,,,,,,,,,,,,,,,352,2023-11-14_10h41.18.936,leap3,2022.2.5,59.9947303133085,
,,,,,,,,0,0,0,0,1,0,1,0,,,,,,,,,,,,,,,,,,picture,w,g,upper,g,1,0.5552067290991545,,,,,,,,,,,,,,,,,,,,,,,,,,,,,352,2023-11-14_10h41.18.936,leap3,2022.2.5,59.9947303133085,
,,,,,,,,0,0,0,0,2,0,2,0,,,,,,,,,,,,,,,,,,summary,w,g,upper,g,1,0.41867327643558383,,,,,,,,,,,,,,,,,,,,,,,,,,,,,352,2023-11-14_10h41.18.936,leap3,2022.2.5,59.9947303133085,
,,,,,,,,0,0,0,0,3,0,3,0,,,,,,,,,,,,,,,,,,lumbigo,nw,h,upper,g,0,0.5260927006602287,,,,,,,,,,,,,,,,,,,,,,,,,,,,,352,2023-11-14_10h41.18.936,leap3,2022.2.5,59.9947303133085,
,,,,,,,,0,0,0,0,4,0,4,0,,,,,,,,,,,,,,,,,,julled,nw,h,upper,h,1,0.5208188337273896,,,,,,,,,,,,,,,,,,,,,,,,,,,,,352,2023-11-14_10h41.18.936,leap3,2022.2.5,59.9947303133085,
,,,,,,,,0,0,0,0,5,0,5,0,,,,,,,,,,,,,,,,,,revival,w,g,upper,g,1,0.611047781072557,,,,,,,,,,,,,,,,,,,,,,,,,,,,,352,2023-11-14_10h41.18.936,leap3,2022.2.5,59.9947303133085,
,,,,,,,,0,0,0,0,6,0,6,0,,,,,,,,,,,,,,,,,,treeps,nw,h,upper,g,0,0.5784471211954951,,,,,,,,,,,,,,,,,,,,,,,,,,,,,352,2023-11-14_10h41.18.936,leap3,2022.2.5,59.9947303133085,
,,,,,,,,0,0,0,0,7,0,7,0,,,,,,,,,,,,,,,,,,hiring,w,g,upper,g,1,0.8178988583385944,,,,,,,,,,,,,,,,,,,,,,,,,,,,,352,2023-11-14_10h41.18.936,leap3,2022.2.5,59.9947303133085,
,,,,,,,,0,0,0,0,8,0,8,0,,,,,,,,,,,,,,,,,,turative,nw,h,upper,h,1,0.5821257275529206,,,,,,,,,,,,,,,,,,,,,,,,,,,,,352,2023-11-14_10h41.18.936,leap3,2022.2.5,59.9947303133085,
,,,,,,,,0,0,0,0,9,0,9,0,,,,,,,,,,,,,,,,,,alolition,nw,h,upper,h,1,0.549465904943645,,,,,,,,,,,,,,,,,,,,,,,,,,,,,352,2023-11-14_10h41.18.936,leap3,2022.2.5,59.9947303133085,
,,,,,,,,0,0,0,0,10,0,10,0,,,,,,,,,,,,,,,,,,latador,nw,h,upper,h,1,0.422113424167037,,,,,,,,,,,,,,,,,,,,,,,,,,,,,352,2023-11-14_10h41.18.936,leap3,2022.2.5,59.9947303133085,
,,,,,,,,0,0,0,0,11,0,11,0,,,,,,,,,,,,,,,,,,grimace,w,g,upper,h,0,0.459479340352118,,,,,,,,,,,,,,,,,,,,,,,,,,,,,352,2023-11-14_10h41.18.936,leap3,2022.2.5,59.9947303133085,
,,,,,,,,0,0,0,0,12,0,12,0,,,,,,,,,,,,,,,,,,slumber,w,g,upper,h,0,0.5754540078341961,,,,,,,,,,,,,,,,,,,,,,,,,,,,,352,2023-11-14_10h41.18.936,leap3,2022.2.5,59.9947303133085,
,,,,,,,,0,0,0,0,13,0,13,0,,,,,,,,,,,,,,,,,,grutch,nw,h,upper,h,1,0.662804544903338,,,,,,,,,,,,,,,,,,,,,,,,,,,,,352,2023-11-14_10h41.18.936,leap3,2022.2.5,59.9947303133085,
,,,,,,,,0,0,0,0,,,,,,,,,,,,,,,,,,,,,,,,,,,,,,,,,,,,,,,,,,,,,,,,,,,,,,,,,352,2023-11-14_10h41.18.936,leap3,2022.2.5,59.9947303133085,
,,,,,,,,1,0,1,0,0,0,0,0,,,,,,,,,,,,,,,,,,unscrew,w,g,lower,g,1,1.2958074463531375,,,,,,,,,,,,,,,,,,,,,,,,,,,,,352,2023-11-14_10h41.18.936,leap3,2022.2.5,59.9947303133085,
,,,,,,,,1,0,1,0,1,0,1,0,,,,,,,,,,,,,,,,,,sponsor,w,g,lower,g,1,0.5726287220604718,,,,,,,,,,,,,,,,,,,,,,,,,,,,,352,2023-11-14_10h41.18.936,leap3,2022.2.5,59.9947303133085,
,,,,,,,,1,0,1,0,2,0,2,0,,,,,,,,,,,,,,,,,,umpire,w,g,lower,g,1,0.5724793076515198,,,,,,,,,,,,,,,,,,,,,,,,,,,,,352,2023-11-14_10h41.18.936,leap3,2022.2.5,59.9947303133085,
,,,,,,,,1,0,1,0,3,0,3,0,,,,,,,,,,,,,,,,,,grocus,nw,h,lower,h,1,0.5474637555889785,,,,,,,,,,,,,,,,,,,,,,,,,,,,,352,2023-11-14_10h41.18.936,leap3,2022.2.5,59.9947303133085,
,,,,,,,,1,0,1,0,4,0,4,0,,,,,,,,,,,,,,,,,,lurshing,nw,h,lower,h,1,0.5479584825225174,,,,,,,,,,,,,,,,,,,,,,,,,,,,,352,2023-11-14_10h41.18.936,leap3,2022.2.5,59.9947303133085,
,,,,,,,,1,0,1,0,5,0,5,0,,,,,,,,,,,,,,,,,,reputable,w,g,lower,g,1,0.6214228589087725,,,,,,,,,,,,,,,,,,,,,,,,,,,,,352,2023-11-14_10h41.18.936,leap3,2022.2.5,59.9947303133085,
,,,,,,,,1,0,1,0,6,0,6,0,,,,,,,,,,,,,,,,,,trotch,nw,h,lower,h,1,0.49076515622437,,,,,,,,,,,,,,,,,,,,,,,,,,,,,352,2023-11-14_10h41.18.936,leap3,2022.2.5,59.9947303133085,
,,,,,,,,1,0,1,0,7,0,7,0,,,,,,,,,,,,,,,,,,overshoot,w,g,lower,g,1,0.8214165805839002,,,,,,,,,,,,,,,,,,,,,,,,,,,,,352,2023-11-14_10h41.18.936,leap3,2022.2.5,59.9947303133085,
,,,,,,,,1,0,1,0,8,0,8,0,,,,,,,,,,,,,,,,,,hasking,nw,h,lower,h,1,0.5057714693248272,,,,,,,,,,,,,,,,,,,,,,,,,,,,,352,2023-11-14_10h41.18.936,leap3,2022.2.5,59.9947303133085,
,,,,,,,,1,0,1,0,9,0,9,0,,,,,,,,,,,,,,,,,,crinklo,nw,h,lower,h,1,0.5237778378650546,,,,,,,,,,,,,,,,,,,,,,,,,,,,,352,2023-11-14_10h41.18.936,leap3,2022.2.5,59.9947303133085,
,,,,,,,,1,0,1,0,10,0,10,0,,,,,,,,,,,,,,,,,,curlecs,nw,h,lower,h,1,0.9651523996144533,,,,,,,,,,,,,,,,,,,,,,,,,,,,,352,2023-11-14_10h41.18.936,leap3,2022.2.5,59.9947303133085,
,,,,,,,,1,0,1,0,11,0,11,0,,,,,,,,,,,,,,,,,,busted,w,g,lower,g,1,0.5892043365165591,,,,,,,,,,,,,,,,,,,,,,,,,,,,,352,2023-11-14_10h41.18.936,leap3,2022.2.5,59.9947303133085,
,,,,,,,,1,0,1,0,12,0,12,0,,,,,,,,,,,,,,,,,,infinity,w,g,lower,h,0,0.6275995499454439,,,,,,,,,,,,,,,,,,,,,,,,,,,,,352,2023-11-14_10h41.18.936,leap3,2022.2.5,59.9947303133085,
,,,,,,,,1,0,1,0,13,0,13,0,,,,,,,,,,,,,,,,,,raestro,nw,h,lower,h,1,0.48922362457960844,,,,,,,,,,,,,,,,,,,,,,,,,,,,,352,2023-11-14_10h41.18.936,leap3,2022.2.5,59.9947303133085,
,,,,,,,,1,0,1,0,,,,,,,,,,,,,,,,,,,,,,,,,,,,,,,,,,,,,,,,,,,,,,,,,,,,,,,,,352,2023-11-14_10h41.18.936,leap3,2022.2.5,59.9947303133085,
,,,,,,,,,,,,,,,,0,0,0,0,,,,,,,,,,,,,,,,,,,,,y,,,,,,,,,,,,,,,,,,,,,,,,,,,,352,2023-11-14_10h41.18.936,leap3,2022.2.5,59.9947303133085,
,,,,,,,,,,,,,,,,,,,,0,0,0,0,0,0,0,0,,,,,,insole,w,g,upper,,,,,animal,"
q ",1,w,HiDemTar,h,0,0.7116499957628548,,,,,,,,,,,,,,,,,,,,352,2023-11-14_10h41.18.936,leap3,2022.2.5,59.9947303133085,
,,,,,,,,,,,,,,,,,,,,0,0,0,0,1,0,1,0,,,,,,micron,w,g,upper,,,,,,,1,w,HiDemTar,h,0,0.4902583556249738,,,,,,,,,,,,,,,,,,,,352,2023-11-14_10h41.18.936,leap3,2022.2.5,59.9947303133085,
,,,,,,,,,,,,,,,,,,,,0,0,0,0,2,0,2,0,,,,,,thamp,nw,h,upper,,,,,,,1,nw,HiDemTar,h,1,0.6854898403398693,,,,,,,,,,,,,,,,,,,,352,2023-11-14_10h41.18.936,leap3,2022.2.5,59.9947303133085,
,,,,,,,,,,,,,,,,,,,,0,0,0,0,3,0,3,0,,,,,,disuse,w,g,upper,,,,,,,1,w,HiDemTar,g,1,0.5449351845309138,,,,,,,,,,,,,,,,,,,,352,2023-11-14_10h41.18.936,leap3,2022.2.5,59.9947303133085,
,,,,,,,,,,,,,,,,,,,,0,0,0,0,4,0,4,0,,,,,,fission,w,g,upper,,,,,,,1,w,HiDemTar,g,1,0.601343406829983,,,,,,,,,,,,,,,,,,,,352,2023-11-14_10h41.18.936,leap3,2022.2.5,59.9947303133085,
,,,,,,,,,,,,,,,,,,,,0,0,0,0,5,0,5,0,,,,,,childhood,w,g,upper,,,,,,,1,w,HiDemTar,h,0,0.43063244642689824,,,,,,,,,,,,,,,,,,,,352,2023-11-14_10h41.18.936,leap3,2022.2.5,59.9947303133085,
,,,,,,,,,,,,,,,,,,,,0,0,0,0,6,0,6,0,,,,,,saturate,w,g,upper,,,,,,,1,w,HiDemTar,g,1,0.7166721224784851,,,,,,,,,,,,,,,,,,,,352,2023-11-14_10h41.18.936,leap3,2022.2.5,59.9947303133085,
,,,,,,,,,,,,,,,,,,,,0,0,0,0,7,0,7,0,,,,,,otoist,nw,h,upper,,,,,,,1,nw,HiDemTar,h,1,0.5198046285659075,,,,,,,,,,,,,,,,,,,,352,2023-11-14_10h41.18.936,leap3,2022.2.5,59.9947303133085,
,,,,,,,,,,,,,,,,,,,,0,0,0,0,8,0,8,0,,,,,,trembla,nw,h,upper,,,,,,,1,nw,HiDemTar,h,1,0.5383778647519648,,,,,,,,,,,,,,,,,,,,352,2023-11-14_10h41.18.936,leap3,2022.2.5,59.9947303133085,
,,,,,,,,,,,,,,,,,,,,0,0,0,0,9,0,9,0,,,,,,minister,w,g,upper,,,,,,,1,w,HiDemTar,g,1,0.5877995416522026,,,,,,,,,,,,,,,,,,,,352,2023-11-14_10h41.18.936,leap3,2022.2.5,59.9947303133085,
,,,,,,,,,,,,,,,,,,,,0,0,0,0,10,0,10,0,,,,,,birn,nw,h,upper,,,,,,,1,nw,HiDemTar,h,1,0.9310889896005392,,,,,,,,,,,,,,,,,,,,352,2023-11-14_10h41.18.936,leap3,2022.2.5,59.9947303133085,
,,,,,,,,,,,,,,,,,,,,0,0,0,0,11,0,11,0,,,,,,pressures,w,g,upper,,,,,,,1,w,HiDemTar,g,1,0.5890422449447215,,,,,,,,,,,,,,,,,,,,352,2023-11-14_10h41.18.936,leap3,2022.2.5,59.9947303133085,
,,,,,,,,,,,,,,,,,,,,0,0,0,0,12,0,12,0,,,,,,spider,target,q,upper,,,,,,,1,target,HiDemTar,q,1,1.1884523155167699,1,,,,,,,,,,,,,,,,,,,352,2023-11-14_10h41.18.936,leap3,2022.2.5,59.9947303133085,
,,,,,,,,,,,,,,,,,,,,0,0,0,0,13,0,13,0,,,,,,butled,nw,h,upper,,,,,,,1,aftertar1,HiDemTar,h,1,0.9469763934612274,,,,,,,,,,,,,,,,,,,,352,2023-11-14_10h41.18.936,leap3,2022.2.5,59.9947303133085,
,,,,,,,,,,,,,,,,,,,,0,0,0,0,14,0,14,0,,,,,,lofty,w,g,upper,,,,,,,1,aftertar2,HiDemTar,h,0,0.9960778104141355,,,,,,,,,,,,,,,,,,,,352,2023-11-14_10h41.18.936,leap3,2022.2.5,59.9947303133085,
,,,,,,,,,,,,,,,,,,,,0,0,0,0,15,0,15,0,,,,,,dounger,nw,h,upper,,,,,,,1,aftertar3,HiDemTar,h,1,0.8274707216769457,,,,,,,,,,,,,,,,,,,,352,2023-11-14_10h41.18.936,leap3,2022.2.5,59.9947303133085,
,,,,,,,,,,,,,,,,,,,,0,0,0,0,16,0,16,0,,,,,,handcuff,w,g,upper,,,,,,,1,nw,HiDemTar,g,1,0.6735499887727201,,,,,,,,,,,,,,,,,,,,352,2023-11-14_10h41.18.936,leap3,2022.2.5,59.9947303133085,
,,,,,,,,,,,,,,,,,,,,0,0,0,0,17,0,17,0,,,,,,bellicove,nw,h,upper,,,,,,,1,w,HiDemTar,h,1,0.6214702492579818,,,,,,,,,,,,,,,,,,,,352,2023-11-14_10h41.18.936,leap3,2022.2.5,59.9947303133085,
,,,,,,,,,,,,,,,,,,,,0,0,0,0,18,0,18,0,,,,,,pircus,nw,h,upper,,,,,,,1,nw,HiDemTar,h,1,0.4914349541068077,,,,,,,,,,,,,,,,,,,,352,2023-11-14_10h41.18.936,leap3,2022.2.5,59.9947303133085,
,,,,,,,,,,,,,,,,,,,,0,0,0,0,19,0,19,0,,,,,,mitro,nw,h,upper,,,,,,,1,nw,HiDemTar,h,1,0.5108277047984302,,,,,,,,,,,,,,,,,,,,352,2023-11-14_10h41.18.936,leap3,2022.2.5,59.9947303133085,
,,,,,,,,,,,,,,,,,,,,0,0,0,0,20,0,20,0,,,,,,peadgear,nw,h,upper,,,,,,,1,nw,HiDemTar,h,1,0.5935485153459013,,,,,,,,,,,,,,,,,,,,352,2023-11-14_10h41.18.936,leap3,2022.2.5,59.9947303133085,
,,,,,,,,,,,,,,,,,,,,0,0,0,0,21,0,21,0,,,,,,analysis,w,g,upper,,,,,,,1,nw,HiDemTar,g,1,0.6247996194288135,,,,,,,,,,,,,,,,,,,,352,2023-11-14_10h41.18.936,leap3,2022.2.5,59.9947303133085,
,,,,,,,,,,,,,,,,,,,,0,0,0,0,22,0,22,0,,,,,,cripet,nw,h,upper,,,,,,,1,w,HiDemTar,h,1,0.9028297909535468,,,,,,,,,,,,,,,,,,,,352,2023-11-14_10h41.18.936,leap3,2022.2.5,59.9947303133085,
,,,,,,,,,,,,,,,,,,,,0,0,0,0,23,0,23,0,,,,,,abstain,w,g,upper,,,,,,,1,nw,HiDemTar,g,1,0.6176712051965296,,,,,,,,,,,,,,,,,,,,352,2023-11-14_10h41.18.936,leap3,2022.2.5,59.9947303133085,
,,,,,,,,,,,,,,,,,,,,0,0,0,0,24,0,24,0,,,,,,drobate,nw,h,upper,,,,,,,1,w,HiDemTar,g,0,0.6305135791189969,,,,,,,,,,,,,,,,,,,,352,2023-11-14_10h41.18.936,leap3,2022.2.5,59.9947303133085,
,,,,,,,,,,,,,,,,,,,,0,0,0,0,25,0,25,0,,,,,,blocking,w,g,upper,,,,,,,1,nw,HiDemTar,g,1,0.46851089783012867,,,,,,,,,,,,,,,,,,,,352,2023-11-14_10h41.18.936,leap3,2022.2.5,59.9947303133085,
,,,,,,,,,,,,,,,,,,,,0,0,0,0,26,0,26,0,,,,,,shimble,nw,h,upper,,,,,,,1,w,HiDemTar,h,1,0.6725077116861939,,,,,,,,,,,,,,,,,,,,352,2023-11-14_10h41.18.936,leap3,2022.2.5,59.9947303133085,
,,,,,,,,,,,,,,,,,,,,0,0,0,0,27,0,27,0,,,,,,cessation,w,g,upper,,,,,,,1,nw,HiDemTar,h,0,0.4844698398374021,,,,,,,,,,,,,,,,,,,,352,2023-11-14_10h41.18.936,leap3,2022.2.5,59.9947303133085,
,,,,,,,,,,,,,,,,,,,,0,0,0,0,28,0,28,0,,,,,,fallacy,w,g,upper,,,,,,,1,w,HiDemTar,h,0,0.5199283859692514,,,,,,,,,,,,,,,,,,,,352,2023-11-14_10h41.18.936,leap3,2022.2.5,59.9947303133085,
,,,,,,,,,,,,,,,,,,,,0,0,0,0,29,0,29,0,,,,,,glating,nw,h,upper,,,,,,,1,w,HiDemTar,h,1,0.7138821529224515,,,,,,,,,,,,,,,,,,,,352,2023-11-14_10h41.18.936,leap3,2022.2.5,59.9947303133085,
,,,,,,,,,,,,,,,,,,,,0,0,0,0,,,,,,,,,,,,,,,,,,,,,,,,,,,1,,,,,,,,,,,,,,,,,,352,2023-11-14_10h41.18.936,leap3,2022.2.5,59.9947303133085,
,,,,,,,,,,,,,,,,,,,,1,0,1,0,0,0,0,0,,,,,,probable,w,g,upper,,,,,,,1,w,HiDemTar,g,1,0.8195264162495732,,,,,,,,,,,,,,,,,,,,352,2023-11-14_10h41.18.936,leap3,2022.2.5,59.9947303133085,
,,,,,,,,,,,,,,,,,,,,1,0,1,0,1,0,1,0,,,,,,irfirm,nw,h,upper,,,,,,,1,nw,HiDemTar,h,1,0.5774818146601319,,,,,,,,,,,,,,,,,,,,352,2023-11-14_10h41.18.936,leap3,2022.2.5,59.9947303133085,
,,,,,,,,,,,,,,,,,,,,1,0,1,0,2,0,2,0,,,,,,brother,w,g,upper,,,,,,,1,w,HiDemTar,g,1,0.6174949272535741,,,,,,,,,,,,,,,,,,,,352,2023-11-14_10h41.18.936,leap3,2022.2.5,59.9947303133085,
,,,,,,,,,,,,,,,,,,,,1,0,1,0,3,0,3,0,,,,,,ofsters,nw,h,upper,,,,,,,1,nw,HiDemTar,h,1,0.5354819470085204,,,,,,,,,,,,,,,,,,,,352,2023-11-14_10h41.18.936,leap3,2022.2.5,59.9947303133085,
,,,,,,,,,,,,,,,,,,,,1,0,1,0,4,0,4,0,,,,,,subber,nw,h,upper,,,,,,,1,nw,HiDemTar,h,1,0.5207795933820307,,,,,,,,,,,,,,,,,,,,352,2023-11-14_10h41.18.936,leap3,2022.2.5,59.9947303133085,
,,,,,,,,,,,,,,,,,,,,1,0,1,0,5,0,5,0,,,,,,army,w,g,upper,,,,,,,1,w,HiDemTar,g,1,0.5868423851206899,,,,,,,,,,,,,,,,,,,,352,2023-11-14_10h41.18.936,leap3,2022.2.5,59.9947303133085,
,,,,,,,,,,,,,,,,,,,,1,0,1,0,6,0,6,0,,,,,,fillings,w,g,upper,,,,,,,1,w,HiDemTar,g,1,0.8902204432524741,,,,,,,,,,,,,,,,,,,,352,2023-11-14_10h41.18.936,leap3,2022.2.5,59.9947303133085,
,,,,,,,,,,,,,,,,,,,,1,0,1,0,7,0,7,0,,,,,,opert,nw,h,upper,,,,,,,1,nw,HiDemTar,h,1,0.5174191333353519,,,,,,,,,,,,,,,,,,,,352,2023-11-14_10h41.18.936,leap3,2022.2.5,59.9947303133085,
,,,,,,,,,,,,,,,,,,,,1,0,1,0,8,0,8,0,,,,,,phonology,w,g,upper,,,,,,,1,w,HiDemTar,h,0,0.6384775047190487,,,,,,,,,,,,,,,,,,,,352,2023-11-14_10h41.18.936,leap3,2022.2.5,59.9947303133085,
,,,,,,,,,,,,,,,,,,,,1,0,1,0,9,0,9,0,,,,,,digar,nw,h,upper,,,,,,,1,nw,HiDemTar,h,1,0.8918504165485501,,,,,,,,,,,,,,,,,,,,352,2023-11-14_10h41.18.936,leap3,2022.2.5,59.9947303133085,
,,,,,,,,,,,,,,,,,,,,1,0,1,0,10,0,10,0,,,,,,peems,nw,h,upper,,,,,,,1,nw,HiDemTar,h,1,1.0631363955326378,,,,,,,,,,,,,,,,,,,,352,2023-11-14_10h41.18.936,leap3,2022.2.5,59.9947303133085,
,,,,,,,,,,,,,,,,,,,,1,0,1,0,11,0,11,0,,,,,,edasion,nw,h,upper,,,,,,,1,nw,HiDemTar,h,1,0.6678740615025163,,,,,,,,,,,,,,,,,,,,352,2023-11-14_10h41.18.936,leap3,2022.2.5,59.9947303133085,
,,,,,,,,,,,,,,,,,,,,1,0,1,0,12,0,12,0,,,,,,even,w,g,upper,,,,,,,1,w,HiDemTar,g,1,0.5678441487252712,,,,,,,,,,,,,,,,,,,,352,2023-11-14_10h41.18.936,leap3,2022.2.5,59.9947303133085,
,,,,,,,,,,,,,,,,,,,,1,0,1,0,13,0,13,0,,,,,,leather,w,g,upper,,,,,,,1,w,HiDemTar,h,0,0.6878828816115856,,,,,,,,,,,,,,,,,,,,352,2023-11-14_10h41.18.936,leap3,2022.2.5,59.9947303133085,
,,,,,,,,,,,,,,,,,,,,1,0,1,0,14,0,14,0,,,,,,latirizes,nw,h,upper,,,,,,,1,nw,HiDemTar,h,1,0.6413393141701818,,,,,,,,,,,,,,,,,,,,352,2023-11-14_10h41.18.936,leap3,2022.2.5,59.9947303133085,
,,,,,,,,,,,,,,,,,,,,1,0,1,0,15,0,15,0,,,,,,forgive,w,g,upper,,,,,,,1,w,HiDemTar,g,1,0.5605406635440886,,,,,,,,,,,,,,,,,,,,352,2023-11-14_10h41.18.936,leap3,2022.2.5,59.9947303133085,
,,,,,,,,,,,,,,,,,,,,1,0,1,0,16,0,16,0,,,,,,naxis,nw,h,upper,,,,,,,1,nw,HiDemTar,h,1,0.6723335459828377,,,,,,,,,,,,,,,,,,,,352,2023-11-14_10h41.18.936,leap3,2022.2.5,59.9947303133085,
,,,,,,,,,,,,,,,,,,,,1,0,1,0,17,0,17,0,,,,,,thesis,w,g,upper,,,,,,,1,w,HiDemTar,g,1,0.7642522319220006,,,,,,,,,,,,,,,,,,,,352,2023-11-14_10h41.18.936,leap3,2022.2.5,59.9947303133085,
,,,,,,,,,,,,,,,,,,,,1,0,1,0,18,0,18,0,,,,,,butterfly,target,q,upper,,,,,,,1,target,HiDemTar,g,0,0.6289029247127473,,,,,,,,,,,,,,,,,,,,352,2023-11-14_10h41.18.936,leap3,2022.2.5,59.9947303133085,
,,,,,,,,,,,,,,,,,,,,1,0,1,0,19,0,19,0,,,,,,committed,w,g,upper,,,,,,,1,aftertar1,HiDemTar,h,0,0.6749188639223576,,,,,,,,,,,,,,,,,,,,352,2023-11-14_10h41.18.936,leap3,2022.2.5,59.9947303133085,
,,,,,,,,,,,,,,,,,,,,1,0,1,0,20,0,20,0,,,,,,smallash,nw,h,upper,,,,,,,1,aftertar2,HiDemTar,q,0,2.302826893515885,,,1,,,,,,,,,,,,,,,,,352,2023-11-14_10h41.18.936,leap3,2022.2.5,59.9947303133085,
,,,,,,,,,,,,,,,,,,,,1,0,1,0,21,0,21,0,,,,,,kickoff,w,g,upper,,,,,,,1,aftertar3,HiDemTar,g,1,1.6722955130971968,,,,,,,,,,,,,,,,,,,,352,2023-11-14_10h41.18.936,leap3,2022.2.5,59.9947303133085,
,,,,,,,,,,,,,,,,,,,,1,0,1,0,22,0,22,0,,,,,,markot,nw,h,upper,,,,,,,1,w,HiDemTar,h,1,0.6853814772330225,,,,,,,,,,,,,,,,,,,,352,2023-11-14_10h41.18.936,leap3,2022.2.5,59.9947303133085,
,,,,,,,,,,,,,,,,,,,,1,0,1,0,23,0,23,0,,,,,,regional,w,g,upper,,,,,,,1,nw,HiDemTar,h,0,0.8558965395204723,,,,,,,,,,,,,,,,,,,,352,2023-11-14_10h41.18.936,leap3,2022.2.5,59.9947303133085,
,,,,,,,,,,,,,,,,,,,,1,0,1,0,24,0,24,0,,,,,,soluced,nw,h,upper,,,,,,,1,w,HiDemTar,h,1,0.7485054889693856,,,,,,,,,,,,,,,,,,,,352,2023-11-14_10h41.18.936,leap3,2022.2.5,59.9947303133085,
,,,,,,,,,,,,,,,,,,,,1,0,1,0,25,0,25,0,,,,,,sullen,w,g,upper,,,,,,,1,nw,HiDemTar,g,1,0.7417740034870803,,,,,,,,,,,,,,,,,,,,352,2023-11-14_10h41.18.936,leap3,2022.2.5,59.9947303133085,
,,,,,,,,,,,,,,,,,,,,1,0,1,0,26,0,26,0,,,,,,forbid,w,g,upper,,,,,,,1,w,HiDemTar,g,1,0.4150619814172387,,,,,,,,,,,,,,,,,,,,352,2023-11-14_10h41.18.936,leap3,2022.2.5,59.9947303133085,
,,,,,,,,,,,,,,,,,,,,1,0,1,0,27,0,27,0,,,,,,cheathe,nw,h,upper,,,,,,,1,w,HiDemTar,h,1,0.7657931600697339,,,,,,,,,,,,,,,,,,,,352,2023-11-14_10h41.18.936,leap3,2022.2.5,59.9947303133085,
,,,,,,,,,,,,,,,,,,,,1,0,1,0,28,0,28,0,,,,,,mopping,w,g,upper,,,,,,,1,nw,HiDemTar,g,1,0.8465030672959983,,,,,,,,,,,,,,,,,,,,352,2023-11-14_10h41.18.936,leap3,2022.2.5,59.9947303133085,
,,,,,,,,,,,,,,,,,,,,1,0,1,0,29,0,29,0,,,,,,crimb,nw,h,upper,,,,,,,1,w,HiDemTar,h,1,0.6918485444039106,,,,,,,,,,,,,,,,,,,,352,2023-11-14_10h41.18.936,leap3,2022.2.5,59.9947303133085,
,,,,,,,,,,,,,,,,,,,,1,0,1,0,,,,,,,,,,,,,,,,,,,,,,,,,,,0,,,,,,,,,,,,,,,,,,352,2023-11-14_10h41.18.936,leap3,2022.2.5,59.9947303133085,
,,,,,,,,,,,,,,,,,,,,2,0,2,0,0,0,0,0,,,,,,grolific,nw,h,lower,,,,,,,3,nw,LoDemNoTar,h,1,0.8702493542805314,,,,,,,,,,,,,,,,,,,,352,2023-11-14_10h41.18.936,leap3,2022.2.5,59.9947303133085,
,,,,,,,,,,,,,,,,,,,,2,0,2,0,1,0,1,0,,,,,,olgies,nw,h,lower,,,,,,,3,nw,LoDemNoTar,h,1,0.6741099148057401,,,,,,,,,,,,,,,,,,,,352,2023-11-14_10h41.18.936,leap3,2022.2.5,59.9947303133085,
,,,,,,,,,,,,,,,,,,,,2,0,2,0,2,0,2,0,,,,,,awful,w,g,lower,,,,,,,3,w,LoDemNoTar,g,1,0.7101443838328123,,,,,,,,,,,,,,,,,,,,352,2023-11-14_10h41.18.936,leap3,2022.2.5,59.9947303133085,
,,,,,,,,,,,,,,,,,,,,2,0,2,0,3,0,3,0,,,,,,infancy,w,g,lower,,,,,,,3,w,LoDemNoTar,g,1,0.8328309175558388,,,,,,,,,,,,,,,,,,,,352,2023-11-14_10h41.18.936,leap3,2022.2.5,59.9947303133085,
,,,,,,,,,,,,,,,,,,,,2,0,2,0,4,0,4,0,,,,,,rivet,w,g,lower,,,,,,,3,w,LoDemNoTar,h,0,0.5108434008434415,,,,,,,,,,,,,,,,,,,,352,2023-11-14_10h41.18.936,leap3,2022.2.5,59.9947303133085,
,,,,,,,,,,,,,,,,,,,,2,0,2,0,5,0,5,0,,,,,,efficient,w,g,lower,,,,,,,3,w,LoDemNoTar,g,1,0.705528543330729,,,,,,,,,,,,,,,,,,,,352,2023-11-14_10h41.18.936,leap3,2022.2.5,59.9947303133085,
,,,,,,,,,,,,,,,,,,,,2,0,2,0,6,0,6,0,,,,,,egect,nw,h,lower,,,,,,,3,nw,LoDemNoTar,h,1,0.660221641883254,,,,,,,,,,,,,,,,,,,,352,2023-11-14_10h41.18.936,leap3,2022.2.5,59.9947303133085,
,,,,,,,,,,,,,,,,,,,,2,0,2,0,7,0,7,0,,,,,,bedding,w,g,lower,,,,,,,3,w,LoDemNoTar,g,1,0.9439527941867709,,,,,,,,,,,,,,,,,,,,352,2023-11-14_10h41.18.936,leap3,2022.2.5,59.9947303133085,
,,,,,,,,,,,,,,,,,,,,2,0,2,0,8,0,8,0,,,,,,treason,w,g,lower,,,,,,,3,w,LoDemNoTar,h,0,0.6102122697047889,,,,,,,,,,,,,,,,,,,,352,2023-11-14_10h41.18.936,leap3,2022.2.5,59.9947303133085,
,,,,,,,,,,,,,,,,,,,,2,0,2,0,9,0,9,0,,,,,,vorm,nw,h,lower,,,,,,,3,nw,LoDemNoTar,h,1,0.7358547882176936,,,,,,,,,,,,,,,,,,,,352,2023-11-14_10h41.18.936,leap3,2022.2.5,59.9947303133085,
,,,,,,,,,,,,,,,,,,,,2,0,2,0,10,0,10,0,,,,,,preight,nw,h,lower,,,,,,,3,nw,LoDemNoTar,h,1,1.200154010206461,,,,,,,,,,,,,,,,,,,,352,2023-11-14_10h41.18.936,leap3,2022.2.5,59.9947303133085,
,,,,,,,,,,,,,,,,,,,,2,0,2,0,11,0,11,0,,,,,,eyesight,w,g,lower,,,,,,,3,w,LoDemNoTar,g,1,0.5438222759403288,,,,,,,,,,,,,,,,,,,,352,2023-11-14_10h41.18.936,leap3,2022.2.5,59.9947303133085,
,,,,,,,,,,,,,,,,,,,,2,0,2,0,12,0,12,0,,,,,,ringlat,nw,h,lower,,,,,,,3,nw,LoDemNoTar,h,1,0.5057101943530142,,,,,,,,,,,,,,,,,,,,352,2023-11-14_10h41.18.936,leap3,2022.2.5,59.9947303133085,
,,,,,,,,,,,,,,,,,,,,2,0,2,0,13,0,13,0,,,,,,bamps,nw,h,lower,,,,,,,3,nw,LoDemNoTar,h,1,1.108524493407458,,,,,,,,,,,,,,,,,,,,352,2023-11-14_10h41.18.936,leap3,2022.2.5,59.9947303133085,
,,,,,,,,,,,,,,,,,,,,2,0,2,0,14,0,14,0,,,,,,rapport,w,g,lower,,,,,,,3,w,LoDemNoTar,h,0,0.5752294338308275,,,,,,,,,,,,,,,,,,,,352,2023-11-14_10h41.18.936,leap3,2022.2.5,59.9947303133085,
,,,,,,,,,,,,,,,,,,,,2,0,2,0,15,0,15,0,,,,,,remain,w,g,lower,,,,,,,3,w,LoDemNoTar,g,1,0.7191318720579147,,,,,,,,,,,,,,,,,,,,352,2023-11-14_10h41.18.936,leap3,2022.2.5,59.9947303133085,
,,,,,,,,,,,,,,,,,,,,2,0,2,0,16,0,16,0,,,,,,temelity,nw,h,lower,,,,,,,3,nw,LoDemNoTar,h,1,0.5450969748198986,,,,,,,,,,,,,,,,,,,,352,2023-11-14_10h41.18.936,leap3,2022.2.5,59.9947303133085,
,,,,,,,,,,,,,,,,,,,,2,0,2,0,17,0,17,0,,,,,,nollow,nw,h,lower,,,,,,,3,nw,LoDemNoTar,h,1,0.8174922708421946,,,,,,,,,,,,,,,,,,,,352,2023-11-14_10h41.18.936,leap3,2022.2.5,59.9947303133085,
,,,,,,,,,,,,,,,,,,,,2,0,2,0,18,0,18,0,,,,,,cavern,w,g,lower,,,,,,,3,w,LoDemNoTar,g,1,0.6715581016615033,,,,,,,,,,,,,,,,,,,,352,2023-11-14_10h41.18.936,leap3,2022.2.5,59.9947303133085,
,,,,,,,,,,,,,,,,,,,,2,0,2,0,19,0,19,0,,,,,,implode,w,g,lower,,,,,,,3,w,LoDemNoTar,g,1,0.5955503634177148,,,,,,,,,,,,,,,,,,,,352,2023-11-14_10h41.18.936,leap3,2022.2.5,59.9947303133085,
,,,,,,,,,,,,,,,,,,,,2,0,2,0,20,0,20,0,,,,,,reses,nw,h,lower,,,,,,,3,nw,LoDemNoTar,h,1,1.0028385748155415,,,,,,,,,,,,,,,,,,,,352,2023-11-14_10h41.18.936,leap3,2022.2.5,59.9947303133085,
,,,,,,,,,,,,,,,,,,,,2,0,2,0,21,0,21,0,,,,,,stalemate,w,g,lower,,,,,,,3,w,LoDemNoTar,g,1,0.7374364654533565,,,,,,,,,,,,,,,,,,,,352,2023-11-14_10h41.18.936,leap3,2022.2.5,59.9947303133085,
,,,,,,,,,,,,,,,,,,,,2,0,2,0,22,0,22,0,,,,,,actively,w,g,lower,,,,,,,3,w,LoDemNoTar,g,1,0.8828867739066482,,,,,,,,,,,,,,,,,,,,352,2023-11-14_10h41.18.936,leap3,2022.2.5,59.9947303133085,
,,,,,,,,,,,,,,,,,,,,2,0,2,0,23,0,23,0,,,,,,grummer,nw,h,lower,,,,,,,3,nw,LoDemNoTar,h,1,0.6309135262854397,,,,,,,,,,,,,,,,,,,,352,2023-11-14_10h41.18.936,leap3,2022.2.5,59.9947303133085,
,,,,,,,,,,,,,,,,,,,,2,0,2,0,24,0,24,0,,,,,,batire,nw,h,lower,,,,,,,3,nw,LoDemNoTar,g,0,0.6688432916998863,,,,,,,,,,,,,,,,,,,,352,2023-11-14_10h41.18.936,leap3,2022.2.5,59.9947303133085,
,,,,,,,,,,,,,,,,,,,,2,0,2,0,25,0,25,0,,,,,,previous,w,g,lower,,,,,,,3,w,LoDemNoTar,g,1,0.6968751992098987,,,,,,,,,,,,,,,,,,,,352,2023-11-14_10h41.18.936,leap3,2022.2.5,59.9947303133085,
,,,,,,,,,,,,,,,,,,,,2,0,2,0,26,0,26,0,,,,,,aggepting,nw,h,lower,,,,,,,3,nw,LoDemNoTar,h,1,0.7312661129981279,,,,,,,,,,,,,,,,,,,,352,2023-11-14_10h41.18.936,leap3,2022.2.5,59.9947303133085,
,,,,,,,,,,,,,,,,,,,,2,0,2,0,27,0,27,0,,,,,,phraining,nw,h,lower,,,,,,,3,nw,LoDemNoTar,h,1,0.7252484955824912,,,,,,,,,,,,,,,,,,,,352,2023-11-14_10h41.18.936,leap3,2022.2.5,59.9947303133085,
,,,,,,,,,,,,,,,,,,,,2,0,2,0,28,0,28,0,,,,,,talate,nw,h,lower,,,,,,,3,nw,LoDemNoTar,g,0,0.7672323659062386,,,,,,,,,,,,,,,,,,,,352,2023-11-14_10h41.18.936,leap3,2022.2.5,59.9947303133085,
,,,,,,,,,,,,,,,,,,,,2,0,2,0,29,0,29,0,,,,,,design,w,g,lower,,,,,,,3,w,LoDemNoTar,g,1,0.6311851884238422,,,,,,,,,,,,,,,,,,,,352,2023-11-14_10h41.18.936,leap3,2022.2.5,59.9947303133085,
,,,,,,,,,,,,,,,,,,,,2,0,2,0,,,,,,,,,,,,,,,,,,,,,,,,,,,NA,,,,,,,,,,,,,,,,,,352,2023-11-14_10h41.18.936,leap3,2022.2.5,59.9947303133085,
,,,,,,,,,,,,,,,,,,,,3,0,3,0,0,0,0,0,,,,,,chining,nw,h,lower,,,,,,,4,nw,LoDemTar,h,1,0.6356310895644128,,,,,,,,,,,,,,,,,,,,352,2023-11-14_10h41.18.936,leap3,2022.2.5,59.9947303133085,
,,,,,,,,,,,,,,,,,,,,3,0,3,0,1,0,1,0,,,,,,razelle,nw,h,lower,,,,,,,4,nw,LoDemTar,h,1,0.9771710331551731,,,,,,,,,,,,,,,,,,,,352,2023-11-14_10h41.18.936,leap3,2022.2.5,59.9947303133085,
,,,,,,,,,,,,,,,,,,,,3,0,3,0,2,0,2,0,,,,,,airbis,nw,h,lower,,,,,,,4,nw,LoDemTar,h,1,0.5298841982148588,,,,,,,,,,,,,,,,,,,,352,2023-11-14_10h41.18.936,leap3,2022.2.5,59.9947303133085,
,,,,,,,,,,,,,,,,,,,,3,0,3,0,3,0,3,0,,,,,,sopes,nw,h,lower,,,,,,,4,nw,LoDemTar,h,1,0.4841347895562649,,,,,,,,,,,,,,,,,,,,352,2023-11-14_10h41.18.936,leap3,2022.2.5,59.9947303133085,
,,,,,,,,,,,,,,,,,,,,3,0,3,0,4,0,4,0,,,,,,pegend,nw,h,lower,,,,,,,4,nw,LoDemTar,h,1,0.5434129713103175,,,,,,,,,,,,,,,,,,,,352,2023-11-14_10h41.18.936,leap3,2022.2.5,59.9947303133085,
,,,,,,,,,,,,,,,,,,,,3,0,3,0,5,0,5,0,,,,,,kiner,nw,h,lower,,,,,,,4,nw,LoDemTar,h,1,0.47274369560182095,,,,,,,,,,,,,,,,,,,,352,2023-11-14_10h41.18.936,leap3,2022.2.5,59.9947303133085,
,,,,,,,,,,,,,,,,,,,,3,0,3,0,6,0,6,0,,,,,,tracing,w,g,lower,,,,,,,4,w,LoDemTar,h,0,0.5248017022386193,,,,,,,,,,,,,,,,,,,,352,2023-11-14_10h41.18.936,leap3,2022.2.5,59.9947303133085,
,,,,,,,,,,,,,,,,,,,,3,0,3,0,7,0,7,0,,,,,,regards,w,g,lower,,,,,,,4,w,LoDemTar,g,1,0.45459968503564596,,,,,,,,,,,,,,,,,,,,352,2023-11-14_10h41.18.936,leap3,2022.2.5,59.9947303133085,
,,,,,,,,,,,,,,,,,,,,3,0,3,0,8,0,8,0,,,,,,illness,w,g,lower,,,,,,,4,w,LoDemTar,g,1,0.5795072070322931,,,,,,,,,,,,,,,,,,,,352,2023-11-14_10h41.18.936,leap3,2022.2.5,59.9947303133085,
,,,,,,,,,,,,,,,,,,,,3,0,3,0,9,0,9,0,,,,,,relaying,w,g,lower,,,,,,,4,w,LoDemTar,g,1,0.4994894340634346,,,,,,,,,,,,,,,,,,,,352,2023-11-14_10h41.18.936,leap3,2022.2.5,59.9947303133085,
,,,,,,,,,,,,,,,,,,,,3,0,3,0,10,0,10,0,,,,,,kilotin,nw,h,lower,,,,,,,4,nw,LoDemTar,h,1,0.4699144857004285,,,,,,,,,,,,,,,,,,,,352,2023-11-14_10h41.18.936,leap3,2022.2.5,59.9947303133085,
,,,,,,,,,,,,,,,,,,,,3,0,3,0,11,0,11,0,,,,,,mandate,w,g,lower,,,,,,,4,w,LoDemTar,g,1,0.4099173047579825,,,,,,,,,,,,,,,,,,,,352,2023-11-14_10h41.18.936,leap3,2022.2.5,59.9947303133085,
,,,,,,,,,,,,,,,,,,,,3,0,3,0,12,0,12,0,,,,,,ronvince,nw,h,lower,,,,,,,4,nw,LoDemTar,h,1,0.5204723137430847,,,,,,,,,,,,,,,,,,,,352,2023-11-14_10h41.18.936,leap3,2022.2.5,59.9947303133085,
,,,,,,,,,,,,,,,,,,,,3,0,3,0,13,0,13,0,,,,,,kangaroo,target,q,lower,,,,,,,4,target,LoDemTar,g,0,0.4184311954304576,,,,,,,,,,,,,,,,,,,,352,2023-11-14_10h41.18.936,leap3,2022.2.5,59.9947303133085,
,,,,,,,,,,,,,,,,,,,,3,0,3,0,14,0,14,0,,,,,,passet,nw,h,lower,,,,,,,4,aftertar1,LoDemTar,g,0,1.3284642505459487,,,,,,,,,,,,,,,,,,,,352,2023-11-14_10h41.18.936,leap3,2022.2.5,59.9947303133085,
,,,,,,,,,,,,,,,,,,,,3,0,3,0,15,0,15,0,,,,,,surface,w,g,lower,,,,,,,4,aftertar2,LoDemTar,g,1,0.7304795002564788,,,,,,,,,,,,,,,,,,,,352,2023-11-14_10h41.18.936,leap3,2022.2.5,59.9947303133085,
,,,,,,,,,,,,,,,,,,,,3,0,3,0,16,0,16,0,,,,,,cills,nw,h,lower,,,,,,,4,aftertar3,LoDemTar,h,1,0.6925068725831807,,,,,,,,,,,,,,,,,,,,352,2023-11-14_10h41.18.936,leap3,2022.2.5,59.9947303133085,
,,,,,,,,,,,,,,,,,,,,3,0,3,0,17,0,17,0,,,,,,brimitive,nw,h,lower,,,,,,,4,nw,LoDemTar,h,1,0.5278355642221868,,,,,,,,,,,,,,,,,,,,352,2023-11-14_10h41.18.936,leap3,2022.2.5,59.9947303133085,
,,,,,,,,,,,,,,,,,,,,3,0,3,0,18,0,18,0,,,,,,desert,w,g,lower,,,,,,,4,nw,LoDemTar,g,1,0.9138683280907571,,,,,,,,,,,,,,,,,,,,352,2023-11-14_10h41.18.936,leap3,2022.2.5,59.9947303133085,
,,,,,,,,,,,,,,,,,,,,3,0,3,0,19,0,19,0,,,,,,visible,w,g,lower,,,,,,,4,w,LoDemTar,h,0,0.45251271640881896,,,,,,,,,,,,,,,,,,,,352,2023-11-14_10h41.18.936,leap3,2022.2.5,59.9947303133085,
,,,,,,,,,,,,,,,,,,,,3,0,3,0,20,0,20,0,,,,,,rascaps,nw,h,lower,,,,,,,4,w,LoDemTar,h,1,0.5931223081424832,,,,,,,,,,,,,,,,,,,,352,2023-11-14_10h41.18.936,leap3,2022.2.5,59.9947303133085,
,,,,,,,,,,,,,,,,,,,,3,0,3,0,21,0,21,0,,,,,,bingu,nw,h,lower,,,,,,,4,nw,LoDemTar,h,1,0.4555224310606718,,,,,,,,,,,,,,,,,,,,352,2023-11-14_10h41.18.936,leap3,2022.2.5,59.9947303133085,
,,,,,,,,,,,,,,,,,,,,3,0,3,0,22,0,22,0,,,,,,trake,nw,h,lower,,,,,,,4,nw,LoDemTar,g,0,0.6521698785945773,,,,,,,,,,,,,,,,,,,,352,2023-11-14_10h41.18.936,leap3,2022.2.5,59.9947303133085,
,,,,,,,,,,,,,,,,,,,,3,0,3,0,23,0,23,0,,,,,,reforest,w,g,lower,,,,,,,4,nw,LoDemTar,g,1,0.920885662548244,,,,,,,,,,,,,,,,,,,,352,2023-11-14_10h41.18.936,leap3,2022.2.5,59.9947303133085,
,,,,,,,,,,,,,,,,,,,,3,0,3,0,24,0,24,0,,,,,,rudder,w,g,lower,,,,,,,4,w,LoDemTar,h,0,0.6268799472600222,,,,,,,,,,,,,,,,,,,,352,2023-11-14_10h41.18.936,leap3,2022.2.5,59.9947303133085,
,,,,,,,,,,,,,,,,,,,,3,0,3,0,25,0,25,0,,,,,,ounside,nw,h,lower,,,,,,,4,w,LoDemTar,h,1,0.7370135779492557,,,,,,,,,,,,,,,,,,,,352,2023-11-14_10h41.18.936,leap3,2022.2.5,59.9947303133085,
,,,,,,,,,,,,,,,,,,,,3,0,3,0,26,0,26,0,,,,,,aviation,w,g,lower,,,,,,,4,nw,LoDemTar,q,0,0.8170551965013146,,,,,,,,,,,,,,,,,,,,352,2023-11-14_10h41.18.936,leap3,2022.2.5,59.9947303133085,
,,,,,,,,,,,,,,,,,,,,3,0,3,0,27,0,27,0,,,,,,curtail,w,g,lower,,,,,,,4,w,LoDemTar,h,0,0.6320188888348639,,,,,,,,,,,,,,,,,,,,352,2023-11-14_10h41.18.936,leap3,2022.2.5,59.9947303133085,
,,,,,,,,,,,,,,,,,,,,3,0,3,0,28,0,28,0,,,,,,enacted,w,g,lower,,,,,,,4,w,LoDemTar,g,1,0.7987430575303733,,,,,,,,,,,,,,,,,,,,352,2023-11-14_10h41.18.936,leap3,2022.2.5,59.9947303133085,
,,,,,,,,,,,,,,,,,,,,3,0,3,0,29,0,29,0,,,,,,demise,w,g,lower,,,,,,,4,w,LoDemTar,g,1,1.0532463849522173,,,,,,,,,,,,,,,,,,,,352,2023-11-14_10h41.18.936,leap3,2022.2.5,59.9947303133085,
,,,,,,,,,,,,,,,,,,,,3,0,3,0,,,,,,,,,,,,,,,,,,,,,,,,,,,0,,,,,,,,,,,,,,,,,,352,2023-11-14_10h41.18.936,leap3,2022.2.5,59.9947303133085,
,,,,,,,,,,,,,,,,,,,,4,0,4,0,0,0,0,0,,,,,,subpoena,w,g,upper,,,,,,,2,w,HiDemNoTar,g,1,0.8976905480958521,,,,,,,,,,,,,,,,,,,,352,2023-11-14_10h41.18.936,leap3,2022.2.5,59.9947303133085,
,,,,,,,,,,,,,,,,,,,,4,0,4,0,1,0,1,0,,,,,,sarlock,nw,h,upper,,,,,,,2,nw,HiDemNoTar,h,1,0.6611286913976073,,,,,,,,,,,,,,,,,,,,352,2023-11-14_10h41.18.936,leap3,2022.2.5,59.9947303133085,
,,,,,,,,,,,,,,,,,,,,4,0,4,0,2,0,2,0,,,,,,pariah,w,g,upper,,,,,,,2,w,HiDemNoTar,h,0,0.721740432549268,,,,,,,,,,,,,,,,,,,,352,2023-11-14_10h41.18.936,leap3,2022.2.5,59.9947303133085,
,,,,,,,,,,,,,,,,,,,,4,0,4,0,3,0,3,0,,,,,,mounting,w,g,upper,,,,,,,2,w,HiDemNoTar,g,1,0.6916982252150774,,,,,,,,,,,,,,,,,,,,352,2023-11-14_10h41.18.936,leap3,2022.2.5,59.9947303133085,
,,,,,,,,,,,,,,,,,,,,4,0,4,0,4,0,4,0,,,,,,snocks,nw,h,upper,,,,,,,2,nw,HiDemNoTar,h,1,0.6381632820703089,,,,,,,,,,,,,,,,,,,,352,2023-11-14_10h41.18.936,leap3,2022.2.5,59.9947303133085,
,,,,,,,,,,,,,,,,,,,,4,0,4,0,5,0,5,0,,,,,,chrayed,nw,h,upper,,,,,,,2,nw,HiDemNoTar,h,1,0.6434371490031481,,,,,,,,,,,,,,,,,,,,352,2023-11-14_10h41.18.936,leap3,2022.2.5,59.9947303133085,
,,,,,,,,,,,,,,,,,,,,4,0,4,0,6,0,6,0,,,,,,removable,w,g,upper,,,,,,,2,w,HiDemNoTar,g,1,0.5047608860768378,,,,,,,,,,,,,,,,,,,,352,2023-11-14_10h41.18.936,leap3,2022.2.5,59.9947303133085,
,,,,,,,,,,,,,,,,,,,,4,0,4,0,7,0,7,0,,,,,,charcoal,w,g,upper,,,,,,,2,w,HiDemNoTar,g,1,0.5474556055851281,,,,,,,,,,,,,,,,,,,,352,2023-11-14_10h41.18.936,leap3,2022.2.5,59.9947303133085,
,,,,,,,,,,,,,,,,,,,,4,0,4,0,8,0,8,0,,,,,,airline,w,g,upper,,,,,,,2,w,HiDemNoTar,g,1,0.6208128267899156,,,,,,,,,,,,,,,,,,,,352,2023-11-14_10h41.18.936,leap3,2022.2.5,59.9947303133085,
,,,,,,,,,,,,,,,,,,,,4,0,4,0,9,0,9,0,,,,,,alber,nw,h,upper,,,,,,,2,nw,HiDemNoTar,h,1,0.47480500722303987,,,,,,,,,,,,,,,,,,,,352,2023-11-14_10h41.18.936,leap3,2022.2.5,59.9947303133085,
,,,,,,,,,,,,,,,,,,,,4,0,4,0,10,0,10,0,,,,,,aligning,w,g,upper,,,,,,,2,w,HiDemNoTar,g,1,0.6067521995864809,,,,,,,,,,,,,,,,,,,,352,2023-11-14_10h41.18.936,leap3,2022.2.5,59.9947303133085,
,,,,,,,,,,,,,,,,,,,,4,0,4,0,11,0,11,0,,,,,,sength,nw,h,upper,,,,,,,2,nw,HiDemNoTar,h,1,0.6134480671025813,,,,,,,,,,,,,,,,,,,,352,2023-11-14_10h41.18.936,leap3,2022.2.5,59.9947303133085,
,,,,,,,,,,,,,,,,,,,,4,0,4,0,12,0,12,0,,,,,,slightly,w,g,upper,,,,,,,2,w,HiDemNoTar,g,1,0.5232668109238148,,,,,,,,,,,,,,,,,,,,352,2023-11-14_10h41.18.936,leap3,2022.2.5,59.9947303133085,
,,,,,,,,,,,,,,,,,,,,4,0,4,0,13,0,13,0,,,,,,tining,nw,h,upper,,,,,,,2,nw,HiDemNoTar,h,1,0.5502488957718015,,,,,,,,,,,,,,,,,,,,352,2023-11-14_10h41.18.936,leap3,2022.2.5,59.9947303133085,
,,,,,,,,,,,,,,,,,,,,4,0,4,0,14,0,14,0,,,,,,porghum,nw,h,upper,,,,,,,2,nw,HiDemNoTar,h,1,0.5824909624643624,,,,,,,,,,,,,,,,,,,,352,2023-11-14_10h41.18.936,leap3,2022.2.5,59.9947303133085,
,,,,,,,,,,,,,,,,,,,,4,0,4,0,15,0,15,0,,,,,,entropy,w,g,upper,,,,,,,2,w,HiDemNoTar,g,1,0.48651092732325196,,,,,,,,,,,,,,,,,,,,352,2023-11-14_10h41.18.936,leap3,2022.2.5,59.9947303133085,
,,,,,,,,,,,,,,,,,,,,4,0,4,0,16,0,16,0,,,,,,donastic,nw,h,upper,,,,,,,2,nw,HiDemNoTar,h,1,0.6007140562869608,,,,,,,,,,,,,,,,,,,,352,2023-11-14_10h41.18.936,leap3,2022.2.5,59.9947303133085,
,,,,,,,,,,,,,,,,,,,,4,0,4,0,17,0,17,0,,,,,,urique,nw,h,upper,,,,,,,2,nw,HiDemNoTar,h,1,0.9400484059005976,,,,,,,,,,,,,,,,,,,,352,2023-11-14_10h41.18.936,leap3,2022.2.5,59.9947303133085,
,,,,,,,,,,,,,,,,,,,,4,0,4,0,18,0,18,0,,,,,,ordinary,w,g,upper,,,,,,,2,w,HiDemNoTar,h,0,0.5770314591936767,,,,,,,,,,,,,,,,,,,,352,2023-11-14_10h41.18.936,leap3,2022.2.5,59.9947303133085,
,,,,,,,,,,,,,,,,,,,,4,0,4,0,19,0,19,0,,,,,,flieves,nw,h,upper,,,,,,,2,nw,HiDemNoTar,h,1,1.5935880574397743,,,,,,,,,,,,,,,,,,,,352,2023-11-14_10h41.18.936,leap3,2022.2.5,59.9947303133085,
,,,,,,,,,,,,,,,,,,,,4,0,4,0,20,0,20,0,,,,,,theery,nw,h,upper,,,,,,,2,nw,HiDemNoTar,h,1,0.7050959966145456,,,,,,,,,,,,,,,,,,,,352,2023-11-14_10h41.18.936,leap3,2022.2.5,59.9947303133085,
,,,,,,,,,,,,,,,,,,,,4,0,4,0,21,0,21,0,,,,,,bureaug,nw,h,upper,,,,,,,2,nw,HiDemNoTar,h,1,0.7147738081403077,,,,,,,,,,,,,,,,,,,,352,2023-11-14_10h41.18.936,leap3,2022.2.5,59.9947303133085,
,,,,,,,,,,,,,,,,,,,,4,0,4,0,22,0,22,0,,,,,,chiffol,nw,h,upper,,,,,,,2,nw,HiDemNoTar,h,1,0.8854084019549191,,,,,,,,,,,,,,,,,,,,352,2023-11-14_10h41.18.936,leap3,2022.2.5,59.9947303133085,
,,,,,,,,,,,,,,,,,,,,4,0,4,0,23,0,23,0,,,,,,caloric,w,g,upper,,,,,,,2,w,HiDemNoTar,g,1,0.6247766790911555,,,,,,,,,,,,,,,,,,,,352,2023-11-14_10h41.18.936,leap3,2022.2.5,59.9947303133085,
,,,,,,,,,,,,,,,,,,,,4,0,4,0,24,0,24,0,,,,,,solidity,w,g,upper,,,,,,,2,w,HiDemNoTar,g,1,0.5748325055465102,,,,,,,,,,,,,,,,,,,,352,2023-11-14_10h41.18.936,leap3,2022.2.5,59.9947303133085,
,,,,,,,,,,,,,,,,,,,,4,0,4,0,25,0,25,0,,,,,,category,w,g,upper,,,,,,,2,w,HiDemNoTar,h,0,0.5669724154286087,,,,,,,,,,,,,,,,,,,,352,2023-11-14_10h41.18.936,leap3,2022.2.5,59.9947303133085,
,,,,,,,,,,,,,,,,,,,,4,0,4,0,26,0,26,0,,,,,,sputter,w,g,upper,,,,,,,2,w,HiDemNoTar,h,0,0.5514777139760554,,,,,,,,,,,,,,,,,,,,352,2023-11-14_10h41.18.936,leap3,2022.2.5,59.9947303133085,
,,,,,,,,,,,,,,,,,,,,4,0,4,0,27,0,27,0,,,,,,renown,w,g,upper,,,,,,,2,w,HiDemNoTar,g,1,0.7521288576535881,,,,,,,,,,,,,,,,,,,,352,2023-11-14_10h41.18.936,leap3,2022.2.5,59.9947303133085,
,,,,,,,,,,,,,,,,,,,,4,0,4,0,28,0,28,0,,,,,,pender,nw,h,upper,,,,,,,2,nw,HiDemNoTar,h,1,1.0967808421701193,,,,,,,,,,,,,,,,,,,,352,2023-11-14_10h41.18.936,leap3,2022.2.5,59.9947303133085,
,,,,,,,,,,,,,,,,,,,,4,0,4,0,29,0,29,0,,,,,,leuter,nw,h,upper,,,,,,,2,nw,HiDemNoTar,h,1,0.804168451577425,,,,,,,,,,,,,,,,,,,,352,2023-11-14_10h41.18.936,leap3,2022.2.5,59.9947303133085,
,,,,,,,,,,,,,,,,,,,,4,0,4,0,,,,,,,,,,,,,,,,,,,,,,,,,,,NA,,,,,,,,,,,,,,,,,,352,2023-11-14_10h41.18.936,leap3,2022.2.5,59.9947303133085,
,,,,,,,,,,,,,,,,,,,,5,0,5,0,0,0,0,0,,,,,,currowing,nw,h,lower,,,,,,,3,nw,LoDemNoTar,h,1,0.6898186253383756,,,,,,,,,,,,,,,,,,,,352,2023-11-14_10h41.18.936,leap3,2022.2.5,59.9947303133085,
,,,,,,,,,,,,,,,,,,,,5,0,5,0,1,0,1,0,,,,,,sefraud,nw,h,lower,,,,,,,3,nw,LoDemNoTar,h,1,0.637134890537709,,,,,,,,,,,,,,,,,,,,352,2023-11-14_10h41.18.936,leap3,2022.2.5,59.9947303133085,
,,,,,,,,,,,,,,,,,,,,5,0,5,0,2,0,2,0,,,,,,repayment,w,g,lower,,,,,,,3,w,LoDemNoTar,g,1,0.6984360492788255,,,,,,,,,,,,,,,,,,,,352,2023-11-14_10h41.18.936,leap3,2022.2.5,59.9947303133085,
,,,,,,,,,,,,,,,,,,,,5,0,5,0,3,0,3,0,,,,,,lindo,nw,h,lower,,,,,,,3,nw,LoDemNoTar,h,1,0.5497867679223418,,,,,,,,,,,,,,,,,,,,352,2023-11-14_10h41.18.936,leap3,2022.2.5,59.9947303133085,
,,,,,,,,,,,,,,,,,,,,5,0,5,0,4,0,4,0,,,,,,undue,w,g,lower,,,,,,,3,w,LoDemNoTar,h,0,0.6231267843395472,,,,,,,,,,,,,,,,,,,,352,2023-11-14_10h41.18.936,leap3,2022.2.5,59.9947303133085,
,,,,,,,,,,,,,,,,,,,,5,0,5,0,5,0,5,0,,,,,,actual,w,g,lower,,,,,,,3,w,LoDemNoTar,g,1,0.6521843671798706,,,,,,,,,,,,,,,,,,,,352,2023-11-14_10h41.18.936,leap3,2022.2.5,59.9947303133085,
,,,,,,,,,,,,,,,,,,,,5,0,5,0,6,0,6,0,,,,,,afternoon,w,g,lower,,,,,,,3,w,LoDemNoTar,g,1,0.8568844837136567,,,,,,,,,,,,,,,,,,,,352,2023-11-14_10h41.18.936,leap3,2022.2.5,59.9947303133085,
,,,,,,,,,,,,,,,,,,,,5,0,5,0,7,0,7,0,,,,,,snays,nw,h,lower,,,,,,,3,nw,LoDemNoTar,h,1,0.5482032797299325,,,,,,,,,,,,,,,,,,,,352,2023-11-14_10h41.18.936,leap3,2022.2.5,59.9947303133085,
,,,,,,,,,,,,,,,,,,,,5,0,5,0,8,0,8,0,,,,,,laser,w,g,lower,,,,,,,3,w,LoDemNoTar,g,1,0.7178472126834095,,,,,,,,,,,,,,,,,,,,352,2023-11-14_10h41.18.936,leap3,2022.2.5,59.9947303133085,
,,,,,,,,,,,,,,,,,,,,5,0,5,0,9,0,9,0,,,,,,urgency,w,g,lower,,,,,,,3,w,LoDemNoTar,g,1,0.8567649531178176,,,,,,,,,,,,,,,,,,,,352,2023-11-14_10h41.18.936,leap3,2022.2.5,59.9947303133085,
,,,,,,,,,,,,,,,,,,,,5,0,5,0,10,0,10,0,,,,,,tibs,nw,h,lower,,,,,,,3,nw,LoDemNoTar,h,1,0.7014527060091496,,,,,,,,,,,,,,,,,,,,352,2023-11-14_10h41.18.936,leap3,2022.2.5,59.9947303133085,
,,,,,,,,,,,,,,,,,,,,5,0,5,0,11,0,11,0,,,,,,gaioty,nw,h,lower,,,,,,,3,nw,LoDemNoTar,g,0,0.8721023919060826,,,,,,,,,,,,,,,,,,,,352,2023-11-14_10h41.18.936,leap3,2022.2.5,59.9947303133085,
,,,,,,,,,,,,,,,,,,,,5,0,5,0,12,0,12,0,,,,,,nimp,nw,h,lower,,,,,,,3,nw,LoDemNoTar,h,1,0.7320518204942346,,,,,,,,,,,,,,,,,,,,352,2023-11-14_10h41.18.936,leap3,2022.2.5,59.9947303133085,
,,,,,,,,,,,,,,,,,,,,5,0,5,0,13,0,13,0,,,,,,hodels,nw,h,lower,,,,,,,3,nw,LoDemNoTar,h,1,0.7421395401470363,,,,,,,,,,,,,,,,,,,,352,2023-11-14_10h41.18.936,leap3,2022.2.5,59.9947303133085,
,,,,,,,,,,,,,,,,,,,,5,0,5,0,14,0,14,0,,,,,,cookbook,w,g,lower,,,,,,,3,w,LoDemNoTar,g,1,0.6707530762068927,,,,,,,,,,,,,,,,,,,,352,2023-11-14_10h41.18.936,leap3,2022.2.5,59.9947303133085,
,,,,,,,,,,,,,,,,,,,,5,0,5,0,15,0,15,0,,,,,,otiates,nw,h,lower,,,,,,,3,nw,LoDemNoTar,h,1,0.5475672883912921,,,,,,,,,,,,,,,,,,,,352,2023-11-14_10h41.18.936,leap3,2022.2.5,59.9947303133085,
,,,,,,,,,,,,,,,,,,,,5,0,5,0,16,0,16,0,,,,,,stelled,nw,h,lower,,,,,,,3,nw,LoDemNoTar,h,1,0.843841081019491,,,,,,,,,,,,,,,,,,,,352,2023-11-14_10h41.18.936,leap3,2022.2.5,59.9947303133085,
,,,,,,,,,,,,,,,,,,,,5,0,5,0,17,0,17,0,,,,,,rootsie,nw,h,lower,,,,,,,3,nw,LoDemNoTar,h,1,0.529165802989155,,,,,,,,,,,,,,,,,,,,352,2023-11-14_10h41.18.936,leap3,2022.2.5,59.9947303133085,
,,,,,,,,,,,,,,,,,,,,5,0,5,0,18,0,18,0,,,,,,ludictous,nw,h,lower,,,,,,,3,nw,LoDemNoTar,h,1,0.515117249917239,,,,,,,,,,,,,,,,,,,,352,2023-11-14_10h41.18.936,leap3,2022.2.5,59.9947303133085,
,,,,,,,,,,,,,,,,,,,,5,0,5,0,19,0,19,0,,,,,,accessory,w,g,lower,,,,,,,3,w,LoDemNoTar,g,1,1.0138270054012537,,,,,,,,,,,,,,,,,,,,352,2023-11-14_10h41.18.936,leap3,2022.2.5,59.9947303133085,
,,,,,,,,,,,,,,,,,,,,5,0,5,0,20,0,20,0,,,,,,hangar,w,g,lower,,,,,,,3,w,LoDemNoTar,g,1,0.5564744854345918,,,,,,,,,,,,,,,,,,,,352,2023-11-14_10h41.18.936,leap3,2022.2.5,59.9947303133085,
,,,,,,,,,,,,,,,,,,,,5,0,5,0,21,0,21,0,,,,,,scatter,w,g,lower,,,,,,,3,w,LoDemNoTar,g,1,0.6211336902342737,,,,,,,,,,,,,,,,,,,,352,2023-11-14_10h41.18.936,leap3,2022.2.5,59.9947303133085,
,,,,,,,,,,,,,,,,,,,,5,0,5,0,22,0,22,0,,,,,,irregular,w,g,lower,,,,,,,3,w,LoDemNoTar,g,1,0.5310819260776043,,,,,,,,,,,,,,,,,,,,352,2023-11-14_10h41.18.936,leap3,2022.2.5,59.9947303133085,
,,,,,,,,,,,,,,,,,,,,5,0,5,0,23,0,23,0,,,,,,lifetime,w,g,lower,,,,,,,3,w,LoDemNoTar,g,1,0.476228516548872,,,,,,,,,,,,,,,,,,,,352,2023-11-14_10h41.18.936,leap3,2022.2.5,59.9947303133085,
,,,,,,,,,,,,,,,,,,,,5,0,5,0,24,0,24,0,,,,,,galashes,nw,h,lower,,,,,,,3,nw,LoDemNoTar,h,1,0.5771371060982347,,,,,,,,,,,,,,,,,,,,352,2023-11-14_10h41.18.936,leap3,2022.2.5,59.9947303133085,
,,,,,,,,,,,,,,,,,,,,5,0,5,0,25,0,25,0,,,,,,innocent,w,g,lower,,,,,,,3,w,LoDemNoTar,g,1,0.5361215602606535,,,,,,,,,,,,,,,,,,,,352,2023-11-14_10h41.18.936,leap3,2022.2.5,59.9947303133085,
,,,,,,,,,,,,,,,,,,,,5,0,5,0,26,0,26,0,,,,,,capobly,nw,h,lower,,,,,,,3,nw,LoDemNoTar,h,1,0.5135301388800144,,,,,,,,,,,,,,,,,,,,352,2023-11-14_10h41.18.936,leap3,2022.2.5,59.9947303133085,
,,,,,,,,,,,,,,,,,,,,5,0,5,0,27,0,27,0,,,,,,sonkers,nw,h,lower,,,,,,,3,nw,LoDemNoTar,h,1,0.5561119676567614,,,,,,,,,,,,,,,,,,,,352,2023-11-14_10h41.18.936,leap3,2022.2.5,59.9947303133085,
,,,,,,,,,,,,,,,,,,,,5,0,5,0,28,0,28,0,,,,,,require,w,g,lower,,,,,,,3,w,LoDemNoTar,g,1,0.4447845332324505,,,,,,,,,,,,,,,,,,,,352,2023-11-14_10h41.18.936,leap3,2022.2.5,59.9947303133085,
,,,,,,,,,,,,,,,,,,,,5,0,5,0,29,0,29,0,,,,,,acorn,w,g,lower,,,,,,,3,w,LoDemNoTar,g,1,0.5461320071481168,,,,,,,,,,,,,,,,,,,,352,2023-11-14_10h41.18.936,leap3,2022.2.5,59.9947303133085,
,,,,,,,,,,,,,,,,,,,,5,0,5,0,,,,,,,,,,,,,,,,,,,,,,,,,,,NA,,,,,,,,,,,,,,,,,,352,2023-11-14_10h41.18.936,leap3,2022.2.5,59.9947303133085,
,,,,,,,,,,,,,,,,,,,,6,0,6,0,0,0,0,0,,,,,,miurnal,nw,h,lower,,,,,,,3,nw,LoDemNoTar,h,1,0.6586749791167676,,,,,,,,,,,,,,,,,,,,352,2023-11-14_10h41.18.936,leap3,2022.2.5,59.9947303133085,
,,,,,,,,,,,,,,,,,,,,6,0,6,0,1,0,1,0,,,,,,amidst,w,g,lower,,,,,,,3,w,LoDemNoTar,g,1,0.7111468175426126,,,,,,,,,,,,,,,,,,,,352,2023-11-14_10h41.18.936,leap3,2022.2.5,59.9947303133085,
,,,,,,,,,,,,,,,,,,,,6,0,6,0,2,0,2,0,,,,,,equitable,w,g,lower,,,,,,,3,w,LoDemNoTar,g,1,1.0978593407198787,,,,,,,,,,,,,,,,,,,,352,2023-11-14_10h41.18.936,leap3,2022.2.5,59.9947303133085,
,,,,,,,,,,,,,,,,,,,,6,0,6,0,3,0,3,0,,,,,,aicline,nw,h,lower,,,,,,,3,nw,LoDemNoTar,h,1,0.6611878531984985,,,,,,,,,,,,,,,,,,,,352,2023-11-14_10h41.18.936,leap3,2022.2.5,59.9947303133085,
,,,,,,,,,,,,,,,,,,,,6,0,6,0,4,0,4,0,,,,,,plunging,w,g,lower,,,,,,,3,w,LoDemNoTar,g,1,1.033917625900358,,,,,,,,,,,,,,,,,,,,352,2023-11-14_10h41.18.936,leap3,2022.2.5,59.9947303133085,
,,,,,,,,,,,,,,,,,,,,6,0,6,0,5,0,5,0,,,,,,glocked,nw,h,lower,,,,,,,3,nw,LoDemNoTar,h,1,0.5831867191009223,,,,,,,,,,,,,,,,,,,,352,2023-11-14_10h41.18.936,leap3,2022.2.5,59.9947303133085,
,,,,,,,,,,,,,,,,,,,,6,0,6,0,6,0,6,0,,,,,,culinary,w,g,lower,,,,,,,3,w,LoDemNoTar,g,1,0.5344710620120168,,,,,,,,,,,,,,,,,,,,352,2023-11-14_10h41.18.936,leap3,2022.2.5,59.9947303133085,
,,,,,,,,,,,,,,,,,,,,6,0,6,0,7,0,7,0,,,,,,nopping,nw,h,lower,,,,,,,3,nw,LoDemNoTar,h,1,0.5278551843948662,,,,,,,,,,,,,,,,,,,,352,2023-11-14_10h41.18.936,leap3,2022.2.5,59.9947303133085,
,,,,,,,,,,,,,,,,,,,,6,0,6,0,8,0,8,0,,,,,,seasoning,w,g,lower,,,,,,,3,w,LoDemNoTar,g,1,0.488942907191813,,,,,,,,,,,,,,,,,,,,352,2023-11-14_10h41.18.936,leap3,2022.2.5,59.9947303133085,
,,,,,,,,,,,,,,,,,,,,6,0,6,0,9,0,9,0,,,,,,ottans,nw,h,lower,,,,,,,3,nw,LoDemNoTar,h,1,0.5561750535853207,,,,,,,,,,,,,,,,,,,,352,2023-11-14_10h41.18.936,leap3,2022.2.5,59.9947303133085,
,,,,,,,,,,,,,,,,,,,,6,0,6,0,10,0,10,0,,,,,,landing,w,g,lower,,,,,,,3,w,LoDemNoTar,g,1,0.5967375268228352,,,,,,,,,,,,,,,,,,,,352,2023-11-14_10h41.18.936,leap3,2022.2.5,59.9947303133085,
,,,,,,,,,,,,,,,,,,,,6,0,6,0,11,0,11,0,,,,,,prama,nw,h,lower,,,,,,,3,nw,LoDemNoTar,h,1,0.6841719769872725,,,,,,,,,,,,,,,,,,,,352,2023-11-14_10h41.18.936,leap3,2022.2.5,59.9947303133085,
,,,,,,,,,,,,,,,,,,,,6,0,6,0,12,0,12,0,,,,,,oldest,w,g,lower,,,,,,,3,w,LoDemNoTar,g,1,0.4635292184539139,,,,,,,,,,,,,,,,,,,,352,2023-11-14_10h41.18.936,leap3,2022.2.5,59.9947303133085,
,,,,,,,,,,,,,,,,,,,,6,0,6,0,13,0,13,0,,,,,,practice,w,g,lower,,,,,,,3,w,LoDemNoTar,h,0,0.47612498281523585,,,,,,,,,,,,,,,,,,,,352,2023-11-14_10h41.18.936,leap3,2022.2.5,59.9947303133085,
,,,,,,,,,,,,,,,,,,,,6,0,6,0,14,0,14,0,,,,,,hegacy,nw,h,lower,,,,,,,3,nw,LoDemNoTar,h,1,0.5361318229697645,,,,,,,,,,,,,,,,,,,,352,2023-11-14_10h41.18.936,leap3,2022.2.5,59.9947303133085,
,,,,,,,,,,,,,,,,,,,,6,0,6,0,15,0,15,0,,,,,,scabry,nw,h,lower,,,,,,,3,nw,LoDemNoTar,h,1,0.6174870789982378,,,,,,,,,,,,,,,,,,,,352,2023-11-14_10h41.18.936,leap3,2022.2.5,59.9947303133085,
,,,,,,,,,,,,,,,,,,,,6,0,6,0,16,0,16,0,,,,,,ciping,nw,h,lower,,,,,,,3,nw,LoDemNoTar,h,1,0.7114432309754193,,,,,,,,,,,,,,,,,,,,352,2023-11-14_10h41.18.936,leap3,2022.2.5,59.9947303133085,
,,,,,,,,,,,,,,,,,,,,6,0,6,0,17,0,17,0,,,,,,loneliest,w,g,lower,,,,,,,3,w,LoDemNoTar,g,1,0.5861258013173938,,,,,,,,,,,,,,,,,,,,352,2023-11-14_10h41.18.936,leap3,2022.2.5,59.9947303133085,
,,,,,,,,,,,,,,,,,,,,6,0,6,0,18,0,18,0,,,,,,lightels,nw,h,lower,,,,,,,3,nw,LoDemNoTar,h,1,0.5694318627938628,,,,,,,,,,,,,,,,,,,,352,2023-11-14_10h41.18.936,leap3,2022.2.5,59.9947303133085,
,,,,,,,,,,,,,,,,,,,,6,0,6,0,19,0,19,0,,,,,,maroon,w,g,lower,,,,,,,3,w,LoDemNoTar,g,1,0.39249712275341153,,,,,,,,,,,,,,,,,,,,352,2023-11-14_10h41.18.936,leap3,2022.2.5,59.9947303133085,
,,,,,,,,,,,,,,,,,,,,6,0,6,0,20,0,20,0,,,,,,baladroit,nw,h,lower,,,,,,,3,nw,LoDemNoTar,h,1,0.55981713719666,,,,,,,,,,,,,,,,,,,,352,2023-11-14_10h41.18.936,leap3,2022.2.5,59.9947303133085,
,,,,,,,,,,,,,,,,,,,,6,0,6,0,21,0,21,0,,,,,,nogwhell,nw,h,lower,,,,,,,3,nw,LoDemNoTar,h,1,0.6404878040775657,,,,,,,,,,,,,,,,,,,,352,2023-11-14_10h41.18.936,leap3,2022.2.5,59.9947303133085,
,,,,,,,,,,,,,,,,,,,,6,0,6,0,22,0,22,0,,,,,,heaviest,w,g,lower,,,,,,,3,w,LoDemNoTar,g,1,0.4778814297169447,,,,,,,,,,,,,,,,,,,,352,2023-11-14_10h41.18.936,leap3,2022.2.5,59.9947303133085,
,,,,,,,,,,,,,,,,,,,,6,0,6,0,23,0,23,0,,,,,,expensive,w,g,lower,,,,,,,3,w,LoDemNoTar,g,1,0.6082732058130205,,,,,,,,,,,,,,,,,,,,352,2023-11-14_10h41.18.936,leap3,2022.2.5,59.9947303133085,
,,,,,,,,,,,,,,,,,,,,6,0,6,0,24,0,24,0,,,,,,odacles,nw,h,lower,,,,,,,3,nw,LoDemNoTar,h,1,0.5587289789691567,,,,,,,,,,,,,,,,,,,,352,2023-11-14_10h41.18.936,leap3,2022.2.5,59.9947303133085,
,,,,,,,,,,,,,,,,,,,,6,0,6,0,25,0,25,0,,,,,,function,w,g,lower,,,,,,,3,w,LoDemNoTar,g,1,0.5349199082702398,,,,,,,,,,,,,,,,,,,,352,2023-11-14_10h41.18.936,leap3,2022.2.5,59.9947303133085,
,,,,,,,,,,,,,,,,,,,,6,0,6,0,26,0,26,0,,,,,,maintain,w,g,lower,,,,,,,3,w,LoDemNoTar,g,1,0.5849069436080754,,,,,,,,,,,,,,,,,,,,352,2023-11-14_10h41.18.936,leap3,2022.2.5,59.9947303133085,
,,,,,,,,,,,,,,,,,,,,6,0,6,0,27,0,27,0,,,,,,seartfelt,nw,h,lower,,,,,,,3,nw,LoDemNoTar,h,1,0.6556761311367154,,,,,,,,,,,,,,,,,,,,352,2023-11-14_10h41.18.936,leap3,2022.2.5,59.9947303133085,
,,,,,,,,,,,,,,,,,,,,6,0,6,0,28,0,28,0,,,,,,religious,w,g,lower,,,,,,,3,w,LoDemNoTar,g,1,0.6444797283038497,,,,,,,,,,,,,,,,,,,,352,2023-11-14_10h41.18.936,leap3,2022.2.5,59.9947303133085,
,,,,,,,,,,,,,,,,,,,,6,0,6,0,29,0,29,0,,,,,,huests,nw,h,lower,,,,,,,3,nw,LoDemNoTar,h,1,0.6401349455118179,,,,,,,,,,,,,,,,,,,,352,2023-11-14_10h41.18.936,leap3,2022.2.5,59.9947303133085,
,,,,,,,,,,,,,,,,,,,,6,0,6,0,,,,,,,,,,,,,,,,,,,,,,,,,,,NA,,,,,,,,,,,,,,,,,,352,2023-11-14_10h41.18.936,leap3,2022.2.5,59.9947303133085,
,,,,,,,,,,,,,,,,,,,,7,0,7,0,0,0,0,0,,,,,,corg,nw,h,upper,,,,,,,1,nw,HiDemTar,h,1,0.5734195606783032,,,,,,,,,,,,,,,,,,,,352,2023-11-14_10h41.18.936,leap3,2022.2.5,59.9947303133085,
,,,,,,,,,,,,,,,,,,,,7,0,7,0,1,0,1,0,,,,,,addition,w,g,upper,,,,,,,1,w,HiDemTar,g,1,0.4694372657686472,,,,,,,,,,,,,,,,,,,,352,2023-11-14_10h41.18.936,leap3,2022.2.5,59.9947303133085,
,,,,,,,,,,,,,,,,,,,,7,0,7,0,2,0,2,0,,,,,,preclude,w,g,upper,,,,,,,1,w,HiDemTar,g,1,0.7125567435286939,,,,,,,,,,,,,,,,,,,,352,2023-11-14_10h41.18.936,leap3,2022.2.5,59.9947303133085,
,,,,,,,,,,,,,,,,,,,,7,0,7,0,3,0,3,0,,,,,,ausht,nw,h,upper,,,,,,,1,nw,HiDemTar,h,1,0.4921346348710358,,,,,,,,,,,,,,,,,,,,352,2023-11-14_10h41.18.936,leap3,2022.2.5,59.9947303133085,
,,,,,,,,,,,,,,,,,,,,7,0,7,0,4,0,4,0,,,,,,trewl,nw,h,upper,,,,,,,1,nw,HiDemTar,h,1,0.5263870009221137,,,,,,,,,,,,,,,,,,,,352,2023-11-14_10h41.18.936,leap3,2022.2.5,59.9947303133085,
,,,,,,,,,,,,,,,,,,,,7,0,7,0,5,0,5,0,,,,,,yash,nw,h,upper,,,,,,,1,nw,HiDemTar,h,1,0.6084036035463214,,,,,,,,,,,,,,,,,,,,352,2023-11-14_10h41.18.936,leap3,2022.2.5,59.9947303133085,
,,,,,,,,,,,,,,,,,,,,7,0,7,0,6,0,6,0,,,,,,encrusted,w,g,upper,,,,,,,1,w,HiDemTar,g,1,0.7111359508708119,,,,,,,,,,,,,,,,,,,,352,2023-11-14_10h41.18.936,leap3,2022.2.5,59.9947303133085,
,,,,,,,,,,,,,,,,,,,,7,0,7,0,7,0,7,0,,,,,,shockwave,w,g,upper,,,,,,,1,w,HiDemTar,g,1,0.5938446274958551,,,,,,,,,,,,,,,,,,,,352,2023-11-14_10h41.18.936,leap3,2022.2.5,59.9947303133085,
,,,,,,,,,,,,,,,,,,,,7,0,7,0,8,0,8,0,,,,,,century,w,g,upper,,,,,,,1,w,HiDemTar,g,1,0.5531638297252357,,,,,,,,,,,,,,,,,,,,352,2023-11-14_10h41.18.936,leap3,2022.2.5,59.9947303133085,
,,,,,,,,,,,,,,,,,,,,7,0,7,0,9,0,9,0,,,,,,halms,nw,h,upper,,,,,,,1,nw,HiDemTar,h,1,0.5458603450097144,,,,,,,,,,,,,,,,,,,,352,2023-11-14_10h41.18.936,leap3,2022.2.5,59.9947303133085,
,,,,,,,,,,,,,,,,,,,,7,0,7,0,10,0,10,0,,,,,,sheerio,nw,h,upper,,,,,,,1,nw,HiDemTar,h,1,0.5231264526955783,,,,,,,,,,,,,,,,,,,,352,2023-11-14_10h41.18.936,leap3,2022.2.5,59.9947303133085,
,,,,,,,,,,,,,,,,,,,,7,0,7,0,11,0,11,0,,,,,,ignore,w,g,upper,,,,,,,1,w,HiDemTar,g,1,0.4691227413713932,,,,,,,,,,,,,,,,,,,,352,2023-11-14_10h41.18.936,leap3,2022.2.5,59.9947303133085,
,,,,,,,,,,,,,,,,,,,,7,0,7,0,12,0,12,0,,,,,,rantho,nw,h,upper,,,,,,,1,nw,HiDemTar,h,1,0.5042860810644925,,,,,,,,,,,,,,,,,,,,352,2023-11-14_10h41.18.936,leap3,2022.2.5,59.9947303133085,
,,,,,,,,,,,,,,,,,,,,7,0,7,0,13,0,13,0,,,,,,paranoid,w,g,upper,,,,,,,1,w,HiDemTar,g,1,0.6508755600079894,,,,,,,,,,,,,,,,,,,,352,2023-11-14_10h41.18.936,leap3,2022.2.5,59.9947303133085,
,,,,,,,,,,,,,,,,,,,,7,0,7,0,14,0,14,0,,,,,,tusied,nw,h,upper,,,,,,,1,nw,HiDemTar,h,1,0.5114570553414524,,,,,,,,,,,,,,,,,,,,352,2023-11-14_10h41.18.936,leap3,2022.2.5,59.9947303133085,
,,,,,,,,,,,,,,,,,,,,7,0,7,0,15,0,15,0,,,,,,inducing,w,g,upper,,,,,,,1,w,HiDemTar,g,1,0.6083954535424709,,,,,,,,,,,,,,,,,,,,352,2023-11-14_10h41.18.936,leap3,2022.2.5,59.9947303133085,
,,,,,,,,,,,,,,,,,,,,7,0,7,0,16,0,16,0,,,,,,agony,w,g,upper,,,,,,,1,w,HiDemTar,g,1,0.6943363659083843,,,,,,,,,,,,,,,,,,,,352,2023-11-14_10h41.18.936,leap3,2022.2.5,59.9947303133085,
,,,,,,,,,,,,,,,,,,,,7,0,7,0,17,0,17,0,,,,,,lonnote,nw,h,upper,,,,,,,1,nw,HiDemTar,h,1,0.7613418255932629,,,,,,,,,,,,,,,,,,,,352,2023-11-14_10h41.18.936,leap3,2022.2.5,59.9947303133085,
,,,,,,,,,,,,,,,,,,,,7,0,7,0,18,0,18,0,,,,,,deakers,nw,h,upper,,,,,,,1,nw,HiDemTar,h,1,0.5940948585048318,,,,,,,,,,,,,,,,,,,,352,2023-11-14_10h41.18.936,leap3,2022.2.5,59.9947303133085,
,,,,,,,,,,,,,,,,,,,,7,0,7,0,19,0,19,0,,,,,,gazes,w,g,upper,,,,,,,1,w,HiDemTar,g,1,0.6248147115111351,,,,,,,,,,,,,,,,,,,,352,2023-11-14_10h41.18.936,leap3,2022.2.5,59.9947303133085,
,,,,,,,,,,,,,,,,,,,,7,0,7,0,20,0,20,0,,,,,,ladybug,target,q,upper,,,,,,,1,target,HiDemTar,g,0,1.0861419499851763,1,,,1,,,,,,,,,,,,,,,,352,2023-11-14_10h41.18.936,leap3,2022.2.5,59.9947303133085,
,,,,,,,,,,,,,,,,,,,,7,0,7,0,21,0,21,0,,,,,,hivinity,nw,h,upper,,,,,,,1,aftertar1,HiDemTar,h,1,0.7599273715168238,,,,,,,,,,,,,,,,,,,,352,2023-11-14_10h41.18.936,leap3,2022.2.5,59.9947303133085,
,,,,,,,,,,,,,,,,,,,,7,0,7,0,22,0,22,0,,,,,,gonesty,nw,h,upper,,,,,,,1,aftertar2,HiDemTar,h,1,0.9038509391248226,,,,,,,,,,,,,,,,,,,,352,2023-11-14_10h41.18.936,leap3,2022.2.5,59.9947303133085,
,,,,,,,,,,,,,,,,,,,,7,0,7,0,23,0,23,0,,,,,,huzzles,nw,h,upper,,,,,,,1,aftertar3,HiDemTar,h,1,0.8658285066485405,,,,,,,,,,,,,,,,,,,,352,2023-11-14_10h41.18.936,leap3,2022.2.5,59.9947303133085,
,,,,,,,,,,,,,,,,,,,,7,0,7,0,24,0,24,0,,,,,,chappef,nw,h,upper,,,,,,,1,nw,HiDemTar,h,1,0.6385499481111765,,,,,,,,,,,,,,,,,,,,352,2023-11-14_10h41.18.936,leap3,2022.2.5,59.9947303133085,
,,,,,,,,,,,,,,,,,,,,7,0,7,0,25,0,25,0,,,,,,couple,w,g,upper,,,,,,,1,nw,HiDemTar,g,1,0.5391204082407057,,,,,,,,,,,,,,,,,,,,352,2023-11-14_10h41.18.936,leap3,2022.2.5,59.9947303133085,
,,,,,,,,,,,,,,,,,,,,7,0,7,0,26,0,26,0,,,,,,jiggling,w,g,upper,,,,,,,1,w,HiDemTar,g,1,0.9405162683688104,,,,,,,,,,,,,,,,,,,,352,2023-11-14_10h41.18.936,leap3,2022.2.5,59.9947303133085,
,,,,,,,,,,,,,,,,,,,,7,0,7,0,27,0,27,0,,,,,,coverall,w,g,upper,,,,,,,1,w,HiDemTar,g,1,0.6931938761845231,,,,,,,,,,,,,,,,,,,,352,2023-11-14_10h41.18.936,leap3,2022.2.5,59.9947303133085,
,,,,,,,,,,,,,,,,,,,,7,0,7,0,28,0,28,0,,,,,,ahead,w,g,upper,,,,,,,1,w,HiDemTar,g,1,0.6958211506716907,,,,,,,,,,,,,,,,,,,,352,2023-11-14_10h41.18.936,leap3,2022.2.5,59.9947303133085,
,,,,,,,,,,,,,,,,,,,,7,0,7,0,29,0,29,0,,,,,,sweeping,w,g,upper,,,,,,,1,w,HiDemTar,g,1,0.46650059847161174,,,,,,,,,,,,,,,,,,,,352,2023-11-14_10h41.18.936,leap3,2022.2.5,59.9947303133085,
,,,,,,,,,,,,,,,,,,,,7,0,7,0,,,,,,,,,,,,,,,,,,,,,,,,,,,1,,,,,,,,,,,,,,,,,,352,2023-11-14_10h41.18.936,leap3,2022.2.5,59.9947303133085,
,,,,,,,,,,,,,,,,,,,,8,0,8,0,0,0,0,0,,,,,,reconcile,w,g,upper,,,,,,,1,w,HiDemTar,g,1,0.6301510608755052,,,,,,,,,,,,,,,,,,,,352,2023-11-14_10h41.18.936,leap3,2022.2.5,59.9947303133085,
,,,,,,,,,,,,,,,,,,,,8,0,8,0,1,0,1,0,,,,,,terrify,w,g,upper,,,,,,,1,w,HiDemTar,g,1,0.4594548908062279,,,,,,,,,,,,,,,,,,,,352,2023-11-14_10h41.18.936,leap3,2022.2.5,59.9947303133085,
,,,,,,,,,,,,,,,,,,,,8,0,8,0,2,0,2,0,,,,,,quickel,nw,h,upper,,,,,,,1,nw,HiDemTar,h,1,0.6714624161832035,,,,,,,,,,,,,,,,,,,,352,2023-11-14_10h41.18.936,leap3,2022.2.5,59.9947303133085,
,,,,,,,,,,,,,,,,,,,,8,0,8,0,3,0,3,0,,,,,,permeable,w,g,upper,,,,,,,1,w,HiDemTar,g,1,0.6508142845705152,,,,,,,,,,,,,,,,,,,,352,2023-11-14_10h41.18.936,leap3,2022.2.5,59.9947303133085,
,,,,,,,,,,,,,,,,,,,,8,0,8,0,4,0,4,0,,,,,,splinging,nw,h,upper,,,,,,,1,nw,HiDemTar,h,1,0.711547669954598,,,,,,,,,,,,,,,,,,,,352,2023-11-14_10h41.18.936,leap3,2022.2.5,59.9947303133085,
,,,,,,,,,,,,,,,,,,,,8,0,8,0,5,0,5,0,,,,,,elalt,nw,h,upper,,,,,,,1,nw,HiDemTar,h,1,0.8814768474549055,,,,,,,,,,,,,,,,,,,,352,2023-11-14_10h41.18.936,leap3,2022.2.5,59.9947303133085,
,,,,,,,,,,,,,,,,,,,,8,0,8,0,6,0,6,0,,,,,,ifling,nw,h,upper,,,,,,,1,nw,HiDemTar,h,1,0.5065236715599895,,,,,,,,,,,,,,,,,,,,352,2023-11-14_10h41.18.936,leap3,2022.2.5,59.9947303133085,
,,,,,,,,,,,,,,,,,,,,8,0,8,0,7,0,7,0,,,,,,unamufed,nw,h,upper,,,,,,,1,nw,HiDemTar,h,1,0.5494788843207061,,,,,,,,,,,,,,,,,,,,352,2023-11-14_10h41.18.936,leap3,2022.2.5,59.9947303133085,
,,,,,,,,,,,,,,,,,,,,8,0,8,0,8,0,8,0,,,,,,holdup,w,g,upper,,,,,,,1,w,HiDemTar,g,1,0.5506301280111074,,,,,,,,,,,,,,,,,,,,352,2023-11-14_10h41.18.936,leap3,2022.2.5,59.9947303133085,
,,,,,,,,,,,,,,,,,,,,8,0,8,0,9,0,9,0,,,,,,etuip,nw,h,upper,,,,,,,1,nw,HiDemTar,h,1,0.5759131172671914,,,,,,,,,,,,,,,,,,,,352,2023-11-14_10h41.18.936,leap3,2022.2.5,59.9947303133085,
,,,,,,,,,,,,,,,,,,,,8,0,8,0,10,0,10,0,,,,,,educate,w,g,upper,,,,,,,1,w,HiDemTar,g,1,0.5031420821323991,,,,,,,,,,,,,,,,,,,,352,2023-11-14_10h41.18.936,leap3,2022.2.5,59.9947303133085,
,,,,,,,,,,,,,,,,,,,,8,0,8,0,11,0,11,0,,,,,,flamingo,target,q,upper,,,,,,,1,target,HiDemTar,g,0,0.673112612683326,1,,,1,,,,,,,,,,,,,,,,352,2023-11-14_10h41.18.936,leap3,2022.2.5,59.9947303133085,
,,,,,,,,,,,,,,,,,,,,8,0,8,0,12,0,12,0,,,,,,epthuse,nw,h,upper,,,,,,,1,aftertar1,HiDemTar,q,0,0.012444849126040936,,,1,,,,,,,,,,,,,,,,,352,2023-11-14_10h41.18.936,leap3,2022.2.5,59.9947303133085,
,,,,,,,,,,,,,,,,,,,,8,0,8,0,13,0,13,0,,,,,,butler,w,g,upper,,,,,,,1,aftertar2,HiDemTar,g,1,1.370456874370575,,,,,,,,,,,,,,,,,,,,352,2023-11-14_10h41.18.936,leap3,2022.2.5,59.9947303133085,
,,,,,,,,,,,,,,,,,,,,8,0,8,0,14,0,14,0,,,,,,browting,nw,h,upper,,,,,,,1,aftertar3,HiDemTar,h,1,0.6258289166726172,,,,,,,,,,,,,,,,,,,,352,2023-11-14_10h41.18.936,leap3,2022.2.5,59.9947303133085,
,,,,,,,,,,,,,,,,,,,,8,0,8,0,15,0,15,0,,,,,,pexts,nw,h,upper,,,,,,,1,nw,HiDemTar,h,1,0.6062423805706203,,,,,,,,,,,,,,,,,,,,352,2023-11-14_10h41.18.936,leap3,2022.2.5,59.9947303133085,
,,,,,,,,,,,,,,,,,,,,8,0,8,0,16,0,16,0,,,,,,glamorous,w,g,upper,,,,,,,1,nw,HiDemTar,g,1,0.5651715970598161,,,,,,,,,,,,,,,,,,,,352,2023-11-14_10h41.18.936,leap3,2022.2.5,59.9947303133085,
,,,,,,,,,,,,,,,,,,,,8,0,8,0,17,0,17,0,,,,,,chraps,nw,h,upper,,,,,,,1,w,HiDemTar,h,1,0.9162133764475584,,,,,,,,,,,,,,,,,,,,352,2023-11-14_10h41.18.936,leap3,2022.2.5,59.9947303133085,
,,,,,,,,,,,,,,,,,,,,8,0,8,0,18,0,18,0,,,,,,derived,w,g,upper,,,,,,,1,nw,HiDemTar,g,1,0.8621517103165388,,,,,,,,,,,,,,,,,,,,352,2023-11-14_10h41.18.936,leap3,2022.2.5,59.9947303133085,
,,,,,,,,,,,,,,,,,,,,8,0,8,0,19,0,19,0,,,,,,intended,w,g,upper,,,,,,,1,w,HiDemTar,g,1,0.7221364551223814,,,,,,,,,,,,,,,,,,,,352,2023-11-14_10h41.18.936,leap3,2022.2.5,59.9947303133085,
,,,,,,,,,,,,,,,,,,,,8,0,8,0,20,0,20,0,,,,,,tredits,nw,h,upper,,,,,,,1,w,HiDemTar,h,1,0.6675870050676167,,,,,,,,,,,,,,,,,,,,352,2023-11-14_10h41.18.936,leap3,2022.2.5,59.9947303133085,
,,,,,,,,,,,,,,,,,,,,8,0,8,0,21,0,21,0,,,,,,antonym,w,g,upper,,,,,,,1,nw,HiDemTar,g,1,0.8154671806842089,,,,,,,,,,,,,,,,,,,,352,2023-11-14_10h41.18.936,leap3,2022.2.5,59.9947303133085,
,,,,,,,,,,,,,,,,,,,,8,0,8,0,22,0,22,0,,,,,,trallion,nw,h,upper,,,,,,,1,w,HiDemTar,h,1,0.6454872926697135,,,,,,,,,,,,,,,,,,,,352,2023-11-14_10h41.18.936,leap3,2022.2.5,59.9947303133085,
,,,,,,,,,,,,,,,,,,,,8,0,8,0,23,0,23,0,,,,,,urgent,w,g,upper,,,,,,,1,nw,HiDemTar,g,1,0.5461244606412947,,,,,,,,,,,,,,,,,,,,352,2023-11-14_10h41.18.936,leap3,2022.2.5,59.9947303133085,
,,,,,,,,,,,,,,,,,,,,8,0,8,0,24,0,24,0,,,,,,humanize,w,g,upper,,,,,,,1,w,HiDemTar,g,1,0.5869151307269931,,,,,,,,,,,,,,,,,,,,352,2023-11-14_10h41.18.936,leap3,2022.2.5,59.9947303133085,
,,,,,,,,,,,,,,,,,,,,8,0,8,0,25,0,25,0,,,,,,efcorted,nw,h,upper,,,,,,,1,w,HiDemTar,h,1,0.7125190128572285,,,,,,,,,,,,,,,,,,,,352,2023-11-14_10h41.18.936,leap3,2022.2.5,59.9947303133085,
,,,,,,,,,,,,,,,,,,,,8,0,8,0,26,0,26,0,,,,,,suburb,w,g,upper,,,,,,,1,nw,HiDemTar,g,1,0.5864514936693013,,,,,,,,,,,,,,,,,,,,352,2023-11-14_10h41.18.936,leap3,2022.2.5,59.9947303133085,
,,,,,,,,,,,,,,,,,,,,8,0,8,0,27,0,27,0,,,,,,owner,w,g,upper,,,,,,,1,w,HiDemTar,g,1,0.6731889802031219,,,,,,,,,,,,,,,,,,,,352,2023-11-14_10h41.18.936,leap3,2022.2.5,59.9947303133085,
,,,,,,,,,,,,,,,,,,,,8,0,8,0,28,0,28,0,,,,,,guivers,nw,h,upper,,,,,,,1,w,HiDemTar,h,1,0.5085360840894282,,,,,,,,,,,,,,,,,,,,352,2023-11-14_10h41.18.936,leap3,2022.2.5,59.9947303133085,
,,,,,,,,,,,,,,,,,,,,8,0,8,0,29,0,29,0,,,,,,duplex,w,g,upper,,,,,,,1,nw,HiDemTar,h,0,0.5506020560860634,,,,,,,,,,,,,,,,,,,,352,2023-11-14_10h41.18.936,leap3,2022.2.5,59.9947303133085,
,,,,,,,,,,,,,,,,,,,,8,0,8,0,,,,,,,,,,,,,,,,,,,,,,,,,,,1,,,,,,,,,,,,,,,,,,352,2023-11-14_10h41.18.936,leap3,2022.2.5,59.9947303133085,
,,,,,,,,,,,,,,,,,,,,9,0,9,0,0,0,0,0,,,,,,phambled,nw,h,lower,,,,,,,3,nw,LoDemNoTar,h,1,0.9269379926845431,,,,,,,,,,,,,,,,,,,,352,2023-11-14_10h41.18.936,leap3,2022.2.5,59.9947303133085,
,,,,,,,,,,,,,,,,,,,,9,0,9,0,1,0,1,0,,,,,,cayward,nw,h,lower,,,,,,,3,nw,LoDemNoTar,h,1,0.6321773584932089,,,,,,,,,,,,,,,,,,,,352,2023-11-14_10h41.18.936,leap3,2022.2.5,59.9947303133085,
,,,,,,,,,,,,,,,,,,,,9,0,9,0,2,0,2,0,,,,,,student,w,g,lower,,,,,,,3,w,LoDemNoTar,g,1,0.637563512660563,,,,,,,,,,,,,,,,,,,,352,2023-11-14_10h41.18.936,leap3,2022.2.5,59.9947303133085,
,,,,,,,,,,,,,,,,,,,,9,0,9,0,3,0,3,0,,,,,,triplet,w,g,lower,,,,,,,3,w,LoDemNoTar,g,1,0.7860775664448738,,,,,,,,,,,,,,,,,,,,352,2023-11-14_10h41.18.936,leap3,2022.2.5,59.9947303133085,
,,,,,,,,,,,,,,,,,,,,9,0,9,0,4,0,4,0,,,,,,chight,nw,h,lower,,,,,,,3,nw,LoDemNoTar,h,1,0.5207974025979638,,,,,,,,,,,,,,,,,,,,352,2023-11-14_10h41.18.936,leap3,2022.2.5,59.9947303133085,
,,,,,,,,,,,,,,,,,,,,9,0,9,0,5,0,5,0,,,,,,attended,w,g,lower,,,,,,,3,w,LoDemNoTar,g,1,0.47418380668386817,,,,,,,,,,,,,,,,,,,,352,2023-11-14_10h41.18.936,leap3,2022.2.5,59.9947303133085,
,,,,,,,,,,,,,,,,,,,,9,0,9,0,6,0,6,0,,,,,,govern,w,g,lower,,,,,,,3,w,LoDemNoTar,h,0,0.533605667296797,,,,,,,,,,,,,,,,,,,,352,2023-11-14_10h41.18.936,leap3,2022.2.5,59.9947303133085,
,,,,,,,,,,,,,,,,,,,,9,0,9,0,7,0,7,0,,,,,,bluads,nw,h,lower,,,,,,,3,nw,LoDemNoTar,h,1,0.5108485319651663,,,,,,,,,,,,,,,,,,,,352,2023-11-14_10h41.18.936,leap3,2022.2.5,59.9947303133085,
,,,,,,,,,,,,,,,,,,,,9,0,9,0,8,0,8,0,,,,,,iolize,nw,h,lower,,,,,,,3,nw,LoDemNoTar,h,1,0.8958969740197062,,,,,,,,,,,,,,,,,,,,352,2023-11-14_10h41.18.936,leap3,2022.2.5,59.9947303133085,
,,,,,,,,,,,,,,,,,,,,9,0,9,0,9,0,9,0,,,,,,arrow,w,g,lower,,,,,,,3,w,LoDemNoTar,g,1,0.523451239336282,,,,,,,,,,,,,,,,,,,,352,2023-11-14_10h41.18.936,leap3,2022.2.5,59.9947303133085,
,,,,,,,,,,,,,,,,,,,,9,0,9,0,10,0,10,0,,,,,,clattest,nw,h,lower,,,,,,,3,nw,LoDemNoTar,h,1,0.6038822405971587,,,,,,,,,,,,,,,,,,,,352,2023-11-14_10h41.18.936,leap3,2022.2.5,59.9947303133085,
,,,,,,,,,,,,,,,,,,,,9,0,9,0,11,0,11,0,,,,,,levels,w,g,lower,,,,,,,3,w,LoDemNoTar,g,1,0.7218044241890311,,,,,,,,,,,,,,,,,,,,352,2023-11-14_10h41.18.936,leap3,2022.2.5,59.9947303133085,
,,,,,,,,,,,,,,,,,,,,9,0,9,0,12,0,12,0,,,,,,runabouk,nw,h,lower,,,,,,,3,nw,LoDemNoTar,h,1,0.7791803670115769,,,,,,,,,,,,,,,,,,,,352,2023-11-14_10h41.18.936,leap3,2022.2.5,59.9947303133085,
,,,,,,,,,,,,,,,,,,,,9,0,9,0,13,0,13,0,,,,,,facienda,nw,h,lower,,,,,,,3,nw,LoDemNoTar,h,1,0.5064826202578843,,,,,,,,,,,,,,,,,,,,352,2023-11-14_10h41.18.936,leap3,2022.2.5,59.9947303133085,
,,,,,,,,,,,,,,,,,,,,9,0,9,0,14,0,14,0,,,,,,erony,nw,h,lower,,,,,,,3,nw,LoDemNoTar,h,1,0.6285808538086712,,,,,,,,,,,,,,,,,,,,352,2023-11-14_10h41.18.936,leap3,2022.2.5,59.9947303133085,
,,,,,,,,,,,,,,,,,,,,9,0,9,0,15,0,15,0,,,,,,system,w,g,lower,,,,,,,3,w,LoDemNoTar,g,1,0.6338423453271389,,,,,,,,,,,,,,,,,,,,352,2023-11-14_10h41.18.936,leap3,2022.2.5,59.9947303133085,
,,,,,,,,,,,,,,,,,,,,9,0,9,0,16,0,16,0,,,,,,misest,nw,h,lower,,,,,,,3,nw,LoDemNoTar,h,1,0.7911836062557995,,,,,,,,,,,,,,,,,,,,352,2023-11-14_10h41.18.936,leap3,2022.2.5,59.9947303133085,
,,,,,,,,,,,,,,,,,,,,9,0,9,0,17,0,17,0,,,,,,entertain,w,g,lower,,,,,,,3,w,LoDemNoTar,g,1,0.5178175712935627,,,,,,,,,,,,,,,,,,,,352,2023-11-14_10h41.18.936,leap3,2022.2.5,59.9947303133085,
,,,,,,,,,,,,,,,,,,,,9,0,9,0,18,0,18,0,,,,,,filny,nw,h,lower,,,,,,,3,nw,LoDemNoTar,h,1,0.5598654327914119,,,,,,,,,,,,,,,,,,,,352,2023-11-14_10h41.18.936,leap3,2022.2.5,59.9947303133085,
,,,,,,,,,,,,,,,,,,,,9,0,9,0,19,0,19,0,,,,,,optional,w,g,lower,,,,,,,3,w,LoDemNoTar,g,1,0.5670164846815169,,,,,,,,,,,,,,,,,,,,352,2023-11-14_10h41.18.936,leap3,2022.2.5,59.9947303133085,
,,,,,,,,,,,,,,,,,,,,9,0,9,0,20,0,20,0,,,,,,typical,w,g,lower,,,,,,,3,w,LoDemNoTar,g,1,0.9749488369561732,,,,,,,,,,,,,,,,,,,,352,2023-11-14_10h41.18.936,leap3,2022.2.5,59.9947303133085,
,,,,,,,,,,,,,,,,,,,,9,0,9,0,21,0,21,0,,,,,,geissue,nw,h,lower,,,,,,,3,nw,LoDemNoTar,h,1,0.5582873774692416,,,,,,,,,,,,,,,,,,,,352,2023-11-14_10h41.18.936,leap3,2022.2.5,59.9947303133085,
,,,,,,,,,,,,,,,,,,,,9,0,9,0,22,0,22,0,,,,,,cobalt,w,g,lower,,,,,,,3,w,LoDemNoTar,g,1,0.8370975218713284,,,,,,,,,,,,,,,,,,,,352,2023-11-14_10h41.18.936,leap3,2022.2.5,59.9947303133085,
,,,,,,,,,,,,,,,,,,,,9,0,9,0,23,0,23,0,,,,,,throttle,w,g,lower,,,,,,,3,w,LoDemNoTar,h,0,0.6014418094418943,,,,,,,,,,,,,,,,,,,,352,2023-11-14_10h41.18.936,leap3,2022.2.5,59.9947303133085,
,,,,,,,,,,,,,,,,,,,,9,0,9,0,24,0,24,0,,,,,,topefuls,nw,h,lower,,,,,,,3,nw,LoDemNoTar,h,1,0.8250918672420084,,,,,,,,,,,,,,,,,,,,352,2023-11-14_10h41.18.936,leap3,2022.2.5,59.9947303133085,
,,,,,,,,,,,,,,,,,,,,9,0,9,0,25,0,25,0,,,,,,dishwater,w,g,lower,,,,,,,3,w,LoDemNoTar,g,1,0.6148435045033693,,,,,,,,,,,,,,,,,,,,352,2023-11-14_10h41.18.936,leap3,2022.2.5,59.9947303133085,
,,,,,,,,,,,,,,,,,,,,9,0,9,0,26,0,26,0,,,,,,jungle,w,g,lower,,,,,,,3,w,LoDemNoTar,g,1,0.6527554611675441,,,,,,,,,,,,,,,,,,,,352,2023-11-14_10h41.18.936,leap3,2022.2.5,59.9947303133085,
,,,,,,,,,,,,,,,,,,,,9,0,9,0,27,0,27,0,,,,,,pregs,nw,h,lower,,,,,,,3,nw,LoDemNoTar,h,1,0.8638339024037123,,,,,,,,,,,,,,,,,,,,352,2023-11-14_10h41.18.936,leap3,2022.2.5,59.9947303133085,
,,,,,,,,,,,,,,,,,,,,9,0,9,0,28,0,28,0,,,,,,tinion,nw,h,lower,,,,,,,3,nw,LoDemNoTar,h,1,0.7398011330515146,,,,,,,,,,,,,,,,,,,,352,2023-11-14_10h41.18.936,leap3,2022.2.5,59.9947303133085,
,,,,,,,,,,,,,,,,,,,,9,0,9,0,29,0,29,0,,,,,,integral,w,g,lower,,,,,,,3,w,LoDemNoTar,g,1,0.492637210059911,,,,,,,,,,,,,,,,,,,,352,2023-11-14_10h41.18.936,leap3,2022.2.5,59.9947303133085,
,,,,,,,,,,,,,,,,,,,,9,0,9,0,,,,,,,,,,,,,,,,,,,,,,,,,,,NA,,,,,,,,,,,,,,,,,,352,2023-11-14_10h41.18.936,leap3,2022.2.5,59.9947303133085,
,,,,,,,,,,,,,,,,,,,,10,0,10,0,0,0,0,0,,,,,,warmer,w,g,upper,,,,,,,1,w,HiDemTar,g,1,1.151793626602739,,,,,,,,,,,,,,,,,,,,352,2023-11-14_10h41.18.936,leap3,2022.2.5,59.9947303133085,
,,,,,,,,,,,,,,,,,,,,10,0,10,0,1,0,1,0,,,,,,statute,w,g,upper,,,,,,,1,w,HiDemTar,g,1,0.8155037038959563,,,,,,,,,,,,,,,,,,,,352,2023-11-14_10h41.18.936,leap3,2022.2.5,59.9947303133085,
,,,,,,,,,,,,,,,,,,,,10,0,10,0,2,0,2,0,,,,,,knowledge,w,g,upper,,,,,,,1,w,HiDemTar,g,1,0.9574598339386284,,,,,,,,,,,,,,,,,,,,352,2023-11-14_10h41.18.936,leap3,2022.2.5,59.9947303133085,
,,,,,,,,,,,,,,,,,,,,10,0,10,0,3,0,3,0,,,,,,admire,w,g,upper,,,,,,,1,w,HiDemTar,g,1,0.709448023699224,,,,,,,,,,,,,,,,,,,,352,2023-11-14_10h41.18.936,leap3,2022.2.5,59.9947303133085,
,,,,,,,,,,,,,,,,,,,,10,0,10,0,4,0,4,0,,,,,,smabled,nw,h,upper,,,,,,,1,nw,HiDemTar,h,1,0.6554497457109392,,,,,,,,,,,,,,,,,,,,352,2023-11-14_10h41.18.936,leap3,2022.2.5,59.9947303133085,
,,,,,,,,,,,,,,,,,,,,10,0,10,0,5,0,5,0,,,,,,disperse,w,g,upper,,,,,,,1,w,HiDemTar,g,1,0.8354304218664765,,,,,,,,,,,,,,,,,,,,352,2023-11-14_10h41.18.936,leap3,2022.2.5,59.9947303133085,
,,,,,,,,,,,,,,,,,,,,10,0,10,0,6,0,6,0,,,,,,mubby,nw,h,upper,,,,,,,1,nw,HiDemTar,h,1,0.7368376012891531,,,,,,,,,,,,,,,,,,,,352,2023-11-14_10h41.18.936,leap3,2022.2.5,59.9947303133085,
,,,,,,,,,,,,,,,,,,,,10,0,10,0,7,0,7,0,,,,,,legalosm,nw,h,upper,,,,,,,1,nw,HiDemTar,h,1,0.7695113085210323,,,,,,,,,,,,,,,,,,,,352,2023-11-14_10h41.18.936,leap3,2022.2.5,59.9947303133085,
,,,,,,,,,,,,,,,,,,,,10,0,10,0,8,0,8,0,,,,,,ebince,nw,h,upper,,,,,,,1,nw,HiDemTar,h,1,0.632819386664778,,,,,,,,,,,,,,,,,,,,352,2023-11-14_10h41.18.936,leap3,2022.2.5,59.9947303133085,
,,,,,,,,,,,,,,,,,,,,10,0,10,0,9,0,9,0,,,,,,cartles,nw,h,upper,,,,,,,1,nw,HiDemTar,h,1,0.5581913897767663,,,,,,,,,,,,,,,,,,,,352,2023-11-14_10h41.18.936,leap3,2022.2.5,59.9947303133085,
,,,,,,,,,,,,,,,,,,,,10,0,10,0,10,0,10,0,,,,,,prohibit,w,g,upper,,,,,,,1,w,HiDemTar,g,1,0.7892864993773401,,,,,,,,,,,,,,,,,,,,352,2023-11-14_10h41.18.936,leap3,2022.2.5,59.9947303133085,
,,,,,,,,,,,,,,,,,,,,10,0,10,0,11,0,11,0,,,,,,rangel,nw,h,upper,,,,,,,1,nw,HiDemTar,h,1,0.5559474611654878,,,,,,,,,,,,,,,,,,,,352,2023-11-14_10h41.18.936,leap3,2022.2.5,59.9947303133085,
,,,,,,,,,,,,,,,,,,,,10,0,10,0,12,0,12,0,,,,,,comment,w,g,upper,,,,,,,1,w,HiDemTar,g,1,0.8024566783569753,,,,,,,,,,,,,,,,,,,,352,2023-11-14_10h41.18.936,leap3,2022.2.5,59.9947303133085,
,,,,,,,,,,,,,,,,,,,,10,0,10,0,13,0,13,0,,,,,,scack,nw,h,upper,,,,,,,1,nw,HiDemTar,h,1,0.6733740116469562,,,,,,,,,,,,,,,,,,,,352,2023-11-14_10h41.18.936,leap3,2022.2.5,59.9947303133085,
,,,,,,,,,,,,,,,,,,,,10,0,10,0,14,0,14,0,,,,,,bickering,w,g,upper,,,,,,,1,w,HiDemTar,g,1,0.7095434074290097,,,,,,,,,,,,,,,,,,,,352,2023-11-14_10h41.18.936,leap3,2022.2.5,59.9947303133085,
,,,,,,,,,,,,,,,,,,,,10,0,10,0,15,0,15,0,,,,,,dialogues,w,g,upper,,,,,,,1,w,HiDemTar,g,1,0.6555321500636637,,,,,,,,,,,,,,,,,,,,352,2023-11-14_10h41.18.936,leap3,2022.2.5,59.9947303133085,
,,,,,,,,,,,,,,,,,,,,10,0,10,0,16,0,16,0,,,,,,fidelity,w,g,upper,,,,,,,1,w,HiDemTar,g,1,0.7475226758979261,,,,,,,,,,,,,,,,,,,,352,2023-11-14_10h41.18.936,leap3,2022.2.5,59.9947303133085,
,,,,,,,,,,,,,,,,,,,,10,0,10,0,17,0,17,0,,,,,,fabstand,nw,h,upper,,,,,,,1,nw,HiDemTar,h,1,0.6282421820797026,,,,,,,,,,,,,,,,,,,,352,2023-11-14_10h41.18.936,leap3,2022.2.5,59.9947303133085,
,,,,,,,,,,,,,,,,,,,,10,0,10,0,18,0,18,0,,,,,,formation,w,g,upper,,,,,,,1,w,HiDemTar,g,1,0.5767024462111294,,,,,,,,,,,,,,,,,,,,352,2023-11-14_10h41.18.936,leap3,2022.2.5,59.9947303133085,
,,,,,,,,,,,,,,,,,,,,10,0,10,0,19,0,19,0,,,,,,elpousal,nw,h,upper,,,,,,,1,nw,HiDemTar,h,1,0.5119874002411962,,,,,,,,,,,,,,,,,,,,352,2023-11-14_10h41.18.936,leap3,2022.2.5,59.9947303133085,
,,,,,,,,,,,,,,,,,,,,10,0,10,0,20,0,20,0,,,,,,porcupine,target,q,upper,,,,,,,1,target,HiDemTar,g,0,0.5701052830554545,,,,,,,,,,,,,,,,,,,,352,2023-11-14_10h41.18.936,leap3,2022.2.5,59.9947303133085,
,,,,,,,,,,,,,,,,,,,,10,0,10,0,21,0,21,0,,,,,,setwixt,nw,h,upper,,,,,,,1,aftertar1,HiDemTar,h,1,1.6652319966815412,,,,,,,,,,,,,,,,,,,,352,2023-11-14_10h41.18.936,leap3,2022.2.5,59.9947303133085,
,,,,,,,,,,,,,,,,,,,,10,0,10,0,22,0,22,0,,,,,,favoting,nw,h,upper,,,,,,,1,aftertar2,HiDemTar,h,1,0.7732451539486647,,,,,,,,,,,,,,,,,,,,352,2023-11-14_10h41.18.936,leap3,2022.2.5,59.9947303133085,
,,,,,,,,,,,,,,,,,,,,10,0,10,0,23,0,23,0,,,,,,vibrate,w,g,upper,,,,,,,1,aftertar3,HiDemTar,g,1,0.8125344370491803,,,,,,,,,,,,,,,,,,,,352,2023-11-14_10h41.18.936,leap3,2022.2.5,59.9947303133085,
,,,,,,,,,,,,,,,,,,,,10,0,10,0,24,0,24,0,,,,,,gaining,w,g,upper,,,,,,,1,w,HiDemTar,g,1,0.7385062105022371,,,,,,,,,,,,,,,,,,,,352,2023-11-14_10h41.18.936,leap3,2022.2.5,59.9947303133085,
,,,,,,,,,,,,,,,,,,,,10,0,10,0,25,0,25,0,,,,,,rejoiced,w,g,upper,,,,,,,1,w,HiDemTar,g,1,0.6992546576075256,,,,,,,,,,,,,,,,,,,,352,2023-11-14_10h41.18.936,leap3,2022.2.5,59.9947303133085,
,,,,,,,,,,,,,,,,,,,,10,0,10,0,26,0,26,0,,,,,,imotope,nw,h,upper,,,,,,,1,w,HiDemTar,h,1,0.5978727727197111,,,,,,,,,,,,,,,,,,,,352,2023-11-14_10h41.18.936,leap3,2022.2.5,59.9947303133085,
,,,,,,,,,,,,,,,,,,,,10,0,10,0,27,0,27,0,,,,,,chemical,w,g,upper,,,,,,,1,nw,HiDemTar,g,1,0.5005323146469891,,,,,,,,,,,,,,,,,,,,352,2023-11-14_10h41.18.936,leap3,2022.2.5,59.9947303133085,
,,,,,,,,,,,,,,,,,,,,10,0,10,0,28,0,28,0,,,,,,gerby,nw,h,upper,,,,,,,1,w,HiDemTar,h,1,0.5821776450611651,,,,,,,,,,,,,,,,,,,,352,2023-11-14_10h41.18.936,leap3,2022.2.5,59.9947303133085,
,,,,,,,,,,,,,,,,,,,,10,0,10,0,29,0,29,0,,,,,,attrove,nw,h,upper,,,,,,,1,nw,HiDemTar,h,1,0.8134538624435663,,,,,,,,,,,,,,,,,,,,352,2023-11-14_10h41.18.936,leap3,2022.2.5,59.9947303133085,
,,,,,,,,,,,,,,,,,,,,10,0,10,0,,,,,,,,,,,,,,,,,,,,,,,,,,,0,,,,,,,,,,,,,,,,,,352,2023-11-14_10h41.18.936,leap3,2022.2.5,59.9947303133085,
,,,,,,,,,,,,,,,,,,,,11,0,11,0,0,0,0,0,,,,,,dentures,w,g,upper,,,,,,,1,w,HiDemTar,g,1,2.820123468991369,,,,,,,,,,,,,,,,,,,,352,2023-11-14_10h41.18.936,leap3,2022.2.5,59.9947303133085,
,,,,,,,,,,,,,,,,,,,,11,0,11,0,1,0,1,0,,,,,,pocket,w,g,upper,,,,,,,1,w,HiDemTar,g,1,0.8960186187177896,,,,,,,,,,,,,,,,,,,,352,2023-11-14_10h41.18.936,leap3,2022.2.5,59.9947303133085,
,,,,,,,,,,,,,,,,,,,,11,0,11,0,2,0,2,0,,,,,,wimpid,nw,h,upper,,,,,,,1,nw,HiDemTar,h,1,0.6192559013143182,,,,,,,,,,,,,,,,,,,,352,2023-11-14_10h41.18.936,leap3,2022.2.5,59.9947303133085,
,,,,,,,,,,,,,,,,,,,,11,0,11,0,3,0,3,0,,,,,,rearrange,w,g,upper,,,,,,,1,w,HiDemTar,g,1,0.5371756092645228,,,,,,,,,,,,,,,,,,,,352,2023-11-14_10h41.18.936,leap3,2022.2.5,59.9947303133085,
,,,,,,,,,,,,,,,,,,,,11,0,11,0,4,0,4,0,,,,,,havel,nw,h,upper,,,,,,,1,nw,HiDemTar,h,1,0.6816265033558011,,,,,,,,,,,,,,,,,,,,352,2023-11-14_10h41.18.936,leap3,2022.2.5,59.9947303133085,
,,,,,,,,,,,,,,,,,,,,11,0,11,0,5,0,5,0,,,,,,wienegs,nw,h,upper,,,,,,,1,nw,HiDemTar,h,1,0.613113621249795,,,,,,,,,,,,,,,,,,,,352,2023-11-14_10h41.18.936,leap3,2022.2.5,59.9947303133085,
,,,,,,,,,,,,,,,,,,,,11,0,11,0,6,0,6,0,,,,,,pillage,w,g,upper,,,,,,,1,w,HiDemTar,h,0,0.6430544075556099,,,,,,,,,,,,,,,,,,,,352,2023-11-14_10h41.18.936,leap3,2022.2.5,59.9947303133085,
,,,,,,,,,,,,,,,,,,,,11,0,11,0,7,0,7,0,,,,,,happen,w,g,upper,,,,,,,1,w,HiDemTar,g,1,0.7996513145044446,,,,,,,,,,,,,,,,,,,,352,2023-11-14_10h41.18.936,leap3,2022.2.5,59.9947303133085,
,,,,,,,,,,,,,,,,,,,,11,0,11,0,8,0,8,0,,,,,,image,w,g,upper,,,,,,,1,w,HiDemTar,g,1,0.3743144762702286,,,,,,,,,,,,,,,,,,,,352,2023-11-14_10h41.18.936,leap3,2022.2.5,59.9947303133085,
,,,,,,,,,,,,,,,,,,,,11,0,11,0,9,0,9,0,,,,,,pammed,nw,h,upper,,,,,,,1,nw,HiDemTar,h,1,0.6135105490684509,,,,,,,,,,,,,,,,,,,,352,2023-11-14_10h41.18.936,leap3,2022.2.5,59.9947303133085,
,,,,,,,,,,,,,,,,,,,,11,0,11,0,10,0,10,0,,,,,,rabbit,target,q,upper,,,,,,,1,target,HiDemTar,g,0,0.49937925999984145,1,,,1,,,,,,,,,,,,,,,,352,2023-11-14_10h41.18.936,leap3,2022.2.5,59.9947303133085,
,,,,,,,,,,,,,,,,,,,,11,0,11,0,11,0,11,0,,,,,,theles,nw,h,upper,,,,,,,1,aftertar1,HiDemTar,h,1,1.2127497745677829,,,,,,,,,,,,,,,,,,,,352,2023-11-14_10h41.18.936,leap3,2022.2.5,59.9947303133085,
,,,,,,,,,,,,,,,,,,,,11,0,11,0,12,0,12,0,,,,,,ghists,nw,h,upper,,,,,,,1,aftertar2,HiDemTar,h,1,0.5064545487985015,,,,,,,,,,,,,,,,,,,,352,2023-11-14_10h41.18.936,leap3,2022.2.5,59.9947303133085,
,,,,,,,,,,,,,,,,,,,,11,0,11,0,13,0,13,0,,,,,,walnut,w,g,upper,,,,,,,1,aftertar3,HiDemTar,g,1,0.5482117314822972,,,,,,,,,,,,,,,,,,,,352,2023-11-14_10h41.18.936,leap3,2022.2.5,59.9947303133085,
,,,,,,,,,,,,,,,,,,,,11,0,11,0,14,0,14,0,,,,,,country,w,g,upper,,,,,,,1,w,HiDemTar,g,1,0.7809250415302813,,,,,,,,,,,,,,,,,,,,352,2023-11-14_10h41.18.936,leap3,2022.2.5,59.9947303133085,
,,,,,,,,,,,,,,,,,,,,11,0,11,0,15,0,15,0,,,,,,fullity,nw,h,upper,,,,,,,1,w,HiDemTar,h,1,0.6680104960687459,,,,,,,,,,,,,,,,,,,,352,2023-11-14_10h41.18.936,leap3,2022.2.5,59.9947303133085,
,,,,,,,,,,,,,,,,,,,,11,0,11,0,16,0,16,0,,,,,,suspect,w,g,upper,,,,,,,1,nw,HiDemTar,g,1,0.4879597923718393,,,,,,,,,,,,,,,,,,,,352,2023-11-14_10h41.18.936,leap3,2022.2.5,59.9947303133085,
,,,,,,,,,,,,,,,,,,,,11,0,11,0,17,0,17,0,,,,,,praiged,nw,h,upper,,,,,,,1,w,HiDemTar,h,1,0.5304468404501677,,,,,,,,,,,,,,,,,,,,352,2023-11-14_10h41.18.936,leap3,2022.2.5,59.9947303133085,
,,,,,,,,,,,,,,,,,,,,11,0,11,0,18,0,18,0,,,,,,fomrade,nw,h,upper,,,,,,,1,nw,HiDemTar,h,1,0.6687322119250894,,,,,,,,,,,,,,,,,,,,352,2023-11-14_10h41.18.936,leap3,2022.2.5,59.9947303133085,
,,,,,,,,,,,,,,,,,,,,11,0,11,0,19,0,19,0,,,,,,culer,nw,h,upper,,,,,,,1,nw,HiDemTar,h,1,0.6148658418096602,,,,,,,,,,,,,,,,,,,,352,2023-11-14_10h41.18.936,leap3,2022.2.5,59.9947303133085,
,,,,,,,,,,,,,,,,,,,,11,0,11,0,20,0,20,0,,,,,,infusion,w,g,upper,,,,,,,1,nw,HiDemTar,g,1,0.6777474703267217,,,,,,,,,,,,,,,,,,,,352,2023-11-14_10h41.18.936,leap3,2022.2.5,59.9947303133085,
,,,,,,,,,,,,,,,,,,,,11,0,11,0,21,0,21,0,,,,,,classify,w,g,upper,,,,,,,1,w,HiDemTar,g,1,0.8481725822202861,,,,,,,,,,,,,,,,,,,,352,2023-11-14_10h41.18.936,leap3,2022.2.5,59.9947303133085,
,,,,,,,,,,,,,,,,,,,,11,0,11,0,22,0,22,0,,,,,,potatoes,w,g,upper,,,,,,,1,w,HiDemTar,g,1,0.4768074587918818,,,,,,,,,,,,,,,,,,,,352,2023-11-14_10h41.18.936,leap3,2022.2.5,59.9947303133085,
,,,,,,,,,,,,,,,,,,,,11,0,11,0,23,0,23,0,,,,,,mabit,nw,h,upper,,,,,,,1,w,HiDemTar,h,1,0.5509573300369084,,,,,,,,,,,,,,,,,,,,352,2023-11-14_10h41.18.936,leap3,2022.2.5,59.9947303133085,
,,,,,,,,,,,,,,,,,,,,11,0,11,0,24,0,24,0,,,,,,sodent,nw,h,upper,,,,,,,1,nw,HiDemTar,g,0,0.5038040322251618,,,,,,,,,,,,,,,,,,,,352,2023-11-14_10h41.18.936,leap3,2022.2.5,59.9947303133085,
,,,,,,,,,,,,,,,,,,,,11,0,11,0,25,0,25,0,,,,,,rationale,w,g,upper,,,,,,,1,nw,HiDemTar,g,1,0.48238920932635665,,,,,,,,,,,,,,,,,,,,352,2023-11-14_10h41.18.936,leap3,2022.2.5,59.9947303133085,
,,,,,,,,,,,,,,,,,,,,11,0,11,0,26,0,26,0,,,,,,rasuals,nw,h,upper,,,,,,,1,w,HiDemTar,h,1,0.5902152215130627,,,,,,,,,,,,,,,,,,,,352,2023-11-14_10h41.18.936,leap3,2022.2.5,59.9947303133085,
,,,,,,,,,,,,,,,,,,,,11,0,11,0,27,0,27,0,,,,,,fassed,nw,h,upper,,,,,,,1,nw,HiDemTar,h,1,0.6127529139630497,,,,,,,,,,,,,,,,,,,,352,2023-11-14_10h41.18.936,leap3,2022.2.5,59.9947303133085,
,,,,,,,,,,,,,,,,,,,,11,0,11,0,28,0,28,0,,,,,,ilcurring,nw,h,upper,,,,,,,1,nw,HiDemTar,h,1,0.5307649872265756,,,,,,,,,,,,,,,,,,,,352,2023-11-14_10h41.18.936,leap3,2022.2.5,59.9947303133085,
,,,,,,,,,,,,,,,,,,,,11,0,11,0,29,0,29,0,,,,,,remover,w,g,upper,,,,,,,1,nw,HiDemTar,h,0,0.6992380558513105,,,,,,,,,,,,,,,,,,,,352,2023-11-14_10h41.18.936,leap3,2022.2.5,59.9947303133085,
,,,,,,,,,,,,,,,,,,,,11,0,11,0,,,,,,,,,,,,,,,,,,,,,,,,,,,1,,,,,,,,,,,,,,,,,,352,2023-11-14_10h41.18.936,leap3,2022.2.5,59.9947303133085,
,,,,,,,,,,,,,,,,,,,,12,0,12,0,0,0,0,0,,,,,,bettled,nw,h,lower,,,,,,,3,nw,LoDemNoTar,g,0,1.262511934619397,,,,,,,,,,,,,,,,,,,,352,2023-11-14_10h41.18.936,leap3,2022.2.5,59.9947303133085,
,,,,,,,,,,,,,,,,,,,,12,0,12,0,1,0,1,0,,,,,,sonnet,w,g,lower,,,,,,,3,w,LoDemNoTar,g,1,1.490419843699783,,,,,,,,,,,,,,,,,,,,352,2023-11-14_10h41.18.936,leap3,2022.2.5,59.9947303133085,
,,,,,,,,,,,,,,,,,,,,12,0,12,0,2,0,2,0,,,,,,igiom,nw,h,lower,,,,,,,3,nw,LoDemNoTar,h,1,0.6210914314724505,,,,,,,,,,,,,,,,,,,,352,2023-11-14_10h41.18.936,leap3,2022.2.5,59.9947303133085,
,,,,,,,,,,,,,,,,,,,,12,0,12,0,3,0,3,0,,,,,,hubris,w,g,lower,,,,,,,3,w,LoDemNoTar,h,0,1.0815345607697964,,,,,,,,,,,,,,,,,,,,352,2023-11-14_10h41.18.936,leap3,2022.2.5,59.9947303133085,
,,,,,,,,,,,,,,,,,,,,12,0,12,0,4,0,4,0,,,,,,mestowal,nw,h,lower,,,,,,,3,nw,LoDemNoTar,h,1,0.9817648394964635,,,,,,,,,,,,,,,,,,,,352,2023-11-14_10h41.18.936,leap3,2022.2.5,59.9947303133085,
,,,,,,,,,,,,,,,,,,,,12,0,12,0,5,0,5,0,,,,,,alarm,w,g,lower,,,,,,,3,w,LoDemNoTar,g,1,0.6120864362455904,,,,,,,,,,,,,,,,,,,,352,2023-11-14_10h41.18.936,leap3,2022.2.5,59.9947303133085,
,,,,,,,,,,,,,,,,,,,,12,0,12,0,6,0,6,0,,,,,,criminal,w,g,lower,,,,,,,3,w,LoDemNoTar,g,1,0.7702450985088944,,,,,,,,,,,,,,,,,,,,352,2023-11-14_10h41.18.936,leap3,2022.2.5,59.9947303133085,
,,,,,,,,,,,,,,,,,,,,12,0,12,0,7,0,7,0,,,,,,redefloy,nw,h,lower,,,,,,,3,nw,LoDemNoTar,h,1,0.9774671453051269,,,,,,,,,,,,,,,,,,,,352,2023-11-14_10h41.18.936,leap3,2022.2.5,59.9947303133085,
,,,,,,,,,,,,,,,,,,,,12,0,12,0,8,0,8,0,,,,,,migmarole,nw,h,lower,,,,,,,3,nw,LoDemNoTar,h,1,0.7687929137609899,,,,,,,,,,,,,,,,,,,,352,2023-11-14_10h41.18.936,leap3,2022.2.5,59.9947303133085,
,,,,,,,,,,,,,,,,,,,,12,0,12,0,9,0,9,0,,,,,,brouhuha,nw,h,lower,,,,,,,3,nw,LoDemNoTar,h,1,0.4408119274303317,,,,,,,,,,,,,,,,,,,,352,2023-11-14_10h41.18.936,leap3,2022.2.5,59.9947303133085,
,,,,,,,,,,,,,,,,,,,,12,0,12,0,10,0,10,0,,,,,,elvisages,nw,h,lower,,,,,,,3,nw,LoDemNoTar,h,1,0.517442375421524,,,,,,,,,,,,,,,,,,,,352,2023-11-14_10h41.18.936,leap3,2022.2.5,59.9947303133085,
,,,,,,,,,,,,,,,,,,,,12,0,12,0,11,0,11,0,,,,,,sponto,nw,h,lower,,,,,,,3,nw,LoDemNoTar,h,1,0.48748076148331165,,,,,,,,,,,,,,,,,,,,352,2023-11-14_10h41.18.936,leap3,2022.2.5,59.9947303133085,
,,,,,,,,,,,,,,,,,,,,12,0,12,0,12,0,12,0,,,,,,unbridled,w,g,lower,,,,,,,3,w,LoDemNoTar,g,1,0.5612856214866042,,,,,,,,,,,,,,,,,,,,352,2023-11-14_10h41.18.936,leap3,2022.2.5,59.9947303133085,
,,,,,,,,,,,,,,,,,,,,12,0,12,0,13,0,13,0,,,,,,living,w,g,lower,,,,,,,3,w,LoDemNoTar,g,1,0.5519232400692999,,,,,,,,,,,,,,,,,,,,352,2023-11-14_10h41.18.936,leap3,2022.2.5,59.9947303133085,
,,,,,,,,,,,,,,,,,,,,12,0,12,0,14,0,14,0,,,,,,serving,w,g,lower,,,,,,,3,w,LoDemNoTar,g,1,0.5120492787100375,,,,,,,,,,,,,,,,,,,,352,2023-11-14_10h41.18.936,leap3,2022.2.5,59.9947303133085,
,,,,,,,,,,,,,,,,,,,,12,0,12,0,15,0,15,0,,,,,,rebool,nw,h,lower,,,,,,,3,nw,LoDemNoTar,h,1,0.5705402442254126,,,,,,,,,,,,,,,,,,,,352,2023-11-14_10h41.18.936,leap3,2022.2.5,59.9947303133085,
,,,,,,,,,,,,,,,,,,,,12,0,12,0,16,0,16,0,,,,,,ebciting,nw,h,lower,,,,,,,3,nw,LoDemNoTar,h,1,0.5625829589553177,,,,,,,,,,,,,,,,,,,,352,2023-11-14_10h41.18.936,leap3,2022.2.5,59.9947303133085,
,,,,,,,,,,,,,,,,,,,,12,0,12,0,17,0,17,0,,,,,,dricked,nw,h,lower,,,,,,,3,nw,LoDemNoTar,h,1,0.5144079094752669,,,,,,,,,,,,,,,,,,,,352,2023-11-14_10h41.18.936,leap3,2022.2.5,59.9947303133085,
,,,,,,,,,,,,,,,,,,,,12,0,12,0,18,0,18,0,,,,,,stagger,w,g,lower,,,,,,,3,w,LoDemNoTar,h,0,0.4445309820584953,,,,,,,,,,,,,,,,,,,,352,2023-11-14_10h41.18.936,leap3,2022.2.5,59.9947303133085,
,,,,,,,,,,,,,,,,,,,,12,0,12,0,19,0,19,0,,,,,,contact,w,g,lower,,,,,,,3,w,LoDemNoTar,g,1,0.45709082623943686,,,,,,,,,,,,,,,,,,,,352,2023-11-14_10h41.18.936,leap3,2022.2.5,59.9947303133085,
,,,,,,,,,,,,,,,,,,,,12,0,12,0,20,0,20,0,,,,,,befin,nw,h,lower,,,,,,,3,nw,LoDemNoTar,h,1,0.4610827504657209,,,,,,,,,,,,,,,,,,,,352,2023-11-14_10h41.18.936,leap3,2022.2.5,59.9947303133085,
,,,,,,,,,,,,,,,,,,,,12,0,12,0,21,0,21,0,,,,,,command,w,g,lower,,,,,,,3,w,LoDemNoTar,g,1,0.47314877388998866,,,,,,,,,,,,,,,,,,,,352,2023-11-14_10h41.18.936,leap3,2022.2.5,59.9947303133085,
,,,,,,,,,,,,,,,,,,,,12,0,12,0,22,0,22,0,,,,,,borrent,nw,h,lower,,,,,,,3,nw,LoDemNoTar,h,1,0.6444812370464206,,,,,,,,,,,,,,,,,,,,352,2023-11-14_10h41.18.936,leap3,2022.2.5,59.9947303133085,
,,,,,,,,,,,,,,,,,,,,12,0,12,0,23,0,23,0,,,,,,wrestle,w,g,lower,,,,,,,3,w,LoDemNoTar,g,1,0.521177729126066,,,,,,,,,,,,,,,,,,,,352,2023-11-14_10h41.18.936,leap3,2022.2.5,59.9947303133085,
,,,,,,,,,,,,,,,,,,,,12,0,12,0,24,0,24,0,,,,,,comply,w,g,lower,,,,,,,3,w,LoDemNoTar,g,1,0.6815377604216337,,,,,,,,,,,,,,,,,,,,352,2023-11-14_10h41.18.936,leap3,2022.2.5,59.9947303133085,
,,,,,,,,,,,,,,,,,,,,12,0,12,0,25,0,25,0,,,,,,contund,nw,h,lower,,,,,,,3,nw,LoDemNoTar,h,1,0.6527608949691057,,,,,,,,,,,,,,,,,,,,352,2023-11-14_10h41.18.936,leap3,2022.2.5,59.9947303133085,
,,,,,,,,,,,,,,,,,,,,12,0,12,0,26,0,26,0,,,,,,ethical,w,g,lower,,,,,,,3,w,LoDemNoTar,g,1,0.5688097565434873,,,,,,,,,,,,,,,,,,,,352,2023-11-14_10h41.18.936,leap3,2022.2.5,59.9947303133085,
,,,,,,,,,,,,,,,,,,,,12,0,12,0,27,0,27,0,,,,,,violate,w,g,lower,,,,,,,3,w,LoDemNoTar,g,1,0.8007334349676967,,,,,,,,,,,,,,,,,,,,352,2023-11-14_10h41.18.936,leap3,2022.2.5,59.9947303133085,
,,,,,,,,,,,,,,,,,,,,12,0,12,0,28,0,28,0,,,,,,engineer,w,g,lower,,,,,,,3,w,LoDemNoTar,g,1,0.4710690495558083,,,,,,,,,,,,,,,,,,,,352,2023-11-14_10h41.18.936,leap3,2022.2.5,59.9947303133085,
,,,,,,,,,,,,,,,,,,,,12,0,12,0,29,0,29,0,,,,,,tunneg,nw,h,lower,,,,,,,3,nw,LoDemNoTar,h,1,1.2984135914593935,,,,,,,,,,,,,,,,,,,,352,2023-11-14_10h41.18.936,leap3,2022.2.5,59.9947303133085,
,,,,,,,,,,,,,,,,,,,,12,0,12,0,,,,,,,,,,,,,,,,,,,,,,,,,,,NA,,,,,,,,,,,,,,,,,,352,2023-11-14_10h41.18.936,leap3,2022.2.5,59.9947303133085,
,,,,,,,,,,,,,,,,,,,,13,0,13,0,0,0,0,0,,,,,,atsless,nw,h,lower,,,,,,,4,nw,LoDemTar,h,1,2.4208212182857096,,,,,,,,,,,,,,,,,,,,352,2023-11-14_10h41.18.936,leap3,2022.2.5,59.9947303133085,
,,,,,,,,,,,,,,,,,,,,13,0,13,0,1,0,1,0,,,,,,prison,w,g,lower,,,,,,,4,w,LoDemTar,g,1,0.546134723816067,,,,,,,,,,,,,,,,,,,,352,2023-11-14_10h41.18.936,leap3,2022.2.5,59.9947303133085,
,,,,,,,,,,,,,,,,,,,,13,0,13,0,2,0,2,0,,,,,,rainfall,w,g,lower,,,,,,,4,w,LoDemTar,g,1,0.49081979040056467,,,,,,,,,,,,,,,,,,,,352,2023-11-14_10h41.18.936,leap3,2022.2.5,59.9947303133085,
,,,,,,,,,,,,,,,,,,,,13,0,13,0,3,0,3,0,,,,,,triangle,w,g,lower,,,,,,,4,w,LoDemTar,g,1,1.2443609815090895,,,,,,,,,,,,,,,,,,,,352,2023-11-14_10h41.18.936,leap3,2022.2.5,59.9947303133085,
,,,,,,,,,,,,,,,,,,,,13,0,13,0,4,0,4,0,,,,,,cemoir,nw,h,lower,,,,,,,4,nw,LoDemTar,h,1,0.5453007211908698,,,,,,,,,,,,,,,,,,,,352,2023-11-14_10h41.18.936,leap3,2022.2.5,59.9947303133085,
,,,,,,,,,,,,,,,,,,,,13,0,13,0,5,0,5,0,,,,,,glates,nw,h,lower,,,,,,,4,nw,LoDemTar,h,1,0.6415660013444722,,,,,,,,,,,,,,,,,,,,352,2023-11-14_10h41.18.936,leap3,2022.2.5,59.9947303133085,
,,,,,,,,,,,,,,,,,,,,13,0,13,0,6,0,6,0,,,,,,rarely,w,g,lower,,,,,,,4,w,LoDemTar,g,1,0.5506732920184731,,,,,,,,,,,,,,,,,,,,352,2023-11-14_10h41.18.936,leap3,2022.2.5,59.9947303133085,
,,,,,,,,,,,,,,,,,,,,13,0,13,0,7,0,7,0,,,,,,eugenifs,nw,h,lower,,,,,,,4,nw,LoDemTar,h,1,0.47845463687554,,,,,,,,,,,,,,,,,,,,352,2023-11-14_10h41.18.936,leap3,2022.2.5,59.9947303133085,
,,,,,,,,,,,,,,,,,,,,13,0,13,0,8,0,8,0,,,,,,become,w,g,lower,,,,,,,4,w,LoDemTar,g,1,0.5538167245686054,,,,,,,,,,,,,,,,,,,,352,2023-11-14_10h41.18.936,leap3,2022.2.5,59.9947303133085,
,,,,,,,,,,,,,,,,,,,,13,0,13,0,9,0,9,0,,,,,,saucer,w,g,lower,,,,,,,4,w,LoDemTar,h,0,0.537733422126621,,,,,,,,,,,,,,,,,,,,352,2023-11-14_10h41.18.936,leap3,2022.2.5,59.9947303133085,
,,,,,,,,,,,,,,,,,,,,13,0,13,0,10,0,10,0,,,,,,lignpost,nw,h,lower,,,,,,,4,nw,LoDemTar,h,1,0.5465717976912856,,,,,,,,,,,,,,,,,,,,352,2023-11-14_10h41.18.936,leap3,2022.2.5,59.9947303133085,
,,,,,,,,,,,,,,,,,,,,13,0,13,0,11,0,11,0,,,,,,crocodile,target,q,lower,,,,,,,4,target,LoDemTar,g,0,0.5311733861453831,,,,,,,,,,,,,,,,,,,,352,2023-11-14_10h41.18.936,leap3,2022.2.5,59.9947303133085,
,,,,,,,,,,,,,,,,,,,,13,0,13,0,12,0,12,0,,,,,,pastnoss,nw,h,lower,,,,,,,4,aftertar1,LoDemTar,h,1,1.0845451802015305,,,,,,,,,,,,,,,,,,,,352,2023-11-14_10h41.18.936,leap3,2022.2.5,59.9947303133085,
,,,,,,,,,,,,,,,,,,,,13,0,13,0,13,0,13,0,,,,,,mining,w,g,lower,,,,,,,4,aftertar2,LoDemTar,g,1,0.7109729535877705,,,,,,,,,,,,,,,,,,,,352,2023-11-14_10h41.18.936,leap3,2022.2.5,59.9947303133085,
,,,,,,,,,,,,,,,,,,,,13,0,13,0,14,0,14,0,,,,,,antwers,nw,h,lower,,,,,,,4,aftertar3,LoDemTar,h,1,0.6249568816274405,,,,,,,,,,,,,,,,,,,,352,2023-11-14_10h41.18.936,leap3,2022.2.5,59.9947303133085,
,,,,,,,,,,,,,,,,,,,,13,0,13,0,15,0,15,0,,,,,,shurk,nw,h,lower,,,,,,,4,nw,LoDemTar,h,1,0.7743444796651602,,,,,,,,,,,,,,,,,,,,352,2023-11-14_10h41.18.936,leap3,2022.2.5,59.9947303133085,
,,,,,,,,,,,,,,,,,,,,13,0,13,0,16,0,16,0,,,,,,withep,nw,h,lower,,,,,,,4,nw,LoDemTar,h,1,0.6686492040753365,,,,,,,,,,,,,,,,,,,,352,2023-11-14_10h41.18.936,leap3,2022.2.5,59.9947303133085,
,,,,,,,,,,,,,,,,,,,,13,0,13,0,17,0,17,0,,,,,,earterner,nw,h,lower,,,,,,,4,nw,LoDemTar,h,1,0.5600592182017863,,,,,,,,,,,,,,,,,,,,352,2023-11-14_10h41.18.936,leap3,2022.2.5,59.9947303133085,
,,,,,,,,,,,,,,,,,,,,13,0,13,0,18,0,18,0,,,,,,bloves,nw,h,lower,,,,,,,4,nw,LoDemTar,h,1,0.4720014543272555,,,,,,,,,,,,,,,,,,,,352,2023-11-14_10h41.18.936,leap3,2022.2.5,59.9947303133085,
,,,,,,,,,,,,,,,,,,,,13,0,13,0,19,0,19,0,,,,,,glapula,nw,h,lower,,,,,,,4,nw,LoDemTar,h,1,0.5073830294422805,,,,,,,,,,,,,,,,,,,,352,2023-11-14_10h41.18.936,leap3,2022.2.5,59.9947303133085,
,,,,,,,,,,,,,,,,,,,,13,0,13,0,20,0,20,0,,,,,,movie,w,g,lower,,,,,,,4,nw,LoDemTar,g,1,0.5893929908052087,,,,,,,,,,,,,,,,,,,,352,2023-11-14_10h41.18.936,leap3,2022.2.5,59.9947303133085,
,,,,,,,,,,,,,,,,,,,,13,0,13,0,21,0,21,0,,,,,,module,w,g,lower,,,,,,,4,w,LoDemTar,g,1,1.1000425983220339,,,,,,,,,,,,,,,,,,,,352,2023-11-14_10h41.18.936,leap3,2022.2.5,59.9947303133085,
,,,,,,,,,,,,,,,,,,,,13,0,13,0,22,0,22,0,,,,,,sequence,w,g,lower,,,,,,,4,w,LoDemTar,g,1,0.6388068199157715,,,,,,,,,,,,,,,,,,,,352,2023-11-14_10h41.18.936,leap3,2022.2.5,59.9947303133085,
,,,,,,,,,,,,,,,,,,,,13,0,13,0,23,0,23,0,,,,,,ezulated,nw,h,lower,,,,,,,4,w,LoDemTar,h,1,0.5466046994552016,,,,,,,,,,,,,,,,,,,,352,2023-11-14_10h41.18.936,leap3,2022.2.5,59.9947303133085,
,,,,,,,,,,,,,,,,,,,,13,0,13,0,24,0,24,0,,,,,,airmen,w,g,lower,,,,,,,4,nw,LoDemTar,g,1,0.8350977865047753,,,,,,,,,,,,,,,,,,,,352,2023-11-14_10h41.18.936,leap3,2022.2.5,59.9947303133085,
,,,,,,,,,,,,,,,,,,,,13,0,13,0,25,0,25,0,,,,,,volume,w,g,lower,,,,,,,4,w,LoDemTar,g,1,0.5277395765297115,,,,,,,,,,,,,,,,,,,,352,2023-11-14_10h41.18.936,leap3,2022.2.5,59.9947303133085,
,,,,,,,,,,,,,,,,,,,,13,0,13,0,26,0,26,0,,,,,,unspoken,w,g,lower,,,,,,,4,w,LoDemTar,g,1,0.5451132743619382,,,,,,,,,,,,,,,,,,,,352,2023-11-14_10h41.18.936,leap3,2022.2.5,59.9947303133085,
,,,,,,,,,,,,,,,,,,,,13,0,13,0,27,0,27,0,,,,,,catacomb,w,g,lower,,,,,,,4,w,LoDemTar,h,0,0.5217838380485773,,,,,,,,,,,,,,,,,,,,352,2023-11-14_10h41.18.936,leap3,2022.2.5,59.9947303133085,
,,,,,,,,,,,,,,,,,,,,13,0,13,0,28,0,28,0,,,,,,encounter,w,g,lower,,,,,,,4,w,LoDemTar,g,1,0.48206110252067447,,,,,,,,,,,,,,,,,,,,352,2023-11-14_10h41.18.936,leap3,2022.2.5,59.9947303133085,
,,,,,,,,,,,,,,,,,,,,13,0,13,0,29,0,29,0,,,,,,clarms,nw,h,lower,,,,,,,4,w,LoDemTar,g,0,0.5332440547645092,,,,,,,,,,,,,,,,,,,,352,2023-11-14_10h41.18.936,leap3,2022.2.5,59.9947303133085,
,,,,,,,,,,,,,,,,,,,,13,0,13,0,,,,,,,,,,,,,,,,,,,,,,,,,,,0,,,,,,,,,,,,,,,,,,352,2023-11-14_10h41.18.936,leap3,2022.2.5,59.9947303133085,
,,,,,,,,,,,,,,,,,,,,14,0,14,0,0,0,0,0,,,,,,apticle,nw,h,upper,,,,,,,2,nw,HiDemNoTar,h,1,0.5598141187801957,,,,,,,,,,,,,,,,,,,,352,2023-11-14_10h41.18.936,leap3,2022.2.5,59.9947303133085,
,,,,,,,,,,,,,,,,,,,,14,0,14,0,1,0,1,0,,,,,,describe,w,g,upper,,,,,,,2,w,HiDemNoTar,g,1,0.6147257843986154,,,,,,,,,,,,,,,,,,,,352,2023-11-14_10h41.18.936,leap3,2022.2.5,59.9947303133085,
,,,,,,,,,,,,,,,,,,,,14,0,14,0,2,0,2,0,,,,,,ugifies,nw,h,upper,,,,,,,2,nw,HiDemNoTar,h,1,0.6446997742168605,,,,,,,,,,,,,,,,,,,,352,2023-11-14_10h41.18.936,leap3,2022.2.5,59.9947303133085,
,,,,,,,,,,,,,,,,,,,,14,0,14,0,3,0,3,0,,,,,,glassware,w,g,upper,,,,,,,2,w,HiDemNoTar,g,1,0.4894617819227278,,,,,,,,,,,,,,,,,,,,352,2023-11-14_10h41.18.936,leap3,2022.2.5,59.9947303133085,
,,,,,,,,,,,,,,,,,,,,14,0,14,0,4,0,4,0,,,,,,observer,w,g,upper,,,,,,,2,w,HiDemNoTar,g,1,0.5801969268359244,,,,,,,,,,,,,,,,,,,,352,2023-11-14_10h41.18.936,leap3,2022.2.5,59.9947303133085,
,,,,,,,,,,,,,,,,,,,,14,0,14,0,5,0,5,0,,,,,,plogging,nw,h,upper,,,,,,,2,nw,HiDemNoTar,h,1,0.5314504811540246,,,,,,,,,,,,,,,,,,,,352,2023-11-14_10h41.18.936,leap3,2022.2.5,59.9947303133085,
,,,,,,,,,,,,,,,,,,,,14,0,14,0,6,0,6,0,,,,,,bookend,w,g,upper,,,,,,,2,w,HiDemNoTar,h,0,0.6927622351795435,,,,,,,,,,,,,,,,,,,,352,2023-11-14_10h41.18.936,leap3,2022.2.5,59.9947303133085,
,,,,,,,,,,,,,,,,,,,,14,0,14,0,7,0,7,0,,,,,,pived,nw,h,upper,,,,,,,2,nw,HiDemNoTar,h,1,0.5514381718821824,,,,,,,,,,,,,,,,,,,,352,2023-11-14_10h41.18.936,leap3,2022.2.5,59.9947303133085,
,,,,,,,,,,,,,,,,,,,,14,0,14,0,8,0,8,0,,,,,,sunhess,nw,h,upper,,,,,,,2,nw,HiDemNoTar,h,1,0.6465259473770857,,,,,,,,,,,,,,,,,,,,352,2023-11-14_10h41.18.936,leap3,2022.2.5,59.9947303133085,
,,,,,,,,,,,,,,,,,,,,14,0,14,0,9,0,9,0,,,,,,eightiech,nw,h,upper,,,,,,,2,nw,HiDemNoTar,h,1,0.4921292020007968,,,,,,,,,,,,,,,,,,,,352,2023-11-14_10h41.18.936,leap3,2022.2.5,59.9947303133085,
,,,,,,,,,,,,,,,,,,,,14,0,14,0,10,0,10,0,,,,,,deadly,w,g,upper,,,,,,,2,w,HiDemNoTar,g,1,0.5817722650244832,,,,,,,,,,,,,,,,,,,,352,2023-11-14_10h41.18.936,leap3,2022.2.5,59.9947303133085,
,,,,,,,,,,,,,,,,,,,,14,0,14,0,11,0,11,0,,,,,,yearnungs,nw,h,upper,,,,,,,2,nw,HiDemNoTar,h,1,0.6611226545646787,,,,,,,,,,,,,,,,,,,,352,2023-11-14_10h41.18.936,leap3,2022.2.5,59.9947303133085,
,,,,,,,,,,,,,,,,,,,,14,0,14,0,12,0,12,0,,,,,,amaze,w,g,upper,,,,,,,2,w,HiDemNoTar,g,1,0.5210820441134274,,,,,,,,,,,,,,,,,,,,352,2023-11-14_10h41.18.936,leap3,2022.2.5,59.9947303133085,
,,,,,,,,,,,,,,,,,,,,14,0,14,0,13,0,13,0,,,,,,boutique,w,g,upper,,,,,,,2,w,HiDemNoTar,h,0,0.6505972570739686,,,,,,,,,,,,,,,,,,,,352,2023-11-14_10h41.18.936,leap3,2022.2.5,59.9947303133085,
,,,,,,,,,,,,,,,,,,,,14,0,14,0,14,0,14,0,,,,,,veirs,nw,h,upper,,,,,,,2,nw,HiDemNoTar,h,1,0.69444744521752,,,,,,,,,,,,,,,,,,,,352,2023-11-14_10h41.18.936,leap3,2022.2.5,59.9947303133085,
,,,,,,,,,,,,,,,,,,,,14,0,14,0,15,0,15,0,,,,,,gymnasium,w,g,upper,,,,,,,2,w,HiDemNoTar,g,1,0.5531300231814384,,,,,,,,,,,,,,,,,,,,352,2023-11-14_10h41.18.936,leap3,2022.2.5,59.9947303133085,
,,,,,,,,,,,,,,,,,,,,14,0,14,0,16,0,16,0,,,,,,dumult,nw,h,upper,,,,,,,2,nw,HiDemNoTar,h,1,0.5844028596766293,,,,,,,,,,,,,,,,,,,,352,2023-11-14_10h41.18.936,leap3,2022.2.5,59.9947303133085,
,,,,,,,,,,,,,,,,,,,,14,0,14,0,17,0,17,0,,,,,,strenuous,w,g,upper,,,,,,,2,w,HiDemNoTar,h,0,0.5909577650018036,,,,,,,,,,,,,,,,,,,,352,2023-11-14_10h41.18.936,leap3,2022.2.5,59.9947303133085,
,,,,,,,,,,,,,,,,,,,,14,0,14,0,18,0,18,0,,,,,,neally,nw,h,upper,,,,,,,2,nw,HiDemNoTar,h,1,0.6618612734600902,,,,,,,,,,,,,,,,,,,,352,2023-11-14_10h41.18.936,leap3,2022.2.5,59.9947303133085,
,,,,,,,,,,,,,,,,,,,,14,0,14,0,19,0,19,0,,,,,,daining,nw,h,upper,,,,,,,2,nw,HiDemNoTar,h,1,0.6978166592307389,,,,,,,,,,,,,,,,,,,,352,2023-11-14_10h41.18.936,leap3,2022.2.5,59.9947303133085,
,,,,,,,,,,,,,,,,,,,,14,0,14,0,20,0,20,0,,,,,,kraums,nw,h,upper,,,,,,,2,nw,HiDemNoTar,h,1,0.5782316024415195,,,,,,,,,,,,,,,,,,,,352,2023-11-14_10h41.18.936,leap3,2022.2.5,59.9947303133085,
,,,,,,,,,,,,,,,,,,,,14,0,14,0,21,0,21,0,,,,,,podges,nw,h,upper,,,,,,,2,nw,HiDemNoTar,h,1,0.47384996386244893,,,,,,,,,,,,,,,,,,,,352,2023-11-14_10h41.18.936,leap3,2022.2.5,59.9947303133085,
,,,,,,,,,,,,,,,,,,,,14,0,14,0,22,0,22,0,,,,,,mosary,nw,h,upper,,,,,,,2,nw,HiDemNoTar,h,1,0.4777914793230593,,,,,,,,,,,,,,,,,,,,352,2023-11-14_10h41.18.936,leap3,2022.2.5,59.9947303133085,
,,,,,,,,,,,,,,,,,,,,14,0,14,0,23,0,23,0,,,,,,summon,w,g,upper,,,,,,,2,w,HiDemNoTar,g,1,0.6014771251939237,,,,,,,,,,,,,,,,,,,,352,2023-11-14_10h41.18.936,leap3,2022.2.5,59.9947303133085,
,,,,,,,,,,,,,,,,,,,,14,0,14,0,24,0,24,0,,,,,,sustain,w,g,upper,,,,,,,2,w,HiDemNoTar,g,1,0.5914754322730005,,,,,,,,,,,,,,,,,,,,352,2023-11-14_10h41.18.936,leap3,2022.2.5,59.9947303133085,
,,,,,,,,,,,,,,,,,,,,14,0,14,0,25,0,25,0,,,,,,alchemist,w,g,upper,,,,,,,2,w,HiDemNoTar,g,1,0.7741609569638968,,,,,,,,,,,,,,,,,,,,352,2023-11-14_10h41.18.936,leap3,2022.2.5,59.9947303133085,
,,,,,,,,,,,,,,,,,,,,14,0,14,0,26,0,26,0,,,,,,lentils,w,g,upper,,,,,,,2,w,HiDemNoTar,g,1,0.6534946844913065,,,,,,,,,,,,,,,,,,,,352,2023-11-14_10h41.18.936,leap3,2022.2.5,59.9947303133085,
,,,,,,,,,,,,,,,,,,,,14,0,14,0,27,0,27,0,,,,,,doxing,nw,h,upper,,,,,,,2,nw,HiDemNoTar,g,0,0.8405799278989434,,,,,,,,,,,,,,,,,,,,352,2023-11-14_10h41.18.936,leap3,2022.2.5,59.9947303133085,
,,,,,,,,,,,,,,,,,,,,14,0,14,0,28,0,28,0,,,,,,consonant,w,g,upper,,,,,,,2,w,HiDemNoTar,g,1,0.6936843767762184,,,,,,,,,,,,,,,,,,,,352,2023-11-14_10h41.18.936,leap3,2022.2.5,59.9947303133085,
,,,,,,,,,,,,,,,,,,,,14,0,14,0,29,0,29,0,,,,,,hindsight,w,g,upper,,,,,,,2,w,HiDemNoTar,g,1,0.6798148187808692,,,,,,,,,,,,,,,,,,,,352,2023-11-14_10h41.18.936,leap3,2022.2.5,59.9947303133085,
,,,,,,,,,,,,,,,,,,,,14,0,14,0,,,,,,,,,,,,,,,,,,,,,,,,,,,NA,,,,,,,,,,,,,,,,,,352,2023-11-14_10h41.18.936,leap3,2022.2.5,59.9947303133085,
,,,,,,,,,,,,,,,,,,,,15,0,15,0,0,0,0,0,,,,,,insertion,w,g,lower,,,,,,,3,w,LoDemNoTar,g,1,1.1237369673326612,,,,,,,,,,,,,,,,,,,,352,2023-11-14_10h41.18.936,leap3,2022.2.5,59.9947303133085,
,,,,,,,,,,,,,,,,,,,,15,0,15,0,1,0,1,0,,,,,,sunshine,w,g,lower,,,,,,,3,w,LoDemNoTar,g,1,1.8762567089870572,,,,,,,,,,,,,,,,,,,,352,2023-11-14_10h41.18.936,leap3,2022.2.5,59.9947303133085,
,,,,,,,,,,,,,,,,,,,,15,0,15,0,2,0,2,0,,,,,,hustle,w,g,lower,,,,,,,3,w,LoDemNoTar,g,1,0.6564419162459671,,,,,,,,,,,,,,,,,,,,352,2023-11-14_10h41.18.936,leap3,2022.2.5,59.9947303133085,
,,,,,,,,,,,,,,,,,,,,15,0,15,0,3,0,3,0,,,,,,elderly,w,g,lower,,,,,,,3,w,LoDemNoTar,g,1,0.42745701782405376,,,,,,,,,,,,,,,,,,,,352,2023-11-14_10h41.18.936,leap3,2022.2.5,59.9947303133085,
,,,,,,,,,,,,,,,,,,,,15,0,15,0,4,0,4,0,,,,,,flougy,nw,h,lower,,,,,,,3,nw,LoDemNoTar,h,1,0.768788083922118,,,,,,,,,,,,,,,,,,,,352,2023-11-14_10h41.18.936,leap3,2022.2.5,59.9947303133085,
,,,,,,,,,,,,,,,,,,,,15,0,15,0,5,0,5,0,,,,,,fuintets,nw,h,lower,,,,,,,3,nw,LoDemNoTar,h,1,0.6962974644266069,,,,,,,,,,,,,,,,,,,,352,2023-11-14_10h41.18.936,leap3,2022.2.5,59.9947303133085,
,,,,,,,,,,,,,,,,,,,,15,0,15,0,6,0,6,0,,,,,,imprives,nw,h,lower,,,,,,,3,nw,LoDemNoTar,h,1,0.6428639418445528,,,,,,,,,,,,,,,,,,,,352,2023-11-14_10h41.18.936,leap3,2022.2.5,59.9947303133085,
,,,,,,,,,,,,,,,,,,,,15,0,15,0,7,0,7,0,,,,,,oppose,w,g,lower,,,,,,,3,w,LoDemNoTar,g,1,1.4795515481382608,,,,,,,,,,,,,,,,,,,,352,2023-11-14_10h41.18.936,leap3,2022.2.5,59.9947303133085,
,,,,,,,,,,,,,,,,,,,,15,0,15,0,8,0,8,0,,,,,,elbalm,nw,h,lower,,,,,,,3,nw,LoDemNoTar,h,1,1.7308637513779104,,,,,,,,,,,,,,,,,,,,352,2023-11-14_10h41.18.936,leap3,2022.2.5,59.9947303133085,
,,,,,,,,,,,,,,,,,,,,15,0,15,0,9,0,9,0,,,,,,forgery,w,g,lower,,,,,,,3,w,LoDemNoTar,h,0,0.5229015764780343,,,,,,,,,,,,,,,,,,,,352,2023-11-14_10h41.18.936,leap3,2022.2.5,59.9947303133085,
,,,,,,,,,,,,,,,,,,,,15,0,15,0,10,0,10,0,,,,,,brighten,w,g,lower,,,,,,,3,w,LoDemNoTar,g,1,0.6365571552887559,,,,,,,,,,,,,,,,,,,,352,2023-11-14_10h41.18.936,leap3,2022.2.5,59.9947303133085,
,,,,,,,,,,,,,,,,,,,,15,0,15,0,11,0,11,0,,,,,,downtrund,nw,h,lower,,,,,,,3,nw,LoDemNoTar,h,1,1.2569344099611044,,,,,,,,,,,,,,,,,,,,352,2023-11-14_10h41.18.936,leap3,2022.2.5,59.9947303133085,
,,,,,,,,,,,,,,,,,,,,15,0,15,0,12,0,12,0,,,,,,talent,w,g,lower,,,,,,,3,w,LoDemNoTar,g,1,0.9810784398578107,,,,,,,,,,,,,,,,,,,,352,2023-11-14_10h41.18.936,leap3,2022.2.5,59.9947303133085,
,,,,,,,,,,,,,,,,,,,,15,0,15,0,13,0,13,0,,,,,,dealer,w,g,lower,,,,,,,3,w,LoDemNoTar,g,1,0.6444948203861713,,,,,,,,,,,,,,,,,,,,352,2023-11-14_10h41.18.936,leap3,2022.2.5,59.9947303133085,
,,,,,,,,,,,,,,,,,,,,15,0,15,0,14,0,14,0,,,,,,nomma,nw,h,lower,,,,,,,3,nw,LoDemNoTar,g,0,1.161112844478339,,,,,,,,,,,,,,,,,,,,352,2023-11-14_10h41.18.936,leap3,2022.2.5,59.9947303133085,
,,,,,,,,,,,,,,,,,,,,15,0,15,0,15,0,15,0,,,,,,bentler,nw,h,lower,,,,,,,3,nw,LoDemNoTar,h,1,0.5931579256430268,,,,,,,,,,,,,,,,,,,,352,2023-11-14_10h41.18.936,leap3,2022.2.5,59.9947303133085,
,,,,,,,,,,,,,,,,,,,,15,0,15,0,16,0,16,0,,,,,,gontracts,nw,h,lower,,,,,,,3,nw,LoDemNoTar,h,1,0.5037795822136104,,,,,,,,,,,,,,,,,,,,352,2023-11-14_10h41.18.936,leap3,2022.2.5,59.9947303133085,
,,,,,,,,,,,,,,,,,,,,15,0,15,0,17,0,17,0,,,,,,joadbed,nw,h,lower,,,,,,,3,nw,LoDemNoTar,h,1,0.42581949941813946,,,,,,,,,,,,,,,,,,,,352,2023-11-14_10h41.18.936,leap3,2022.2.5,59.9947303133085,
,,,,,,,,,,,,,,,,,,,,15,0,15,0,18,0,18,0,,,,,,dazid,nw,h,lower,,,,,,,3,nw,LoDemNoTar,h,1,0.5343264774419367,,,,,,,,,,,,,,,,,,,,352,2023-11-14_10h41.18.936,leap3,2022.2.5,59.9947303133085,
,,,,,,,,,,,,,,,,,,,,15,0,15,0,19,0,19,0,,,,,,moozy,nw,h,lower,,,,,,,3,nw,LoDemNoTar,h,1,0.42281944397836924,,,,,,,,,,,,,,,,,,,,352,2023-11-14_10h41.18.936,leap3,2022.2.5,59.9947303133085,
,,,,,,,,,,,,,,,,,,,,15,0,15,0,20,0,20,0,,,,,,sefine,nw,h,lower,,,,,,,3,nw,LoDemNoTar,h,1,0.476123474072665,,,,,,,,,,,,,,,,,,,,352,2023-11-14_10h41.18.936,leap3,2022.2.5,59.9947303133085,
,,,,,,,,,,,,,,,,,,,,15,0,15,0,21,0,21,0,,,,,,clume,nw,h,lower,,,,,,,3,nw,LoDemNoTar,h,1,0.43144713062793016,,,,,,,,,,,,,,,,,,,,352,2023-11-14_10h41.18.936,leap3,2022.2.5,59.9947303133085,
,,,,,,,,,,,,,,,,,,,,15,0,15,0,22,0,22,0,,,,,,vivid,w,g,lower,,,,,,,3,w,LoDemNoTar,g,1,0.7168749636039138,,,,,,,,,,,,,,,,,,,,352,2023-11-14_10h41.18.936,leap3,2022.2.5,59.9947303133085,
,,,,,,,,,,,,,,,,,,,,15,0,15,0,23,0,23,0,,,,,,confined,w,g,lower,,,,,,,3,w,LoDemNoTar,h,0,0.6547905127517879,,,,,,,,,,,,,,,,,,,,352,2023-11-14_10h41.18.936,leap3,2022.2.5,59.9947303133085,
,,,,,,,,,,,,,,,,,,,,15,0,15,0,24,0,24,0,,,,,,nameplate,w,g,lower,,,,,,,3,w,LoDemNoTar,g,1,0.674828611779958,,,,,,,,,,,,,,,,,,,,352,2023-11-14_10h41.18.936,leap3,2022.2.5,59.9947303133085,
,,,,,,,,,,,,,,,,,,,,15,0,15,0,25,0,25,0,,,,,,quittint,nw,h,lower,,,,,,,3,nw,LoDemNoTar,h,1,0.5581883718259633,,,,,,,,,,,,,,,,,,,,352,2023-11-14_10h41.18.936,leap3,2022.2.5,59.9947303133085,
,,,,,,,,,,,,,,,,,,,,15,0,15,0,26,0,26,0,,,,,,portify,nw,h,lower,,,,,,,3,nw,LoDemNoTar,h,1,0.5581950121559203,,,,,,,,,,,,,,,,,,,,352,2023-11-14_10h41.18.936,leap3,2022.2.5,59.9947303133085,
,,,,,,,,,,,,,,,,,,,,15,0,15,0,27,0,27,0,,,,,,arrival,w,g,lower,,,,,,,3,w,LoDemNoTar,g,1,0.47014871845021844,,,,,,,,,,,,,,,,,,,,352,2023-11-14_10h41.18.936,leap3,2022.2.5,59.9947303133085,
,,,,,,,,,,,,,,,,,,,,15,0,15,0,28,0,28,0,,,,,,except,w,g,lower,,,,,,,3,w,LoDemNoTar,g,1,0.5053757485002279,,,,,,,,,,,,,,,,,,,,352,2023-11-14_10h41.18.936,leap3,2022.2.5,59.9947303133085,
,,,,,,,,,,,,,,,,,,,,15,0,15,0,29,0,29,0,,,,,,retain,w,g,lower,,,,,,,3,w,LoDemNoTar,g,1,0.5801619123667479,,,,,,,,,,,,,,,,,,,,352,2023-11-14_10h41.18.936,leap3,2022.2.5,59.9947303133085,
,,,,,,,,,,,,,,,,,,,,15,0,15,0,,,,,,,,,,,,,,,,,,,,,,,,,,,NA,,,,,,,,,,,,,,,,,,352,2023-11-14_10h41.18.936,leap3,2022.2.5,59.9947303133085,
,,,,,,,,,,,,,,,,,,,,16,0,16,0,0,0,0,0,,,,,,condensed,w,g,lower,,,,,,,3,w,LoDemNoTar,g,1,0.6899028401821852,,,,,,,,,,,,,,,,,,,,352,2023-11-14_10h41.18.936,leap3,2022.2.5,59.9947303133085,
,,,,,,,,,,,,,,,,,,,,16,0,16,0,1,0,1,0,,,,,,crudios,nw,h,lower,,,,,,,3,nw,LoDemNoTar,h,1,0.5888463463634253,,,,,,,,,,,,,,,,,,,,352,2023-11-14_10h41.18.936,leap3,2022.2.5,59.9947303133085,
,,,,,,,,,,,,,,,,,,,,16,0,16,0,2,0,2,0,,,,,,profats,nw,h,lower,,,,,,,3,nw,LoDemNoTar,h,1,0.5794118228368461,,,,,,,,,,,,,,,,,,,,352,2023-11-14_10h41.18.936,leap3,2022.2.5,59.9947303133085,
,,,,,,,,,,,,,,,,,,,,16,0,16,0,3,0,3,0,,,,,,explosion,w,g,lower,,,,,,,3,w,LoDemNoTar,h,0,0.5070322835817933,,,,,,,,,,,,,,,,,,,,352,2023-11-14_10h41.18.936,leap3,2022.2.5,59.9947303133085,
,,,,,,,,,,,,,,,,,,,,16,0,16,0,4,0,4,0,,,,,,houted,nw,h,lower,,,,,,,3,nw,LoDemNoTar,h,1,0.7167889373376966,,,,,,,,,,,,,,,,,,,,352,2023-11-14_10h41.18.936,leap3,2022.2.5,59.9947303133085,
,,,,,,,,,,,,,,,,,,,,16,0,16,0,5,0,5,0,,,,,,crundle,nw,h,lower,,,,,,,3,nw,LoDemNoTar,h,1,0.5428433865308762,,,,,,,,,,,,,,,,,,,,352,2023-11-14_10h41.18.936,leap3,2022.2.5,59.9947303133085,
,,,,,,,,,,,,,,,,,,,,16,0,16,0,6,0,6,0,,,,,,tipoff,w,g,lower,,,,,,,3,w,LoDemNoTar,g,1,1.2394722709432244,,,,,,,,,,,,,,,,,,,,352,2023-11-14_10h41.18.936,leap3,2022.2.5,59.9947303133085,
,,,,,,,,,,,,,,,,,,,,16,0,16,0,7,0,7,0,,,,,,harfing,nw,h,lower,,,,,,,3,nw,LoDemNoTar,h,1,0.8921628277748823,,,,,,,,,,,,,,,,,,,,352,2023-11-14_10h41.18.936,leap3,2022.2.5,59.9947303133085,
