demoRace_loop.thisRepN,demoRace_loop.thisTrialN,demoRace_loop.thisN,demoRace_loop.thisIndex,LDTunderstand.thisRepN,LDTunderstand.thisTrialN,LDTunderstand.thisN,LDTunderstand.thisIndex,pracBlocks.thisRepN,pracBlocks.thisTrialN,pracBlocks.thisN,pracBlocks.thisIndex,pracTrial.thisRepN,pracTrial.thisTrialN,pracTrial.thisN,pracTrial.thisIndex,PMunderstand.thisRepN,PMunderstand.thisTrialN,PMunderstand.thisN,PMunderstand.thisIndex,LDT_block.thisRepN,LDT_block.thisTrialN,LDT_block.thisN,LDT_block.thisIndex,LDT_trial.thisRepN,LDT_trial.thisTrialN,LDT_trial.thisN,LDT_trial.thisIndex,ageTextbox.text,genderTextbox.text,race,raceResp,LDTunderstand,stim,word_type,corr_key,stim_location,LDTpracKey.keys,LDTpracKey.corr,LDTpracKey.rt,PMunderstand,cueTextbox.text,intentionTextbox.text,block_type,role,block_desc,LDTResp.keys,LDTResp.corr,LDTResp.rt,PM_accuracy,pressedQ,pressedQ_blank,postQ1,Q2Textbox.text,Q3Textbox.text,Q4,Q5,Q6Key.keys,Q6Key.rt,postQ7_correct,postQ7,Q8Textbox.text,education,medTextbox.text,health,healthLimit,psych,participant,date,expName,psychopyVersion,frameRate,
0,0,0,0,,,,,,,,,,,,,,,,,,,,,,,,,"
18"," cisgender female
",American Indian or Alaska Native,n,,,,,,,,,,,,,,,,,,,,,,,,,,,,,,,,,,,,353,2023-11-21_09h02.42.370,leap3,2022.2.5,59.99253916206938,
1,0,1,0,,,,,,,,,,,,,,,,,,,,,,,,,,,Asian,n,,,,,,,,,,,,,,,,,,,,,,,,,,,,,,,,,,,,353,2023-11-21_09h02.42.370,leap3,2022.2.5,59.99253916206938,
2,0,2,0,,,,,,,,,,,,,,,,,,,,,,,,,,,Black or African American,n,,,,,,,,,,,,,,,,,,,,,,,,,,,,,,,,,,,,353,2023-11-21_09h02.42.370,leap3,2022.2.5,59.99253916206938,
3,0,3,0,,,,,,,,,,,,,,,,,,,,,,,,,,,Native Hawaiian or other Pacific Islander,n,,,,,,,,,,,,,,,,,,,,,,,,,,,,,,,,,,,,353,2023-11-21_09h02.42.370,leap3,2022.2.5,59.99253916206938,
4,0,4,0,,,,,,,,,,,,,,,,,,,,,,,,,,,White,n,,,,,,,,,,,,,,,,,,,,,,,,,,,,,,,,,,,,353,2023-11-21_09h02.42.370,leap3,2022.2.5,59.99253916206938,
,,,,0,0,0,0,,,,,,,,,,,,,,,,,,,,,,,,,y,,,,,,,,,,,,,,,,,,,,,,,,,,,,,,,,,,,353,2023-11-21_09h02.42.370,leap3,2022.2.5,59.99253916206938,
,,,,,,,,0,0,0,0,0,0,0,0,,,,,,,,,,,,,,,,,,lumbigo,nw,h,lower,h,1,1.394449105602689,,,,,,,,,,,,,,,,,,,,,,,,,,,,353,2023-11-21_09h02.42.370,leap3,2022.2.5,59.99253916206938,
,,,,,,,,0,0,0,0,1,0,1,0,,,,,,,,,,,,,,,,,,latador,nw,h,lower,h,1,0.6639606195967644,,,,,,,,,,,,,,,,,,,,,,,,,,,,353,2023-11-21_09h02.42.370,leap3,2022.2.5,59.99253916206938,
,,,,,,,,0,0,0,0,2,0,2,0,,,,,,,,,,,,,,,,,,turative,nw,h,lower,g,0,0.3800489896675572,,,,,,,,,,,,,,,,,,,,,,,,,,,,353,2023-11-21_09h02.42.370,leap3,2022.2.5,59.99253916206938,
,,,,,,,,0,0,0,0,3,0,3,0,,,,,,,,,,,,,,,,,,summary,w,g,lower,g,1,0.4761294509517029,,,,,,,,,,,,,,,,,,,,,,,,,,,,353,2023-11-21_09h02.42.370,leap3,2022.2.5,59.99253916206938,
,,,,,,,,0,0,0,0,4,0,4,0,,,,,,,,,,,,,,,,,,busted,w,g,lower,g,1,0.6160030962200835,,,,,,,,,,,,,,,,,,,,,,,,,,,,353,2023-11-21_09h02.42.370,leap3,2022.2.5,59.99253916206938,
,,,,,,,,0,0,0,0,5,0,5,0,,,,,,,,,,,,,,,,,,alolition,nw,h,lower,h,1,0.5012624920345843,,,,,,,,,,,,,,,,,,,,,,,,,,,,353,2023-11-21_09h02.42.370,leap3,2022.2.5,59.99253916206938,
,,,,,,,,0,0,0,0,6,0,6,0,,,,,,,,,,,,,,,,,,umpire,w,g,lower,g,1,0.40730645961593837,,,,,,,,,,,,,,,,,,,,,,,,,,,,353,2023-11-21_09h02.42.370,leap3,2022.2.5,59.99253916206938,
,,,,,,,,0,0,0,0,7,0,7,0,,,,,,,,,,,,,,,,,,trotch,nw,h,lower,g,0,0.5807082327082753,,,,,,,,,,,,,,,,,,,,,,,,,,,,353,2023-11-21_09h02.42.370,leap3,2022.2.5,59.99253916206938,
,,,,,,,,0,0,0,0,8,0,8,0,,,,,,,,,,,,,,,,,,overshoot,w,g,lower,g,1,0.4846380341332406,,,,,,,,,,,,,,,,,,,,,,,,,,,,353,2023-11-21_09h02.42.370,leap3,2022.2.5,59.99253916206938,
,,,,,,,,0,0,0,0,9,0,9,0,,,,,,,,,,,,,,,,,,curlecs,nw,h,lower,h,1,0.6393440461251885,,,,,,,,,,,,,,,,,,,,,,,,,,,,353,2023-11-21_09h02.42.370,leap3,2022.2.5,59.99253916206938,
,,,,,,,,0,0,0,0,10,0,10,0,,,,,,,,,,,,,,,,,,grimace,w,g,lower,g,1,0.6189458440057933,,,,,,,,,,,,,,,,,,,,,,,,,,,,353,2023-11-21_09h02.42.370,leap3,2022.2.5,59.99253916206938,
,,,,,,,,0,0,0,0,11,0,11,0,,,,,,,,,,,,,,,,,,lurshing,nw,h,lower,h,1,0.76808239845559,,,,,,,,,,,,,,,,,,,,,,,,,,,,353,2023-11-21_09h02.42.370,leap3,2022.2.5,59.99253916206938,
,,,,,,,,0,0,0,0,12,0,12,0,,,,,,,,,,,,,,,,,,hiring,w,g,lower,g,1,0.4558184838388115,,,,,,,,,,,,,,,,,,,,,,,,,,,,353,2023-11-21_09h02.42.370,leap3,2022.2.5,59.99253916206938,
,,,,,,,,0,0,0,0,13,0,13,0,,,,,,,,,,,,,,,,,,slumber,w,g,lower,g,1,0.39589135081041604,,,,,,,,,,,,,,,,,,,,,,,,,,,,353,2023-11-21_09h02.42.370,leap3,2022.2.5,59.99253916206938,
,,,,,,,,0,0,0,0,,,,,,,,,,,,,,,,,,,,,,,,,,,,,,,,,,,,,,,,,,,,,,,,,,,,,,,,353,2023-11-21_09h02.42.370,leap3,2022.2.5,59.99253916206938,
,,,,,,,,1,0,1,0,0,0,0,0,,,,,,,,,,,,,,,,,,julled,nw,h,upper,h,1,0.5937626957893372,,,,,,,,,,,,,,,,,,,,,,,,,,,,353,2023-11-21_09h02.42.370,leap3,2022.2.5,59.99253916206938,
,,,,,,,,1,0,1,0,1,0,1,0,,,,,,,,,,,,,,,,,,treeps,nw,h,upper,g,0,0.45675301540177315,,,,,,,,,,,,,,,,,,,,,,,,,,,,353,2023-11-21_09h02.42.370,leap3,2022.2.5,59.99253916206938,
,,,,,,,,1,0,1,0,2,0,2,0,,,,,,,,,,,,,,,,,,crinklo,nw,h,upper,h,1,0.6288773539708927,,,,,,,,,,,,,,,,,,,,,,,,,,,,353,2023-11-21_09h02.42.370,leap3,2022.2.5,59.99253916206938,
,,,,,,,,1,0,1,0,3,0,3,0,,,,,,,,,,,,,,,,,,infinity,w,g,upper,g,1,0.4180680605350062,,,,,,,,,,,,,,,,,,,,,,,,,,,,353,2023-11-21_09h02.42.370,leap3,2022.2.5,59.99253916206938,
,,,,,,,,1,0,1,0,4,0,4,0,,,,,,,,,,,,,,,,,,tricycle,w,g,upper,g,1,0.4395659067668021,,,,,,,,,,,,,,,,,,,,,,,,,,,,353,2023-11-21_09h02.42.370,leap3,2022.2.5,59.99253916206938,
,,,,,,,,1,0,1,0,5,0,5,0,,,,,,,,,,,,,,,,,,hasking,nw,h,upper,h,1,0.5163245677249506,,,,,,,,,,,,,,,,,,,,,,,,,,,,353,2023-11-21_09h02.42.370,leap3,2022.2.5,59.99253916206938,
,,,,,,,,1,0,1,0,6,0,6,0,,,,,,,,,,,,,,,,,,sponsor,w,g,upper,g,1,0.42943879729136825,,,,,,,,,,,,,,,,,,,,,,,,,,,,353,2023-11-21_09h02.42.370,leap3,2022.2.5,59.99253916206938,
,,,,,,,,1,0,1,0,7,0,7,0,,,,,,,,,,,,,,,,,,grocus,nw,h,upper,h,1,0.48271192132961005,,,,,,,,,,,,,,,,,,,,,,,,,,,,353,2023-11-21_09h02.42.370,leap3,2022.2.5,59.99253916206938,
,,,,,,,,1,0,1,0,8,0,8,0,,,,,,,,,,,,,,,,,,unscrew,w,g,upper,h,0,0.469806271023117,,,,,,,,,,,,,,,,,,,,,,,,,,,,353,2023-11-21_09h02.42.370,leap3,2022.2.5,59.99253916206938,
,,,,,,,,1,0,1,0,9,0,9,0,,,,,,,,,,,,,,,,,,raestro,nw,h,upper,h,1,0.5854334123432636,,,,,,,,,,,,,,,,,,,,,,,,,,,,353,2023-11-21_09h02.42.370,leap3,2022.2.5,59.99253916206938,
,,,,,,,,1,0,1,0,10,0,10,0,,,,,,,,,,,,,,,,,,picture,w,g,upper,g,1,0.39900856860913336,,,,,,,,,,,,,,,,,,,,,,,,,,,,353,2023-11-21_09h02.42.370,leap3,2022.2.5,59.99253916206938,
,,,,,,,,1,0,1,0,11,0,11,0,,,,,,,,,,,,,,,,,,grutch,nw,h,upper,h,1,0.38997687736991793,,,,,,,,,,,,,,,,,,,,,,,,,,,,353,2023-11-21_09h02.42.370,leap3,2022.2.5,59.99253916206938,
,,,,,,,,1,0,1,0,12,0,12,0,,,,,,,,,,,,,,,,,,revival,w,g,upper,g,1,0.38967472419608384,,,,,,,,,,,,,,,,,,,,,,,,,,,,353,2023-11-21_09h02.42.370,leap3,2022.2.5,59.99253916206938,
,,,,,,,,1,0,1,0,13,0,13,0,,,,,,,,,,,,,,,,,,reputable,w,g,upper,g,1,0.3394101515877992,,,,,,,,,,,,,,,,,,,,,,,,,,,,353,2023-11-21_09h02.42.370,leap3,2022.2.5,59.99253916206938,
,,,,,,,,1,0,1,0,,,,,,,,,,,,,,,,,,,,,,,,,,,,,,,,,,,,,,,,,,,,,,,,,,,,,,,,353,2023-11-21_09h02.42.370,leap3,2022.2.5,59.99253916206938,
,,,,,,,,,,,,,,,,0,0,0,0,,,,,,,,,,,,,,,,,,,,,y,,,,,,,,,,,,,,,,,,,,,,,,,,,353,2023-11-21_09h02.42.370,leap3,2022.2.5,59.99253916206938,
,,,,,,,,,,,,,,,,,,,,0,0,0,0,0,0,0,0,,,,,,located,w,g,upper,,,,,animal,"
q ",3,w,LoDemNoTar,g,1,0.7881316606653854,,,,,,,,,,,,,,,,,,,353,2023-11-21_09h02.42.370,leap3,2022.2.5,59.99253916206938,
,,,,,,,,,,,,,,,,,,,,0,0,0,0,1,0,1,0,,,,,,encrusted,w,g,upper,,,,,,,3,w,LoDemNoTar,g,1,0.6914293855661526,,,,,,,,,,,,,,,,,,,353,2023-11-21_09h02.42.370,leap3,2022.2.5,59.99253916206938,
,,,,,,,,,,,,,,,,,,,,0,0,0,0,2,0,2,0,,,,,,trooper,w,g,upper,,,,,,,3,w,LoDemNoTar,g,1,0.5510365562513471,,,,,,,,,,,,,,,,,,,353,2023-11-21_09h02.42.370,leap3,2022.2.5,59.99253916206938,
,,,,,,,,,,,,,,,,,,,,0,0,0,0,3,0,3,0,,,,,,doxing,nw,h,upper,,,,,,,3,nw,LoDemNoTar,h,1,0.5756670150440186,,,,,,,,,,,,,,,,,,,353,2023-11-21_09h02.42.370,leap3,2022.2.5,59.99253916206938,
,,,,,,,,,,,,,,,,,,,,0,0,0,0,4,0,4,0,,,,,,unbridled,w,g,upper,,,,,,,3,w,LoDemNoTar,g,1,0.4875418433221057,,,,,,,,,,,,,,,,,,,353,2023-11-21_09h02.42.370,leap3,2022.2.5,59.99253916206938,
,,,,,,,,,,,,,,,,,,,,0,0,0,0,5,0,5,0,,,,,,amaze,w,g,upper,,,,,,,3,w,LoDemNoTar,g,1,1.0876426616450772,,,,,,,,,,,,,,,,,,,353,2023-11-21_09h02.42.370,leap3,2022.2.5,59.99253916206938,
,,,,,,,,,,,,,,,,,,,,0,0,0,0,6,0,6,0,,,,,,ausht,nw,h,upper,,,,,,,3,nw,LoDemNoTar,h,1,0.5982596756657586,,,,,,,,,,,,,,,,,,,353,2023-11-21_09h02.42.370,leap3,2022.2.5,59.99253916206938,
,,,,,,,,,,,,,,,,,,,,0,0,0,0,7,0,7,0,,,,,,fivalve,nw,h,upper,,,,,,,3,nw,LoDemNoTar,h,1,0.9405333400936797,,,,,,,,,,,,,,,,,,,353,2023-11-21_09h02.42.370,leap3,2022.2.5,59.99253916206938,
,,,,,,,,,,,,,,,,,,,,0,0,0,0,8,0,8,0,,,,,,brimitive,nw,h,upper,,,,,,,3,nw,LoDemNoTar,h,1,0.8299480202840641,,,,,,,,,,,,,,,,,,,353,2023-11-21_09h02.42.370,leap3,2022.2.5,59.99253916206938,
,,,,,,,,,,,,,,,,,,,,0,0,0,0,9,0,9,0,,,,,,surround,w,g,upper,,,,,,,3,w,LoDemNoTar,g,1,0.5400035912171006,,,,,,,,,,,,,,,,,,,353,2023-11-21_09h02.42.370,leap3,2022.2.5,59.99253916206938,
,,,,,,,,,,,,,,,,,,,,0,0,0,0,10,0,10,0,,,,,,frigs,nw,h,upper,,,,,,,3,nw,LoDemNoTar,g,0,0.6133305050898343,,,,,,,,,,,,,,,,,,,353,2023-11-21_09h02.42.370,leap3,2022.2.5,59.99253916206938,
,,,,,,,,,,,,,,,,,,,,0,0,0,0,11,0,11,0,,,,,,ilcurring,nw,h,upper,,,,,,,3,nw,LoDemNoTar,h,1,0.6840578760020435,,,,,,,,,,,,,,,,,,,353,2023-11-21_09h02.42.370,leap3,2022.2.5,59.99253916206938,
,,,,,,,,,,,,,,,,,,,,0,0,0,0,12,0,12,0,,,,,,relaying,w,g,upper,,,,,,,3,w,LoDemNoTar,g,1,0.5434640139574185,,,,,,,,,,,,,,,,,,,353,2023-11-21_09h02.42.370,leap3,2022.2.5,59.99253916206938,
,,,,,,,,,,,,,,,,,,,,0,0,0,0,13,0,13,0,,,,,,gelented,nw,h,upper,,,,,,,3,nw,LoDemNoTar,h,1,0.6648136512376368,,,,,,,,,,,,,,,,,,,353,2023-11-21_09h02.42.370,leap3,2022.2.5,59.99253916206938,
,,,,,,,,,,,,,,,,,,,,0,0,0,0,14,0,14,0,,,,,,emergence,w,g,upper,,,,,,,3,w,LoDemNoTar,g,1,0.5815630754223093,,,,,,,,,,,,,,,,,,,353,2023-11-21_09h02.42.370,leap3,2022.2.5,59.99253916206938,
,,,,,,,,,,,,,,,,,,,,0,0,0,0,15,0,15,0,,,,,,gonesty,nw,h,upper,,,,,,,3,nw,LoDemNoTar,h,1,0.66159259644337,,,,,,,,,,,,,,,,,,,353,2023-11-21_09h02.42.370,leap3,2022.2.5,59.99253916206938,
,,,,,,,,,,,,,,,,,,,,0,0,0,0,16,0,16,0,,,,,,hivinity,nw,h,upper,,,,,,,3,nw,LoDemNoTar,h,1,0.6640635508811101,,,,,,,,,,,,,,,,,,,353,2023-11-21_09h02.42.370,leap3,2022.2.5,59.99253916206938,
,,,,,,,,,,,,,,,,,,,,0,0,0,0,17,0,17,0,,,,,,inducing,w,g,upper,,,,,,,3,w,LoDemNoTar,g,1,0.668669800972566,,,,,,,,,,,,,,,,,,,353,2023-11-21_09h02.42.370,leap3,2022.2.5,59.99253916206938,
,,,,,,,,,,,,,,,,,,,,0,0,0,0,18,0,18,0,,,,,,shockwave,w,g,upper,,,,,,,3,w,LoDemNoTar,g,1,0.7855100823799148,,,,,,,,,,,,,,,,,,,353,2023-11-21_09h02.42.370,leap3,2022.2.5,59.99253916206938,
,,,,,,,,,,,,,,,,,,,,0,0,0,0,19,0,19,0,,,,,,fonducts,nw,h,upper,,,,,,,3,nw,LoDemNoTar,h,1,0.529378728941083,,,,,,,,,,,,,,,,,,,353,2023-11-21_09h02.42.370,leap3,2022.2.5,59.99253916206938,
,,,,,,,,,,,,,,,,,,,,0,0,0,0,20,0,20,0,,,,,,asclibed,nw,h,upper,,,,,,,3,nw,LoDemNoTar,h,1,0.6111810223665088,,,,,,,,,,,,,,,,,,,353,2023-11-21_09h02.42.370,leap3,2022.2.5,59.99253916206938,
,,,,,,,,,,,,,,,,,,,,0,0,0,0,21,0,21,0,,,,,,telecast,w,g,upper,,,,,,,3,w,LoDemNoTar,g,1,0.7060899990610778,,,,,,,,,,,,,,,,,,,353,2023-11-21_09h02.42.370,leap3,2022.2.5,59.99253916206938,
,,,,,,,,,,,,,,,,,,,,0,0,0,0,22,0,22,0,,,,,,surfaced,w,g,upper,,,,,,,3,w,LoDemNoTar,h,0,0.6287385023897514,,,,,,,,,,,,,,,,,,,353,2023-11-21_09h02.42.370,leap3,2022.2.5,59.99253916206938,
,,,,,,,,,,,,,,,,,,,,0,0,0,0,23,0,23,0,,,,,,lifetime,w,g,upper,,,,,,,3,w,LoDemNoTar,g,1,0.4748022111598402,,,,,,,,,,,,,,,,,,,353,2023-11-21_09h02.42.370,leap3,2022.2.5,59.99253916206938,
,,,,,,,,,,,,,,,,,,,,0,0,0,0,24,0,24,0,,,,,,gettle,nw,h,upper,,,,,,,3,nw,LoDemNoTar,h,1,0.6298293927684426,,,,,,,,,,,,,,,,,,,353,2023-11-21_09h02.42.370,leap3,2022.2.5,59.99253916206938,
,,,,,,,,,,,,,,,,,,,,0,0,0,0,25,0,25,0,,,,,,ludictous,nw,h,upper,,,,,,,3,nw,LoDemNoTar,h,1,0.6279515761416405,,,,,,,,,,,,,,,,,,,353,2023-11-21_09h02.42.370,leap3,2022.2.5,59.99253916206938,
,,,,,,,,,,,,,,,,,,,,0,0,0,0,26,0,26,0,,,,,,elvisages,nw,h,upper,,,,,,,3,nw,LoDemNoTar,h,1,0.6258374099852517,,,,,,,,,,,,,,,,,,,353,2023-11-21_09h02.42.370,leap3,2022.2.5,59.99253916206938,
,,,,,,,,,,,,,,,,,,,,0,0,0,0,27,0,27,0,,,,,,deakers,nw,h,upper,,,,,,,3,nw,LoDemNoTar,g,0,0.5999618149362504,,,,,,,,,,,,,,,,,,,353,2023-11-21_09h02.42.370,leap3,2022.2.5,59.99253916206938,
,,,,,,,,,,,,,,,,,,,,0,0,0,0,28,0,28,0,,,,,,rationale,w,g,upper,,,,,,,3,w,LoDemNoTar,g,1,0.9113364757504314,,,,,,,,,,,,,,,,,,,353,2023-11-21_09h02.42.370,leap3,2022.2.5,59.99253916206938,
,,,,,,,,,,,,,,,,,,,,0,0,0,0,29,0,29,0,,,,,,preclude,w,g,upper,,,,,,,3,w,LoDemNoTar,g,1,0.5699710818007588,,,,,,,,,,,,,,,,,,,353,2023-11-21_09h02.42.370,leap3,2022.2.5,59.99253916206938,
,,,,,,,,,,,,,,,,,,,,0,0,0,0,,,,,,,,,,,,,,,,,,,,,,,,,,NA,,,,,,,,,,,,,,,,,,353,2023-11-21_09h02.42.370,leap3,2022.2.5,59.99253916206938,
,,,,,,,,,,,,,,,,,,,,1,0,1,0,0,0,0,0,,,,,,gymnasium,w,g,upper,,,,,,,3,w,LoDemNoTar,g,1,0.825147679890506,,,,,,,,,,,,,,,,,,,353,2023-11-21_09h02.42.370,leap3,2022.2.5,59.99253916206938,
,,,,,,,,,,,,,,,,,,,,1,0,1,0,1,0,1,0,,,,,,uncorked,w,g,upper,,,,,,,3,w,LoDemNoTar,g,1,0.7351172229973599,,,,,,,,,,,,,,,,,,,353,2023-11-21_09h02.42.370,leap3,2022.2.5,59.99253916206938,
,,,,,,,,,,,,,,,,,,,,1,0,1,0,2,0,2,0,,,,,,graciap,nw,h,upper,,,,,,,3,nw,LoDemNoTar,h,1,0.5684545809635893,,,,,,,,,,,,,,,,,,,353,2023-11-21_09h02.42.370,leap3,2022.2.5,59.99253916206938,
,,,,,,,,,,,,,,,,,,,,1,0,1,0,3,0,3,0,,,,,,fraft,nw,h,upper,,,,,,,3,nw,LoDemNoTar,h,1,0.5524181295186281,,,,,,,,,,,,,,,,,,,353,2023-11-21_09h02.42.370,leap3,2022.2.5,59.99253916206938,
,,,,,,,,,,,,,,,,,,,,1,0,1,0,4,0,4,0,,,,,,inside,w,g,upper,,,,,,,3,w,LoDemNoTar,g,1,0.6091350745409727,,,,,,,,,,,,,,,,,,,353,2023-11-21_09h02.42.370,leap3,2022.2.5,59.99253916206938,
,,,,,,,,,,,,,,,,,,,,1,0,1,0,5,0,5,0,,,,,,poyride,nw,h,upper,,,,,,,3,nw,LoDemNoTar,h,1,0.5439382222248241,,,,,,,,,,,,,,,,,,,353,2023-11-21_09h02.42.370,leap3,2022.2.5,59.99253916206938,
,,,,,,,,,,,,,,,,,,,,1,0,1,0,6,0,6,0,,,,,,nostril,w,g,upper,,,,,,,3,w,LoDemNoTar,g,1,0.577272561728023,,,,,,,,,,,,,,,,,,,353,2023-11-21_09h02.42.370,leap3,2022.2.5,59.99253916206938,
,,,,,,,,,,,,,,,,,,,,1,0,1,0,7,0,7,0,,,,,,preight,nw,h,upper,,,,,,,3,nw,LoDemNoTar,h,1,0.5212634579511359,,,,,,,,,,,,,,,,,,,353,2023-11-21_09h02.42.370,leap3,2022.2.5,59.99253916206938,
,,,,,,,,,,,,,,,,,,,,1,0,1,0,8,0,8,0,,,,,,robbery,w,g,upper,,,,,,,3,w,LoDemNoTar,g,1,0.5860860146349296,,,,,,,,,,,,,,,,,,,353,2023-11-21_09h02.42.370,leap3,2022.2.5,59.99253916206938,
,,,,,,,,,,,,,,,,,,,,1,0,1,0,9,0,9,0,,,,,,record,w,g,upper,,,,,,,3,w,LoDemNoTar,g,1,0.48944441170897335,,,,,,,,,,,,,,,,,,,353,2023-11-21_09h02.42.370,leap3,2022.2.5,59.99253916206938,
,,,,,,,,,,,,,,,,,,,,1,0,1,0,10,0,10,0,,,,,,trallion,nw,h,upper,,,,,,,3,nw,LoDemNoTar,h,1,0.6042384435422719,,,,,,,,,,,,,,,,,,,353,2023-11-21_09h02.42.370,leap3,2022.2.5,59.99253916206938,
,,,,,,,,,,,,,,,,,,,,1,0,1,0,11,0,11,0,,,,,,rander,nw,h,upper,,,,,,,3,nw,LoDemNoTar,g,0,0.5394077368546277,,,,,,,,,,,,,,,,,,,353,2023-11-21_09h02.42.370,leap3,2022.2.5,59.99253916206938,
,,,,,,,,,,,,,,,,,,,,1,0,1,0,12,0,12,0,,,,,,hackal,nw,h,upper,,,,,,,3,nw,LoDemNoTar,h,1,0.7411294963676482,,,,,,,,,,,,,,,,,,,353,2023-11-21_09h02.42.370,leap3,2022.2.5,59.99253916206938,
,,,,,,,,,,,,,,,,,,,,1,0,1,0,13,0,13,0,,,,,,alber,nw,h,upper,,,,,,,3,nw,LoDemNoTar,h,1,0.5103950016200542,,,,,,,,,,,,,,,,,,,353,2023-11-21_09h02.42.370,leap3,2022.2.5,59.99253916206938,
,,,,,,,,,,,,,,,,,,,,1,0,1,0,14,0,14,0,,,,,,moisture,w,g,upper,,,,,,,3,w,LoDemNoTar,g,1,0.6091498653404415,,,,,,,,,,,,,,,,,,,353,2023-11-21_09h02.42.370,leap3,2022.2.5,59.99253916206938,
,,,,,,,,,,,,,,,,,,,,1,0,1,0,15,0,15,0,,,,,,micron,w,g,upper,,,,,,,3,w,LoDemNoTar,h,0,0.6797546846792102,,,,,,,,,,,,,,,,,,,353,2023-11-21_09h02.42.370,leap3,2022.2.5,59.99253916206938,
,,,,,,,,,,,,,,,,,,,,1,0,1,0,16,0,16,0,,,,,,drobate,nw,h,upper,,,,,,,3,nw,LoDemNoTar,h,1,0.6518835509195924,,,,,,,,,,,,,,,,,,,353,2023-11-21_09h02.42.370,leap3,2022.2.5,59.99253916206938,
,,,,,,,,,,,,,,,,,,,,1,0,1,0,17,0,17,0,,,,,,prillway,nw,h,upper,,,,,,,3,nw,LoDemNoTar,h,1,0.5855275898938999,,,,,,,,,,,,,,,,,,,353,2023-11-21_09h02.42.370,leap3,2022.2.5,59.99253916206938,
,,,,,,,,,,,,,,,,,,,,1,0,1,0,18,0,18,0,,,,,,party,w,g,upper,,,,,,,3,w,LoDemNoTar,g,1,0.5590325960656628,,,,,,,,,,,,,,,,,,,353,2023-11-21_09h02.42.370,leap3,2022.2.5,59.99253916206938,
,,,,,,,,,,,,,,,,,,,,1,0,1,0,19,0,19,0,,,,,,eaglot,nw,h,upper,,,,,,,3,nw,LoDemNoTar,h,1,0.7356001851148903,,,,,,,,,,,,,,,,,,,353,2023-11-21_09h02.42.370,leap3,2022.2.5,59.99253916206938,
,,,,,,,,,,,,,,,,,,,,1,0,1,0,20,0,20,0,,,,,,airline,w,g,upper,,,,,,,3,w,LoDemNoTar,g,1,0.5370671822456643,,,,,,,,,,,,,,,,,,,353,2023-11-21_09h02.42.370,leap3,2022.2.5,59.99253916206938,
,,,,,,,,,,,,,,,,,,,,1,0,1,0,21,0,21,0,,,,,,pepperoni,w,g,upper,,,,,,,3,w,LoDemNoTar,g,1,0.6023947360226884,,,,,,,,,,,,,,,,,,,353,2023-11-21_09h02.42.370,leap3,2022.2.5,59.99253916206938,
,,,,,,,,,,,,,,,,,,,,1,0,1,0,22,0,22,0,,,,,,prohibit,w,g,upper,,,,,,,3,w,LoDemNoTar,h,0,0.5930014268960804,,,,,,,,,,,,,,,,,,,353,2023-11-21_09h02.42.370,leap3,2022.2.5,59.99253916206938,
,,,,,,,,,,,,,,,,,,,,1,0,1,0,23,0,23,0,,,,,,educate,w,g,upper,,,,,,,3,w,LoDemNoTar,h,0,0.5604974802117795,,,,,,,,,,,,,,,,,,,353,2023-11-21_09h02.42.370,leap3,2022.2.5,59.99253916206938,
,,,,,,,,,,,,,,,,,,,,1,0,1,0,24,0,24,0,,,,,,amms,nw,h,upper,,,,,,,3,nw,LoDemNoTar,h,1,0.6971672760555521,,,,,,,,,,,,,,,,,,,353,2023-11-21_09h02.42.370,leap3,2022.2.5,59.99253916206938,
,,,,,,,,,,,,,,,,,,,,1,0,1,0,25,0,25,0,,,,,,emotion,w,g,upper,,,,,,,3,w,LoDemNoTar,g,1,0.4764889559010044,,,,,,,,,,,,,,,,,,,353,2023-11-21_09h02.42.370,leap3,2022.2.5,59.99253916206938,
,,,,,,,,,,,,,,,,,,,,1,0,1,0,26,0,26,0,,,,,,fallint,nw,h,upper,,,,,,,3,nw,LoDemNoTar,h,1,0.7844898252515122,,,,,,,,,,,,,,,,,,,353,2023-11-21_09h02.42.370,leap3,2022.2.5,59.99253916206938,
,,,,,,,,,,,,,,,,,,,,1,0,1,0,27,0,27,0,,,,,,awful,w,g,upper,,,,,,,3,w,LoDemNoTar,g,1,0.49587625823915005,,,,,,,,,,,,,,,,,,,353,2023-11-21_09h02.42.370,leap3,2022.2.5,59.99253916206938,
,,,,,,,,,,,,,,,,,,,,1,0,1,0,28,0,28,0,,,,,,pived,nw,h,upper,,,,,,,3,nw,LoDemNoTar,h,1,0.6273786624660715,,,,,,,,,,,,,,,,,,,353,2023-11-21_09h02.42.370,leap3,2022.2.5,59.99253916206938,
,,,,,,,,,,,,,,,,,,,,1,0,1,0,29,0,29,0,,,,,,hemoter,nw,h,upper,,,,,,,3,nw,LoDemNoTar,h,1,0.7763866282766685,,,,,,,,,,,,,,,,,,,353,2023-11-21_09h02.42.370,leap3,2022.2.5,59.99253916206938,
,,,,,,,,,,,,,,,,,,,,1,0,1,0,,,,,,,,,,,,,,,,,,,,,,,,,,NA,,,,,,,,,,,,,,,,,,353,2023-11-21_09h02.42.370,leap3,2022.2.5,59.99253916206938,
,,,,,,,,,,,,,,,,,,,,2,0,2,0,0,0,0,0,,,,,,pretzel,w,g,lower,,,,,,,1,w,HiDemTar,g,1,0.6887012539664283,,,,,,,,,,,,,,,,,,,353,2023-11-21_09h02.42.370,leap3,2022.2.5,59.99253916206938,
,,,,,,,,,,,,,,,,,,,,2,0,2,0,1,0,1,0,,,,,,arrow,w,g,lower,,,,,,,1,w,HiDemTar,g,1,0.46660906251054257,,,,,,,,,,,,,,,,,,,353,2023-11-21_09h02.42.370,leap3,2022.2.5,59.99253916206938,
,,,,,,,,,,,,,,,,,,,,2,0,2,0,2,0,2,0,,,,,,seasoning,w,g,lower,,,,,,,1,w,HiDemTar,g,1,0.4953350388677791,,,,,,,,,,,,,,,,,,,353,2023-11-21_09h02.42.370,leap3,2022.2.5,59.99253916206938,
,,,,,,,,,,,,,,,,,,,,2,0,2,0,3,0,3,0,,,,,,harmful,w,g,lower,,,,,,,1,w,HiDemTar,g,1,0.6190240235300735,,,,,,,,,,,,,,,,,,,353,2023-11-21_09h02.42.370,leap3,2022.2.5,59.99253916206938,
,,,,,,,,,,,,,,,,,,,,2,0,2,0,4,0,4,0,,,,,,gigglod,nw,h,lower,,,,,,,1,nw,HiDemTar,h,1,0.5615775039186701,,,,,,,,,,,,,,,,,,,353,2023-11-21_09h02.42.370,leap3,2022.2.5,59.99253916206938,
,,,,,,,,,,,,,,,,,,,,2,0,2,0,5,0,5,0,,,,,,turntable,w,g,lower,,,,,,,1,w,HiDemTar,g,1,0.5775792426429689,,,,,,,,,,,,,,,,,,,353,2023-11-21_09h02.42.370,leap3,2022.2.5,59.99253916206938,
,,,,,,,,,,,,,,,,,,,,2,0,2,0,6,0,6,0,,,,,,scabry,nw,h,lower,,,,,,,1,nw,HiDemTar,h,1,0.6015299322316423,,,,,,,,,,,,,,,,,,,353,2023-11-21_09h02.42.370,leap3,2022.2.5,59.99253916206938,
,,,,,,,,,,,,,,,,,,,,2,0,2,0,7,0,7,0,,,,,,abstain,w,g,lower,,,,,,,1,w,HiDemTar,g,1,0.6563117088517174,,,,,,,,,,,,,,,,,,,353,2023-11-21_09h02.42.370,leap3,2022.2.5,59.99253916206938,
,,,,,,,,,,,,,,,,,,,,2,0,2,0,8,0,8,0,,,,,,tenpince,nw,h,lower,,,,,,,1,nw,HiDemTar,h,1,0.5889865033095703,,,,,,,,,,,,,,,,,,,353,2023-11-21_09h02.42.370,leap3,2022.2.5,59.99253916206938,
,,,,,,,,,,,,,,,,,,,,2,0,2,0,9,0,9,0,,,,,,sampling,w,g,lower,,,,,,,1,w,HiDemTar,g,1,0.580229798448272,,,,,,,,,,,,,,,,,,,353,2023-11-21_09h02.42.370,leap3,2022.2.5,59.99253916206938,
,,,,,,,,,,,,,,,,,,,,2,0,2,0,10,0,10,0,,,,,,tasher,nw,h,lower,,,,,,,1,nw,HiDemTar,h,1,0.49237206706311554,,,,,,,,,,,,,,,,,,,353,2023-11-21_09h02.42.370,leap3,2022.2.5,59.99253916206938,
,,,,,,,,,,,,,,,,,,,,2,0,2,0,11,0,11,0,,,,,,glapula,nw,h,lower,,,,,,,1,nw,HiDemTar,h,1,0.55180295673199,,,,,,,,,,,,,,,,,,,353,2023-11-21_09h02.42.370,leap3,2022.2.5,59.99253916206938,
,,,,,,,,,,,,,,,,,,,,2,0,2,0,12,0,12,0,,,,,,giraffe,target,q,lower,,,,,,,1,target,HiDemTar,g,0,0.5203814485576004,,,,,,,,,,,,,,,,,,,353,2023-11-21_09h02.42.370,leap3,2022.2.5,59.99253916206938,
,,,,,,,,,,,,,,,,,,,,2,0,2,0,13,0,13,0,,,,,,prame,nw,h,lower,,,,,,,1,aftertar1,HiDemTar,h,1,1.3375341460341588,,,,,,,,,,,,,,,,,,,353,2023-11-21_09h02.42.370,leap3,2022.2.5,59.99253916206938,
,,,,,,,,,,,,,,,,,,,,2,0,2,0,14,0,14,0,,,,,,suddenly,w,g,lower,,,,,,,1,aftertar2,HiDemTar,g,1,0.7227702994132414,,,,,,,,,,,,,,,,,,,353,2023-11-21_09h02.42.370,leap3,2022.2.5,59.99253916206938,
,,,,,,,,,,,,,,,,,,,,2,0,2,0,15,0,15,0,,,,,,potatoes,w,g,lower,,,,,,,1,aftertar3,HiDemTar,g,1,0.7087927751708776,,,,,,,,,,,,,,,,,,,353,2023-11-21_09h02.42.370,leap3,2022.2.5,59.99253916206938,
,,,,,,,,,,,,,,,,,,,,2,0,2,0,16,0,16,0,,,,,,mining,w,g,lower,,,,,,,1,w,HiDemTar,g,1,0.8475000670878217,,,,,,,,,,,,,,,,,,,353,2023-11-21_09h02.42.370,leap3,2022.2.5,59.99253916206938,
,,,,,,,,,,,,,,,,,,,,2,0,2,0,17,0,17,0,,,,,,cooray,nw,h,lower,,,,,,,1,w,HiDemTar,g,0,0.46087539789732546,,,,,,,,,,,,,,,,,,,353,2023-11-21_09h02.42.370,leap3,2022.2.5,59.99253916206938,
,,,,,,,,,,,,,,,,,,,,2,0,2,0,18,0,18,0,,,,,,metrol,nw,h,lower,,,,,,,1,nw,HiDemTar,h,1,0.6815555291250348,,,,,,,,,,,,,,,,,,,353,2023-11-21_09h02.42.370,leap3,2022.2.5,59.99253916206938,
,,,,,,,,,,,,,,,,,,,,2,0,2,0,19,0,19,0,,,,,,collute,nw,h,lower,,,,,,,1,nw,HiDemTar,h,1,0.5256475455826148,,,,,,,,,,,,,,,,,,,353,2023-11-21_09h02.42.370,leap3,2022.2.5,59.99253916206938,
,,,,,,,,,,,,,,,,,,,,2,0,2,0,20,0,20,0,,,,,,patio,w,g,lower,,,,,,,1,nw,HiDemTar,g,1,0.7996288730064407,,,,,,,,,,,,,,,,,,,353,2023-11-21_09h02.42.370,leap3,2022.2.5,59.99253916206938,
,,,,,,,,,,,,,,,,,,,,2,0,2,0,21,0,21,0,,,,,,oldest,w,g,lower,,,,,,,1,w,HiDemTar,g,1,0.4709804723970592,,,,,,,,,,,,,,,,,,,353,2023-11-21_09h02.42.370,leap3,2022.2.5,59.99253916206938,
,,,,,,,,,,,,,,,,,,,,2,0,2,0,22,0,22,0,,,,,,sodent,nw,h,lower,,,,,,,1,w,HiDemTar,g,0,0.4822048112982884,,,,,,,,,,,,,,,,,,,353,2023-11-21_09h02.42.370,leap3,2022.2.5,59.99253916206938,
,,,,,,,,,,,,,,,,,,,,2,0,2,0,23,0,23,0,,,,,,snife,nw,h,lower,,,,,,,1,nw,HiDemTar,h,1,0.7422113312641159,,,,,,,,,,,,,,,,,,,353,2023-11-21_09h02.42.370,leap3,2022.2.5,59.99253916206938,
,,,,,,,,,,,,,,,,,,,,2,0,2,0,24,0,24,0,,,,,,phambled,nw,h,lower,,,,,,,1,nw,HiDemTar,h,1,0.6714921102393419,,,,,,,,,,,,,,,,,,,353,2023-11-21_09h02.42.370,leap3,2022.2.5,59.99253916206938,
,,,,,,,,,,,,,,,,,,,,2,0,2,0,25,0,25,0,,,,,,hatred,w,g,lower,,,,,,,1,nw,HiDemTar,g,1,0.5955901031848043,,,,,,,,,,,,,,,,,,,353,2023-11-21_09h02.42.370,leap3,2022.2.5,59.99253916206938,
,,,,,,,,,,,,,,,,,,,,2,0,2,0,26,0,26,0,,,,,,glating,nw,h,lower,,,,,,,1,w,HiDemTar,h,1,0.5949015804799274,,,,,,,,,,,,,,,,,,,353,2023-11-21_09h02.42.370,leap3,2022.2.5,59.99253916206938,
,,,,,,,,,,,,,,,,,,,,2,0,2,0,27,0,27,0,,,,,,guitar,w,g,lower,,,,,,,1,nw,HiDemTar,g,1,0.6742972139036283,,,,,,,,,,,,,,,,,,,353,2023-11-21_09h02.42.370,leap3,2022.2.5,59.99253916206938,
,,,,,,,,,,,,,,,,,,,,2,0,2,0,28,0,28,0,,,,,,hegacy,nw,h,lower,,,,,,,1,w,HiDemTar,h,1,0.5650859210873023,,,,,,,,,,,,,,,,,,,353,2023-11-21_09h02.42.370,leap3,2022.2.5,59.99253916206938,
,,,,,,,,,,,,,,,,,,,,2,0,2,0,29,0,29,0,,,,,,achieve,w,g,lower,,,,,,,1,nw,HiDemTar,g,1,0.509842915693298,,,,,,,,,,,,,,,,,,,353,2023-11-21_09h02.42.370,leap3,2022.2.5,59.99253916206938,
,,,,,,,,,,,,,,,,,,,,2,0,2,0,,,,,,,,,,,,,,,,,,,,,,,,,,0,,,,,,,,,,,,,,,,,,353,2023-11-21_09h02.42.370,leap3,2022.2.5,59.99253916206938,
,,,,,,,,,,,,,,,,,,,,3,0,3,0,0,0,0,0,,,,,,rarren,nw,h,upper,,,,,,,3,nw,LoDemNoTar,h,1,0.5607483185594901,,,,,,,,,,,,,,,,,,,353,2023-11-21_09h02.42.370,leap3,2022.2.5,59.99253916206938,
,,,,,,,,,,,,,,,,,,,,3,0,3,0,1,0,1,0,,,,,,regiment,w,g,upper,,,,,,,3,w,LoDemNoTar,h,0,0.7935480794403702,,,,,,,,,,,,,,,,,,,353,2023-11-21_09h02.42.370,leap3,2022.2.5,59.99253916206938,
,,,,,,,,,,,,,,,,,,,,3,0,3,0,2,0,2,0,,,,,,clume,nw,h,upper,,,,,,,3,nw,LoDemNoTar,h,1,0.5528850933769718,,,,,,,,,,,,,,,,,,,353,2023-11-21_09h02.42.370,leap3,2022.2.5,59.99253916206938,
,,,,,,,,,,,,,,,,,,,,3,0,3,0,3,0,3,0,,,,,,poughest,nw,h,upper,,,,,,,3,nw,LoDemNoTar,h,1,0.6015740025322884,,,,,,,,,,,,,,,,,,,353,2023-11-21_09h02.42.370,leap3,2022.2.5,59.99253916206938,
,,,,,,,,,,,,,,,,,,,,3,0,3,0,4,0,4,0,,,,,,etuip,nw,h,upper,,,,,,,3,nw,LoDemNoTar,h,1,0.5283147031441331,,,,,,,,,,,,,,,,,,,353,2023-11-21_09h02.42.370,leap3,2022.2.5,59.99253916206938,
,,,,,,,,,,,,,,,,,,,,3,0,3,0,5,0,5,0,,,,,,pamine,nw,h,upper,,,,,,,3,nw,LoDemNoTar,h,1,0.5943606629734859,,,,,,,,,,,,,,,,,,,353,2023-11-21_09h02.42.370,leap3,2022.2.5,59.99253916206938,
,,,,,,,,,,,,,,,,,,,,3,0,3,0,6,0,6,0,,,,,,ulcer,w,g,upper,,,,,,,3,w,LoDemNoTar,g,1,0.689664461184293,,,,,,,,,,,,,,,,,,,353,2023-11-21_09h02.42.370,leap3,2022.2.5,59.99253916206938,
,,,,,,,,,,,,,,,,,,,,3,0,3,0,7,0,7,0,,,,,,embrace,w,g,upper,,,,,,,3,w,LoDemNoTar,g,1,0.5410884445300326,,,,,,,,,,,,,,,,,,,353,2023-11-21_09h02.42.370,leap3,2022.2.5,59.99253916206938,
,,,,,,,,,,,,,,,,,,,,3,0,3,0,8,0,8,0,,,,,,flieves,nw,h,upper,,,,,,,3,nw,LoDemNoTar,h,1,0.6374146130401641,,,,,,,,,,,,,,,,,,,353,2023-11-21_09h02.42.370,leap3,2022.2.5,59.99253916206938,
,,,,,,,,,,,,,,,,,,,,3,0,3,0,9,0,9,0,,,,,,otoist,nw,h,upper,,,,,,,3,nw,LoDemNoTar,h,1,0.6348102403571829,,,,,,,,,,,,,,,,,,,353,2023-11-21_09h02.42.370,leap3,2022.2.5,59.99253916206938,
,,,,,,,,,,,,,,,,,,,,3,0,3,0,10,0,10,0,,,,,,lofty,w,g,upper,,,,,,,3,w,LoDemNoTar,g,1,0.6321062567876652,,,,,,,,,,,,,,,,,,,353,2023-11-21_09h02.42.370,leap3,2022.2.5,59.99253916206938,
,,,,,,,,,,,,,,,,,,,,3,0,3,0,11,0,11,0,,,,,,antonym,w,g,upper,,,,,,,3,w,LoDemNoTar,g,1,0.6780785046285018,,,,,,,,,,,,,,,,,,,353,2023-11-21_09h02.42.370,leap3,2022.2.5,59.99253916206938,
,,,,,,,,,,,,,,,,,,,,3,0,3,0,12,0,12,0,,,,,,giving,w,g,upper,,,,,,,3,w,LoDemNoTar,g,1,0.5541619241703302,,,,,,,,,,,,,,,,,,,353,2023-11-21_09h02.42.370,leap3,2022.2.5,59.99253916206938,
,,,,,,,,,,,,,,,,,,,,3,0,3,0,13,0,13,0,,,,,,ordinary,w,g,upper,,,,,,,3,w,LoDemNoTar,g,1,0.45879292616155,,,,,,,,,,,,,,,,,,,353,2023-11-21_09h02.42.370,leap3,2022.2.5,59.99253916206938,
,,,,,,,,,,,,,,,,,,,,3,0,3,0,14,0,14,0,,,,,,senalize,nw,h,upper,,,,,,,3,nw,LoDemNoTar,h,1,0.735485783428885,,,,,,,,,,,,,,,,,,,353,2023-11-21_09h02.42.370,leap3,2022.2.5,59.99253916206938,
,,,,,,,,,,,,,,,,,,,,3,0,3,0,15,0,15,0,,,,,,epthuse,nw,h,upper,,,,,,,3,nw,LoDemNoTar,g,0,0.5849290187470615,,,,,,,,,,,,,,,,,,,353,2023-11-21_09h02.42.370,leap3,2022.2.5,59.99253916206938,
,,,,,,,,,,,,,,,,,,,,3,0,3,0,16,0,16,0,,,,,,ronvince,nw,h,upper,,,,,,,3,nw,LoDemNoTar,h,1,0.671527124941349,,,,,,,,,,,,,,,,,,,353,2023-11-21_09h02.42.370,leap3,2022.2.5,59.99253916206938,
,,,,,,,,,,,,,,,,,,,,3,0,3,0,17,0,17,0,,,,,,curtail,w,g,upper,,,,,,,3,w,LoDemNoTar,g,1,0.6754213080275804,,,,,,,,,,,,,,,,,,,353,2023-11-21_09h02.42.370,leap3,2022.2.5,59.99253916206938,
,,,,,,,,,,,,,,,,,,,,3,0,3,0,18,0,18,0,,,,,,regional,w,g,upper,,,,,,,3,w,LoDemNoTar,g,1,0.5513743278570473,,,,,,,,,,,,,,,,,,,353,2023-11-21_09h02.42.370,leap3,2022.2.5,59.99253916206938,
,,,,,,,,,,,,,,,,,,,,3,0,3,0,19,0,19,0,,,,,,arranged,w,g,upper,,,,,,,3,w,LoDemNoTar,g,1,0.7200838231947273,,,,,,,,,,,,,,,,,,,353,2023-11-21_09h02.42.370,leap3,2022.2.5,59.99253916206938,
,,,,,,,,,,,,,,,,,,,,3,0,3,0,20,0,20,0,,,,,,brighten,w,g,upper,,,,,,,3,w,LoDemNoTar,g,1,0.49813923705369234,,,,,,,,,,,,,,,,,,,353,2023-11-21_09h02.42.370,leap3,2022.2.5,59.99253916206938,
,,,,,,,,,,,,,,,,,,,,3,0,3,0,21,0,21,0,,,,,,soluced,nw,h,upper,,,,,,,3,nw,LoDemNoTar,h,1,0.5324072025250643,,,,,,,,,,,,,,,,,,,353,2023-11-21_09h02.42.370,leap3,2022.2.5,59.99253916206938,
,,,,,,,,,,,,,,,,,,,,3,0,3,0,22,0,22,0,,,,,,supplier,w,g,upper,,,,,,,3,w,LoDemNoTar,g,1,0.6543074164073914,,,,,,,,,,,,,,,,,,,353,2023-11-21_09h02.42.370,leap3,2022.2.5,59.99253916206938,
,,,,,,,,,,,,,,,,,,,,3,0,3,0,23,0,23,0,,,,,,standard,w,g,upper,,,,,,,3,w,LoDemNoTar,g,1,0.6194583873730153,,,,,,,,,,,,,,,,,,,353,2023-11-21_09h02.42.370,leap3,2022.2.5,59.99253916206938,
,,,,,,,,,,,,,,,,,,,,3,0,3,0,24,0,24,0,,,,,,cogantly,nw,h,upper,,,,,,,3,nw,LoDemNoTar,h,1,0.6661523615475744,,,,,,,,,,,,,,,,,,,353,2023-11-21_09h02.42.370,leap3,2022.2.5,59.99253916206938,
,,,,,,,,,,,,,,,,,,,,3,0,3,0,25,0,25,0,,,,,,caution,w,g,upper,,,,,,,3,w,LoDemNoTar,g,1,0.5189050940098241,,,,,,,,,,,,,,,,,,,353,2023-11-21_09h02.42.370,leap3,2022.2.5,59.99253916206938,
,,,,,,,,,,,,,,,,,,,,3,0,3,0,26,0,26,0,,,,,,undimmec,nw,h,upper,,,,,,,3,nw,LoDemNoTar,h,1,0.6249557024566457,,,,,,,,,,,,,,,,,,,353,2023-11-21_09h02.42.370,leap3,2022.2.5,59.99253916206938,
,,,,,,,,,,,,,,,,,,,,3,0,3,0,27,0,27,0,,,,,,kilotin,nw,h,upper,,,,,,,3,nw,LoDemNoTar,h,1,0.6541003464953974,,,,,,,,,,,,,,,,,,,353,2023-11-21_09h02.42.370,leap3,2022.2.5,59.99253916206938,
,,,,,,,,,,,,,,,,,,,,3,0,3,0,28,0,28,0,,,,,,terrify,w,g,upper,,,,,,,3,w,LoDemNoTar,g,1,0.46670625859405845,,,,,,,,,,,,,,,,,,,353,2023-11-21_09h02.42.370,leap3,2022.2.5,59.99253916206938,
,,,,,,,,,,,,,,,,,,,,3,0,3,0,29,0,29,0,,,,,,vergas,nw,h,upper,,,,,,,3,nw,LoDemNoTar,h,1,0.679435929749161,,,,,,,,,,,,,,,,,,,353,2023-11-21_09h02.42.370,leap3,2022.2.5,59.99253916206938,
,,,,,,,,,,,,,,,,,,,,3,0,3,0,,,,,,,,,,,,,,,,,,,,,,,,,,NA,,,,,,,,,,,,,,,,,,353,2023-11-21_09h02.42.370,leap3,2022.2.5,59.99253916206938,
,,,,,,,,,,,,,,,,,,,,4,0,4,0,0,0,0,0,,,,,,dusmy,nw,h,upper,,,,,,,4,nw,LoDemTar,h,1,0.53953481616918,,,,,,,,,,,,,,,,,,,353,2023-11-21_09h02.42.370,leap3,2022.2.5,59.99253916206938,
,,,,,,,,,,,,,,,,,,,,4,0,4,0,1,0,1,0,,,,,,offonents,nw,h,upper,,,,,,,4,nw,LoDemTar,g,0,0.4927979791536927,,,,,,,,,,,,,,,,,,,353,2023-11-21_09h02.42.370,leap3,2022.2.5,59.99253916206938,
,,,,,,,,,,,,,,,,,,,,4,0,4,0,2,0,2,0,,,,,,miability,nw,h,upper,,,,,,,4,nw,LoDemTar,h,1,0.6551782573806122,,,,,,,,,,,,,,,,,,,353,2023-11-21_09h02.42.370,leap3,2022.2.5,59.99253916206938,
,,,,,,,,,,,,,,,,,,,,4,0,4,0,3,0,3,0,,,,,,podes,nw,h,upper,,,,,,,4,nw,LoDemTar,h,1,0.5638160329544917,,,,,,,,,,,,,,,,,,,353,2023-11-21_09h02.42.370,leap3,2022.2.5,59.99253916206938,
,,,,,,,,,,,,,,,,,,,,4,0,4,0,4,0,4,0,,,,,,stable,w,g,upper,,,,,,,4,w,LoDemTar,g,1,0.6205679926788434,,,,,,,,,,,,,,,,,,,353,2023-11-21_09h02.42.370,leap3,2022.2.5,59.99253916206938,
,,,,,,,,,,,,,,,,,,,,4,0,4,0,5,0,5,0,,,,,,duries,nw,h,upper,,,,,,,4,nw,LoDemTar,h,1,0.43459260556846857,,,,,,,,,,,,,,,,,,,353,2023-11-21_09h02.42.370,leap3,2022.2.5,59.99253916206938,
,,,,,,,,,,,,,,,,,,,,4,0,4,0,6,0,6,0,,,,,,crazy,w,g,upper,,,,,,,4,w,LoDemTar,g,1,0.5119419894181192,,,,,,,,,,,,,,,,,,,353,2023-11-21_09h02.42.370,leap3,2022.2.5,59.99253916206938,
,,,,,,,,,,,,,,,,,,,,4,0,4,0,7,0,7,0,,,,,,birn,nw,h,upper,,,,,,,4,nw,LoDemTar,h,1,0.47461234661750495,,,,,,,,,,,,,,,,,,,353,2023-11-21_09h02.42.370,leap3,2022.2.5,59.99253916206938,
,,,,,,,,,,,,,,,,,,,,4,0,4,0,8,0,8,0,,,,,,etber,nw,h,upper,,,,,,,4,nw,LoDemTar,h,1,0.5746808669064194,,,,,,,,,,,,,,,,,,,353,2023-11-21_09h02.42.370,leap3,2022.2.5,59.99253916206938,
,,,,,,,,,,,,,,,,,,,,4,0,4,0,9,0,9,0,,,,,,gallon,w,g,upper,,,,,,,4,w,LoDemTar,g,1,0.6147359245223925,,,,,,,,,,,,,,,,,,,353,2023-11-21_09h02.42.370,leap3,2022.2.5,59.99253916206938,
,,,,,,,,,,,,,,,,,,,,4,0,4,0,10,0,10,0,,,,,,rowel,nw,h,upper,,,,,,,4,nw,LoDemTar,h,1,0.5653919982723892,,,,,,,,,,,,,,,,,,,353,2023-11-21_09h02.42.370,leap3,2022.2.5,59.99253916206938,
,,,,,,,,,,,,,,,,,,,,4,0,4,0,11,0,11,0,,,,,,expected,w,g,upper,,,,,,,4,w,LoDemTar,g,1,0.48613642377313226,,,,,,,,,,,,,,,,,,,353,2023-11-21_09h02.42.370,leap3,2022.2.5,59.99253916206938,
,,,,,,,,,,,,,,,,,,,,4,0,4,0,12,0,12,0,,,,,,moral,w,g,upper,,,,,,,4,w,LoDemTar,g,1,0.6085026961518452,,,,,,,,,,,,,,,,,,,353,2023-11-21_09h02.42.370,leap3,2022.2.5,59.99253916206938,
,,,,,,,,,,,,,,,,,,,,4,0,4,0,13,0,13,0,,,,,,cessation,w,g,upper,,,,,,,4,w,LoDemTar,h,0,0.6950956708751619,,,,,,,,,,,,,,,,,,,353,2023-11-21_09h02.42.370,leap3,2022.2.5,59.99253916206938,
,,,,,,,,,,,,,,,,,,,,4,0,4,0,14,0,14,0,,,,,,massacre,w,g,upper,,,,,,,4,w,LoDemTar,g,1,0.5454622692195699,,,,,,,,,,,,,,,,,,,353,2023-11-21_09h02.42.370,leap3,2022.2.5,59.99253916206938,
,,,,,,,,,,,,,,,,,,,,4,0,4,0,15,0,15,0,,,,,,matter,w,g,upper,,,,,,,4,w,LoDemTar,g,1,0.514602204435505,,,,,,,,,,,,,,,,,,,353,2023-11-21_09h02.42.370,leap3,2022.2.5,59.99253916206938,
,,,,,,,,,,,,,,,,,,,,4,0,4,0,16,0,16,0,,,,,,rabbit,target,q,upper,,,,,,,4,target,LoDemTar,g,0,0.47761969070415944,,,,,,,,,,,,,,,,,,,353,2023-11-21_09h02.42.370,leap3,2022.2.5,59.99253916206938,
,,,,,,,,,,,,,,,,,,,,4,0,4,0,17,0,17,0,,,,,,grenavier,nw,h,upper,,,,,,,4,aftertar1,LoDemTar,h,1,0.8583706362405792,,,,,,,,,,,,,,,,,,,353,2023-11-21_09h02.42.370,leap3,2022.2.5,59.99253916206938,
,,,,,,,,,,,,,,,,,,,,4,0,4,0,18,0,18,0,,,,,,contain,w,g,upper,,,,,,,4,aftertar2,LoDemTar,g,1,0.5752887952839956,,,,,,,,,,,,,,,,,,,353,2023-11-21_09h02.42.370,leap3,2022.2.5,59.99253916206938,
,,,,,,,,,,,,,,,,,,,,4,0,4,0,19,0,19,0,,,,,,buzzer,w,g,upper,,,,,,,4,aftertar3,LoDemTar,g,1,0.9912440488114953,,,,,,,,,,,,,,,,,,,353,2023-11-21_09h02.42.370,leap3,2022.2.5,59.99253916206938,
,,,,,,,,,,,,,,,,,,,,4,0,4,0,20,0,20,0,,,,,,gensions,nw,h,upper,,,,,,,4,w,LoDemTar,h,1,0.5496733960462734,,,,,,,,,,,,,,,,,,,353,2023-11-21_09h02.42.370,leap3,2022.2.5,59.99253916206938,
,,,,,,,,,,,,,,,,,,,,4,0,4,0,21,0,21,0,,,,,,mubby,nw,h,upper,,,,,,,4,nw,LoDemTar,h,1,0.6389760895399377,,,,,,,,,,,,,,,,,,,353,2023-11-21_09h02.42.370,leap3,2022.2.5,59.99253916206938,
,,,,,,,,,,,,,,,,,,,,4,0,4,0,22,0,22,0,,,,,,hardest,w,g,upper,,,,,,,4,nw,LoDemTar,g,1,0.6043842376675457,,,,,,,,,,,,,,,,,,,353,2023-11-21_09h02.42.370,leap3,2022.2.5,59.99253916206938,
,,,,,,,,,,,,,,,,,,,,4,0,4,0,23,0,23,0,,,,,,slooping,nw,h,upper,,,,,,,4,w,LoDemTar,h,1,0.6110240597045049,,,,,,,,,,,,,,,,,,,353,2023-11-21_09h02.42.370,leap3,2022.2.5,59.99253916206938,
,,,,,,,,,,,,,,,,,,,,4,0,4,0,24,0,24,0,,,,,,engineer,w,g,upper,,,,,,,4,nw,LoDemTar,h,0,0.45767215243540704,,,,,,,,,,,,,,,,,,,353,2023-11-21_09h02.42.370,leap3,2022.2.5,59.99253916206938,
,,,,,,,,,,,,,,,,,,,,4,0,4,0,25,0,25,0,,,,,,tunneg,nw,h,upper,,,,,,,4,w,LoDemTar,h,1,1.1183880228782073,,,,,,,,,,,,,,,,,,,353,2023-11-21_09h02.42.370,leap3,2022.2.5,59.99253916206938,
,,,,,,,,,,,,,,,,,,,,4,0,4,0,26,0,26,0,,,,,,number,w,g,upper,,,,,,,4,nw,LoDemTar,g,1,0.5924339465564117,,,,,,,,,,,,,,,,,,,353,2023-11-21_09h02.42.370,leap3,2022.2.5,59.99253916206938,
,,,,,,,,,,,,,,,,,,,,4,0,4,0,27,0,27,0,,,,,,senior,w,g,upper,,,,,,,4,w,LoDemTar,g,1,0.5437157577835023,,,,,,,,,,,,,,,,,,,353,2023-11-21_09h02.42.370,leap3,2022.2.5,59.99253916206938,
,,,,,,,,,,,,,,,,,,,,4,0,4,0,28,0,28,0,,,,,,serfume,nw,h,upper,,,,,,,4,w,LoDemTar,g,0,0.4251250409288332,,,,,,,,,,,,,,,,,,,353,2023-11-21_09h02.42.370,leap3,2022.2.5,59.99253916206938,
,,,,,,,,,,,,,,,,,,,,4,0,4,0,29,0,29,0,,,,,,bickering,w,g,upper,,,,,,,4,nw,LoDemTar,g,1,1.110236227978021,,,,,,,,,,,,,,,,,,,353,2023-11-21_09h02.42.370,leap3,2022.2.5,59.99253916206938,
,,,,,,,,,,,,,,,,,,,,4,0,4,0,,,,,,,,,,,,,,,,,,,,,,,,,,0,,,,,,,,,,,,,,,,,,353,2023-11-21_09h02.42.370,leap3,2022.2.5,59.99253916206938,
,,,,,,,,,,,,,,,,,,,,5,0,5,0,0,0,0,0,,,,,,peems,nw,h,lower,,,,,,,1,nw,HiDemTar,h,1,0.6888829683884978,,,,,,,,,,,,,,,,,,,353,2023-11-21_09h02.42.370,leap3,2022.2.5,59.99253916206938,
,,,,,,,,,,,,,,,,,,,,5,0,5,0,1,0,1,0,,,,,,companion,w,g,lower,,,,,,,1,w,HiDemTar,g,1,0.5243873165454715,,,,,,,,,,,,,,,,,,,353,2023-11-21_09h02.42.370,leap3,2022.2.5,59.99253916206938,
,,,,,,,,,,,,,,,,,,,,5,0,5,0,2,0,2,0,,,,,,stifle,w,g,lower,,,,,,,1,w,HiDemTar,h,0,0.4703619792126119,,,,,,,,,,,,,,,,,,,353,2023-11-21_09h02.42.370,leap3,2022.2.5,59.99253916206938,
,,,,,,,,,,,,,,,,,,,,5,0,5,0,3,0,3,0,,,,,,maunches,nw,h,lower,,,,,,,1,nw,HiDemTar,h,1,0.6506027959985659,,,,,,,,,,,,,,,,,,,353,2023-11-21_09h02.42.370,leap3,2022.2.5,59.99253916206938,
,,,,,,,,,,,,,,,,,,,,5,0,5,0,4,0,4,0,,,,,,pranny,nw,h,lower,,,,,,,1,nw,HiDemTar,h,1,0.6230111767072231,,,,,,,,,,,,,,,,,,,353,2023-11-21_09h02.42.370,leap3,2022.2.5,59.99253916206938,
,,,,,,,,,,,,,,,,,,,,5,0,5,0,5,0,5,0,,,,,,resume,w,g,lower,,,,,,,1,w,HiDemTar,g,1,0.4690468132030219,,,,,,,,,,,,,,,,,,,353,2023-11-21_09h02.42.370,leap3,2022.2.5,59.99253916206938,
,,,,,,,,,,,,,,,,,,,,5,0,5,0,6,0,6,0,,,,,,roodies,nw,h,lower,,,,,,,1,nw,HiDemTar,h,1,0.5268483097897843,,,,,,,,,,,,,,,,,,,353,2023-11-21_09h02.42.370,leap3,2022.2.5,59.99253916206938,
,,,,,,,,,,,,,,,,,,,,5,0,5,0,7,0,7,0,,,,,,atble,nw,h,lower,,,,,,,1,nw,HiDemTar,g,0,0.5048997995909303,,,,,,,,,,,,,,,,,,,353,2023-11-21_09h02.42.370,leap3,2022.2.5,59.99253916206938,
,,,,,,,,,,,,,,,,,,,,5,0,5,0,8,0,8,0,,,,,,consonant,w,g,lower,,,,,,,1,w,HiDemTar,g,1,0.747411020915024,,,,,,,,,,,,,,,,,,,353,2023-11-21_09h02.42.370,leap3,2022.2.5,59.99253916206938,
,,,,,,,,,,,,,,,,,,,,5,0,5,0,9,0,9,0,,,,,,carony,nw,h,lower,,,,,,,1,nw,HiDemTar,h,1,0.5097783195087686,,,,,,,,,,,,,,,,,,,353,2023-11-21_09h02.42.370,leap3,2022.2.5,59.99253916206938,
,,,,,,,,,,,,,,,,,,,,5,0,5,0,10,0,10,0,,,,,,usually,w,g,lower,,,,,,,1,w,HiDemTar,g,1,0.6649011881090701,,,,,,,,,,,,,,,,,,,353,2023-11-21_09h02.42.370,leap3,2022.2.5,59.99253916206938,
,,,,,,,,,,,,,,,,,,,,5,0,5,0,11,0,11,0,,,,,,castaway,w,g,lower,,,,,,,1,w,HiDemTar,h,0,0.5176116614602506,,,,,,,,,,,,,,,,,,,353,2023-11-21_09h02.42.370,leap3,2022.2.5,59.99253916206938,
,,,,,,,,,,,,,,,,,,,,5,0,5,0,12,0,12,0,,,,,,egcused,nw,h,lower,,,,,,,1,nw,HiDemTar,h,1,0.7036127059254795,,,,,,,,,,,,,,,,,,,353,2023-11-21_09h02.42.370,leap3,2022.2.5,59.99253916206938,
,,,,,,,,,,,,,,,,,,,,5,0,5,0,13,0,13,0,,,,,,numbled,nw,h,lower,,,,,,,1,nw,HiDemTar,h,1,0.8903550968971103,,,,,,,,,,,,,,,,,,,353,2023-11-21_09h02.42.370,leap3,2022.2.5,59.99253916206938,
,,,,,,,,,,,,,,,,,,,,5,0,5,0,14,0,14,0,,,,,,postal,w,g,lower,,,,,,,1,w,HiDemTar,g,1,0.9407684822799638,,,,,,,,,,,,,,,,,,,353,2023-11-21_09h02.42.370,leap3,2022.2.5,59.99253916206938,
,,,,,,,,,,,,,,,,,,,,5,0,5,0,15,0,15,0,,,,,,ugifies,nw,h,lower,,,,,,,1,nw,HiDemTar,h,1,0.6380035247420892,,,,,,,,,,,,,,,,,,,353,2023-11-21_09h02.42.370,leap3,2022.2.5,59.99253916206938,
,,,,,,,,,,,,,,,,,,,,5,0,5,0,16,0,16,0,,,,,,paying,w,g,lower,,,,,,,1,w,HiDemTar,g,1,0.5714504547649994,,,,,,,,,,,,,,,,,,,353,2023-11-21_09h02.42.370,leap3,2022.2.5,59.99253916206938,
,,,,,,,,,,,,,,,,,,,,5,0,5,0,17,0,17,0,,,,,,misobeyed,nw,h,lower,,,,,,,1,nw,HiDemTar,g,0,0.5714869787916541,,,,,,,,,,,,,,,,,,,353,2023-11-21_09h02.42.370,leap3,2022.2.5,59.99253916206938,
,,,,,,,,,,,,,,,,,,,,5,0,5,0,18,0,18,0,,,,,,flamingo,target,q,lower,,,,,,,1,target,HiDemTar,g,0,0.5234455406898633,,,,,,,,,,,,,,,,,,,353,2023-11-21_09h02.42.370,leap3,2022.2.5,59.99253916206938,
,,,,,,,,,,,,,,,,,,,,5,0,5,0,19,0,19,0,,,,,,calcify,w,g,lower,,,,,,,1,aftertar1,HiDemTar,g,1,1.5575206230860204,,,,,,,,,,,,,,,,,,,353,2023-11-21_09h02.42.370,leap3,2022.2.5,59.99253916206938,
,,,,,,,,,,,,,,,,,,,,5,0,5,0,20,0,20,0,,,,,,brimitar,nw,h,lower,,,,,,,1,aftertar2,HiDemTar,h,1,0.6221225266344845,,,,,,,,,,,,,,,,,,,353,2023-11-21_09h02.42.370,leap3,2022.2.5,59.99253916206938,
,,,,,,,,,,,,,,,,,,,,5,0,5,0,21,0,21,0,,,,,,geissue,nw,h,lower,,,,,,,1,aftertar3,HiDemTar,h,1,0.6281559293856844,,,,,,,,,,,,,,,,,,,353,2023-11-21_09h02.42.370,leap3,2022.2.5,59.99253916206938,
,,,,,,,,,,,,,,,,,,,,5,0,5,0,22,0,22,0,,,,,,listless,w,g,lower,,,,,,,1,nw,HiDemTar,h,0,0.5942583355354145,,,,,,,,,,,,,,,,,,,353,2023-11-21_09h02.42.370,leap3,2022.2.5,59.99253916206938,
,,,,,,,,,,,,,,,,,,,,5,0,5,0,23,0,23,0,,,,,,throttle,w,g,lower,,,,,,,1,w,HiDemTar,g,1,0.8487210554303601,,,,,,,,,,,,,,,,,,,353,2023-11-21_09h02.42.370,leap3,2022.2.5,59.99253916206938,
,,,,,,,,,,,,,,,,,,,,5,0,5,0,24,0,24,0,,,,,,committed,w,g,lower,,,,,,,1,w,HiDemTar,g,1,0.6780280953971669,,,,,,,,,,,,,,,,,,,353,2023-11-21_09h02.42.370,leap3,2022.2.5,59.99253916206938,
,,,,,,,,,,,,,,,,,,,,5,0,5,0,25,0,25,0,,,,,,flicking,w,g,lower,,,,,,,1,w,HiDemTar,g,1,0.48197932832408696,,,,,,,,,,,,,,,,,,,353,2023-11-21_09h02.42.370,leap3,2022.2.5,59.99253916206938,
,,,,,,,,,,,,,,,,,,,,5,0,5,0,26,0,26,0,,,,,,lasprey,nw,h,lower,,,,,,,1,w,HiDemTar,h,1,0.5899922716198489,,,,,,,,,,,,,,,,,,,353,2023-11-21_09h02.42.370,leap3,2022.2.5,59.99253916206938,
,,,,,,,,,,,,,,,,,,,,5,0,5,0,27,0,27,0,,,,,,slutches,nw,h,lower,,,,,,,1,nw,HiDemTar,h,1,0.789411811856553,,,,,,,,,,,,,,,,,,,353,2023-11-21_09h02.42.370,leap3,2022.2.5,59.99253916206938,
,,,,,,,,,,,,,,,,,,,,5,0,5,0,28,0,28,0,,,,,,carbled,nw,h,lower,,,,,,,1,nw,HiDemTar,h,1,0.6208206420997158,,,,,,,,,,,,,,,,,,,353,2023-11-21_09h02.42.370,leap3,2022.2.5,59.99253916206938,
,,,,,,,,,,,,,,,,,,,,5,0,5,0,29,0,29,0,,,,,,minimum,w,g,lower,,,,,,,1,nw,HiDemTar,g,1,0.7707767228130251,,,,,,,,,,,,,,,,,,,353,2023-11-21_09h02.42.370,leap3,2022.2.5,59.99253916206938,
,,,,,,,,,,,,,,,,,,,,5,0,5,0,,,,,,,,,,,,,,,,,,,,,,,,,,0,,,,,,,,,,,,,,,,,,353,2023-11-21_09h02.42.370,leap3,2022.2.5,59.99253916206938,
,,,,,,,,,,,,,,,,,,,,6,0,6,0,0,0,0,0,,,,,,mullet,w,g,lower,,,,,,,2,w,HiDemNoTar,g,1,0.7138638762990013,,,,,,,,,,,,,,,,,,,353,2023-11-21_09h02.42.370,leap3,2022.2.5,59.99253916206938,
,,,,,,,,,,,,,,,,,,,,6,0,6,0,1,0,1,0,,,,,,apology,w,g,lower,,,,,,,2,w,HiDemNoTar,g,1,0.48451125668361783,,,,,,,,,,,,,,,,,,,353,2023-11-21_09h02.42.370,leap3,2022.2.5,59.99253916206938,
,,,,,,,,,,,,,,,,,,,,6,0,6,0,2,0,2,0,,,,,,brudent,nw,h,lower,,,,,,,2,nw,HiDemNoTar,h,1,0.7120539762545377,,,,,,,,,,,,,,,,,,,353,2023-11-21_09h02.42.370,leap3,2022.2.5,59.99253916206938,
,,,,,,,,,,,,,,,,,,,,6,0,6,0,3,0,3,0,,,,,,insole,w,g,lower,,,,,,,2,w,HiDemNoTar,g,1,0.5460581235820428,,,,,,,,,,,,,,,,,,,353,2023-11-21_09h02.42.370,leap3,2022.2.5,59.99253916206938,
,,,,,,,,,,,,,,,,,,,,6,0,6,0,4,0,4,0,,,,,,rangel,nw,h,lower,,,,,,,2,nw,HiDemNoTar,h,1,0.5868035150924698,,,,,,,,,,,,,,,,,,,353,2023-11-21_09h02.42.370,leap3,2022.2.5,59.99253916206938,
,,,,,,,,,,,,,,,,,,,,6,0,6,0,5,0,5,0,,,,,,scrobby,nw,h,lower,,,,,,,2,nw,HiDemNoTar,h,1,0.6894770115613937,,,,,,,,,,,,,,,,,,,353,2023-11-21_09h02.42.370,leap3,2022.2.5,59.99253916206938,
,,,,,,,,,,,,,,,,,,,,6,0,6,0,6,0,6,0,,,,,,quickel,nw,h,lower,,,,,,,2,nw,HiDemNoTar,h,1,0.7228451585397124,,,,,,,,,,,,,,,,,,,353,2023-11-21_09h02.42.370,leap3,2022.2.5,59.99253916206938,
,,,,,,,,,,,,,,,,,,,,6,0,6,0,7,0,7,0,,,,,,warmer,w,g,lower,,,,,,,2,w,HiDemNoTar,g,1,0.5966945770196617,,,,,,,,,,,,,,,,,,,353,2023-11-21_09h02.42.370,leap3,2022.2.5,59.99253916206938,
,,,,,,,,,,,,,,,,,,,,6,0,6,0,8,0,8,0,,,,,,bother,w,g,lower,,,,,,,2,w,HiDemNoTar,g,1,0.619958252995275,,,,,,,,,,,,,,,,,,,353,2023-11-21_09h02.42.370,leap3,2022.2.5,59.99253916206938,
,,,,,,,,,,,,,,,,,,,,6,0,6,0,9,0,9,0,,,,,,susher,nw,h,lower,,,,,,,2,nw,HiDemNoTar,h,1,0.7138430485501885,,,,,,,,,,,,,,,,,,,353,2023-11-21_09h02.42.370,leap3,2022.2.5,59.99253916206938,
,,,,,,,,,,,,,,,,,,,,6,0,6,0,10,0,10,0,,,,,,actively,w,g,lower,,,,,,,2,w,HiDemNoTar,g,1,0.5884473969927058,,,,,,,,,,,,,,,,,,,353,2023-11-21_09h02.42.370,leap3,2022.2.5,59.99253916206938,
,,,,,,,,,,,,,,,,,,,,6,0,6,0,11,0,11,0,,,,,,gerby,nw,h,lower,,,,,,,2,nw,HiDemNoTar,h,1,0.6278097060276195,,,,,,,,,,,,,,,,,,,353,2023-11-21_09h02.42.370,leap3,2022.2.5,59.99253916206938,
,,,,,,,,,,,,,,,,,,,,6,0,6,0,12,0,12,0,,,,,,planofoad,nw,h,lower,,,,,,,2,nw,HiDemNoTar,h,1,0.6258292599814013,,,,,,,,,,,,,,,,,,,353,2023-11-21_09h02.42.370,leap3,2022.2.5,59.99253916206938,
,,,,,,,,,,,,,,,,,,,,6,0,6,0,13,0,13,0,,,,,,cayward,nw,h,lower,,,,,,,2,nw,HiDemNoTar,h,1,0.5038768256781623,,,,,,,,,,,,,,,,,,,353,2023-11-21_09h02.42.370,leap3,2022.2.5,59.99253916206938,
,,,,,,,,,,,,,,,,,,,,6,0,6,0,14,0,14,0,,,,,,tritical,nw,h,lower,,,,,,,2,nw,HiDemNoTar,h,1,0.6985582065535709,,,,,,,,,,,,,,,,,,,353,2023-11-21_09h02.42.370,leap3,2022.2.5,59.99253916206938,
,,,,,,,,,,,,,,,,,,,,6,0,6,0,15,0,15,0,,,,,,sunshine,w,g,lower,,,,,,,2,w,HiDemNoTar,g,1,0.5978896061424166,,,,,,,,,,,,,,,,,,,353,2023-11-21_09h02.42.370,leap3,2022.2.5,59.99253916206938,
,,,,,,,,,,,,,,,,,,,,6,0,6,0,16,0,16,0,,,,,,levels,w,g,lower,,,,,,,2,w,HiDemNoTar,g,1,0.9573349845595658,,,,,,,,,,,,,,,,,,,353,2023-11-21_09h02.42.370,leap3,2022.2.5,59.99253916206938,
,,,,,,,,,,,,,,,,,,,,6,0,6,0,17,0,17,0,,,,,,cegalia,nw,h,lower,,,,,,,2,nw,HiDemNoTar,h,1,0.6371577375102788,,,,,,,,,,,,,,,,,,,353,2023-11-21_09h02.42.370,leap3,2022.2.5,59.99253916206938,
,,,,,,,,,,,,,,,,,,,,6,0,6,0,18,0,18,0,,,,,,urgent,w,g,lower,,,,,,,2,w,HiDemNoTar,g,1,0.57841899280902,,,,,,,,,,,,,,,,,,,353,2023-11-21_09h02.42.370,leap3,2022.2.5,59.99253916206938,
,,,,,,,,,,,,,,,,,,,,6,0,6,0,19,0,19,0,,,,,,trocess,nw,h,lower,,,,,,,2,nw,HiDemNoTar,h,1,0.7543674849439412,,,,,,,,,,,,,,,,,,,353,2023-11-21_09h02.42.370,leap3,2022.2.5,59.99253916206938,
,,,,,,,,,,,,,,,,,,,,6,0,6,0,20,0,20,0,,,,,,tipoff,w,g,lower,,,,,,,2,w,HiDemNoTar,h,0,0.6831118742702529,,,,,,,,,,,,,,,,,,,353,2023-11-21_09h02.42.370,leap3,2022.2.5,59.99253916206938,
,,,,,,,,,,,,,,,,,,,,6,0,6,0,21,0,21,0,,,,,,butler,w,g,lower,,,,,,,2,w,HiDemNoTar,g,1,0.5991933016339317,,,,,,,,,,,,,,,,,,,353,2023-11-21_09h02.42.370,leap3,2022.2.5,59.99253916206938,
,,,,,,,,,,,,,,,,,,,,6,0,6,0,22,0,22,0,,,,,,thacked,nw,h,lower,,,,,,,2,nw,HiDemNoTar,h,1,0.6705602953443304,,,,,,,,,,,,,,,,,,,353,2023-11-21_09h02.42.370,leap3,2022.2.5,59.99253916206938,
,,,,,,,,,,,,,,,,,,,,6,0,6,0,23,0,23,0,,,,,,peadgear,nw,h,lower,,,,,,,2,nw,HiDemNoTar,h,1,0.8585943080252036,,,,,,,,,,,,,,,,,,,353,2023-11-21_09h02.42.370,leap3,2022.2.5,59.99253916206938,
,,,,,,,,,,,,,,,,,,,,6,0,6,0,24,0,24,0,,,,,,vorm,nw,h,lower,,,,,,,2,nw,HiDemNoTar,h,1,0.6220727211330086,,,,,,,,,,,,,,,,,,,353,2023-11-21_09h02.42.370,leap3,2022.2.5,59.99253916206938,
,,,,,,,,,,,,,,,,,,,,6,0,6,0,25,0,25,0,,,,,,antique,w,g,lower,,,,,,,2,w,HiDemNoTar,g,1,0.6191532157827169,,,,,,,,,,,,,,,,,,,353,2023-11-21_09h02.42.370,leap3,2022.2.5,59.99253916206938,
,,,,,,,,,,,,,,,,,,,,6,0,6,0,26,0,26,0,,,,,,argue,w,g,lower,,,,,,,2,w,HiDemNoTar,g,1,0.7130343890748918,,,,,,,,,,,,,,,,,,,353,2023-11-21_09h02.42.370,leap3,2022.2.5,59.99253916206938,
,,,,,,,,,,,,,,,,,,,,6,0,6,0,27,0,27,0,,,,,,provide,w,g,lower,,,,,,,2,w,HiDemNoTar,g,1,0.5786939793033525,,,,,,,,,,,,,,,,,,,353,2023-11-21_09h02.42.370,leap3,2022.2.5,59.99253916206938,
,,,,,,,,,,,,,,,,,,,,6,0,6,0,28,0,28,0,,,,,,imprives,nw,h,lower,,,,,,,2,nw,HiDemNoTar,h,1,0.7224521482130513,,,,,,,,,,,,,,,,,,,353,2023-11-21_09h02.42.370,leap3,2022.2.5,59.99253916206938,
,,,,,,,,,,,,,,,,,,,,6,0,6,0,29,0,29,0,,,,,,rejoiced,w,g,lower,,,,,,,2,w,HiDemNoTar,g,1,0.7717580411117524,,,,,,,,,,,,,,,,,,,353,2023-11-21_09h02.42.370,leap3,2022.2.5,59.99253916206938,
,,,,,,,,,,,,,,,,,,,,6,0,6,0,,,,,,,,,,,,,,,,,,,,,,,,,,NA,,,,,,,,,,,,,,,,,,353,2023-11-21_09h02.42.370,leap3,2022.2.5,59.99253916206938,
,,,,,,,,,,,,,,,,,,,,7,0,7,0,0,0,0,0,,,,,,sheerio,nw,h,upper,,,,,,,3,nw,LoDemNoTar,h,1,0.6359433898469433,,,,,,,,,,,,,,,,,,,353,2023-11-21_09h02.42.370,leap3,2022.2.5,59.99253916206938,
,,,,,,,,,,,,,,,,,,,,7,0,7,0,1,0,1,0,,,,,,atsless,nw,h,upper,,,,,,,3,nw,LoDemNoTar,h,1,0.5765707575483248,,,,,,,,,,,,,,,,,,,353,2023-11-21_09h02.42.370,leap3,2022.2.5,59.99253916206938,
,,,,,,,,,,,,,,,,,,,,7,0,7,0,2,0,2,0,,,,,,railway,w,g,upper,,,,,,,3,w,LoDemNoTar,g,1,0.5029963256092742,,,,,,,,,,,,,,,,,,,353,2023-11-21_09h02.42.370,leap3,2022.2.5,59.99253916206938,
,,,,,,,,,,,,,,,,,,,,7,0,7,0,3,0,3,0,,,,,,picnic,w,g,upper,,,,,,,3,w,LoDemNoTar,g,1,0.5449593850644305,,,,,,,,,,,,,,,,,,,353,2023-11-21_09h02.42.370,leap3,2022.2.5,59.99253916206938,
,,,,,,,,,,,,,,,,,,,,7,0,7,0,4,0,4,0,,,,,,dreaded,w,g,upper,,,,,,,3,w,LoDemNoTar,g,1,0.45043406123295426,,,,,,,,,,,,,,,,,,,353,2023-11-21_09h02.42.370,leap3,2022.2.5,59.99253916206938,
,,,,,,,,,,,,,,,,,,,,7,0,7,0,5,0,5,0,,,,,,lutton,nw,h,upper,,,,,,,3,nw,LoDemNoTar,h,1,0.7910167548106983,,,,,,,,,,,,,,,,,,,353,2023-11-21_09h02.42.370,leap3,2022.2.5,59.99253916206938,
,,,,,,,,,,,,,,,,,,,,7,0,7,0,6,0,6,0,,,,,,heaviest,w,g,upper,,,,,,,3,w,LoDemNoTar,g,1,0.5904824781464413,,,,,,,,,,,,,,,,,,,353,2023-11-21_09h02.42.370,leap3,2022.2.5,59.99253916206938,
,,,,,,,,,,,,,,,,,,,,7,0,7,0,7,0,7,0,,,,,,managed,w,g,upper,,,,,,,3,w,LoDemNoTar,g,1,0.5571922089438885,,,,,,,,,,,,,,,,,,,353,2023-11-21_09h02.42.370,leap3,2022.2.5,59.99253916206938,
,,,,,,,,,,,,,,,,,,,,7,0,7,0,8,0,8,0,,,,,,corg,nw,h,upper,,,,,,,3,nw,LoDemNoTar,h,1,0.5972665851004422,,,,,,,,,,,,,,,,,,,353,2023-11-21_09h02.42.370,leap3,2022.2.5,59.99253916206938,
,,,,,,,,,,,,,,,,,,,,7,0,7,0,9,0,9,0,,,,,,boulder,w,g,upper,,,,,,,3,w,LoDemNoTar,g,1,0.611838152515702,,,,,,,,,,,,,,,,,,,353,2023-11-21_09h02.42.370,leap3,2022.2.5,59.99253916206938,
,,,,,,,,,,,,,,,,,,,,7,0,7,0,10,0,10,0,,,,,,lancos,nw,h,upper,,,,,,,3,nw,LoDemNoTar,h,1,0.5936727441148832,,,,,,,,,,,,,,,,,,,353,2023-11-21_09h02.42.370,leap3,2022.2.5,59.99253916206938,
,,,,,,,,,,,,,,,,,,,,7,0,7,0,11,0,11,0,,,,,,airmen,w,g,upper,,,,,,,3,w,LoDemNoTar,g,1,0.8563805309822783,,,,,,,,,,,,,,,,,,,353,2023-11-21_09h02.42.370,leap3,2022.2.5,59.99253916206938,
,,,,,,,,,,,,,,,,,,,,7,0,7,0,12,0,12,0,,,,,,condensed,w,g,upper,,,,,,,3,w,LoDemNoTar,g,1,0.7963528813561425,,,,,,,,,,,,,,,,,,,353,2023-11-21_09h02.42.370,leap3,2022.2.5,59.99253916206938,
,,,,,,,,,,,,,,,,,,,,7,0,7,0,13,0,13,0,,,,,,jinds,nw,h,upper,,,,,,,3,nw,LoDemNoTar,h,1,0.6030470365658402,,,,,,,,,,,,,,,,,,,353,2023-11-21_09h02.42.370,leap3,2022.2.5,59.99253916206938,
,,,,,,,,,,,,,,,,,,,,7,0,7,0,14,0,14,0,,,,,,mortgage,w,g,upper,,,,,,,3,w,LoDemNoTar,g,1,0.5450940106529742,,,,,,,,,,,,,,,,,,,353,2023-11-21_09h02.42.370,leap3,2022.2.5,59.99253916206938,
,,,,,,,,,,,,,,,,,,,,7,0,7,0,15,0,15,0,,,,,,gewer,nw,h,upper,,,,,,,3,nw,LoDemNoTar,h,1,0.577778464416042,,,,,,,,,,,,,,,,,,,353,2023-11-21_09h02.42.370,leap3,2022.2.5,59.99253916206938,
,,,,,,,,,,,,,,,,,,,,7,0,7,0,16,0,16,0,,,,,,rewrite,w,g,upper,,,,,,,3,w,LoDemNoTar,g,1,0.6011686162091792,,,,,,,,,,,,,,,,,,,353,2023-11-21_09h02.42.370,leap3,2022.2.5,59.99253916206938,
,,,,,,,,,,,,,,,,,,,,7,0,7,0,17,0,17,0,,,,,,aicline,nw,h,upper,,,,,,,3,nw,LoDemNoTar,h,1,0.7506498849252239,,,,,,,,,,,,,,,,,,,353,2023-11-21_09h02.42.370,leap3,2022.2.5,59.99253916206938,
,,,,,,,,,,,,,,,,,,,,7,0,7,0,18,0,18,0,,,,,,irregular,w,g,upper,,,,,,,3,w,LoDemNoTar,g,1,0.5994685899931937,,,,,,,,,,,,,,,,,,,353,2023-11-21_09h02.42.370,leap3,2022.2.5,59.99253916206938,
,,,,,,,,,,,,,,,,,,,,7,0,7,0,19,0,19,0,,,,,,peags,nw,h,upper,,,,,,,3,nw,LoDemNoTar,h,1,0.5256674677366391,,,,,,,,,,,,,,,,,,,353,2023-11-21_09h02.42.370,leap3,2022.2.5,59.99253916206938,
,,,,,,,,,,,,,,,,,,,,7,0,7,0,20,0,20,0,,,,,,anemic,w,g,upper,,,,,,,3,w,LoDemNoTar,g,1,0.6244730423204601,,,,,,,,,,,,,,,,,,,353,2023-11-21_09h02.42.370,leap3,2022.2.5,59.99253916206938,
,,,,,,,,,,,,,,,,,,,,7,0,7,0,21,0,21,0,,,,,,century,w,g,upper,,,,,,,3,w,LoDemNoTar,g,1,0.564864362240769,,,,,,,,,,,,,,,,,,,353,2023-11-21_09h02.42.370,leap3,2022.2.5,59.99253916206938,
,,,,,,,,,,,,,,,,,,,,7,0,7,0,22,0,22,0,,,,,,breiled,nw,h,upper,,,,,,,3,nw,LoDemNoTar,h,1,0.6128904059296474,,,,,,,,,,,,,,,,,,,353,2023-11-21_09h02.42.370,leap3,2022.2.5,59.99253916206938,
,,,,,,,,,,,,,,,,,,,,7,0,7,0,23,0,23,0,,,,,,ameld,nw,h,upper,,,,,,,3,nw,LoDemNoTar,h,1,0.6109024136094376,,,,,,,,,,,,,,,,,,,353,2023-11-21_09h02.42.370,leap3,2022.2.5,59.99253916206938,
,,,,,,,,,,,,,,,,,,,,7,0,7,0,24,0,24,0,,,,,,sludding,nw,h,upper,,,,,,,3,nw,LoDemNoTar,h,1,0.7449916830519214,,,,,,,,,,,,,,,,,,,353,2023-11-21_09h02.42.370,leap3,2022.2.5,59.99253916206938,
,,,,,,,,,,,,,,,,,,,,7,0,7,0,25,0,25,0,,,,,,tibs,nw,h,upper,,,,,,,3,nw,LoDemNoTar,h,1,0.5215662147384137,,,,,,,,,,,,,,,,,,,353,2023-11-21_09h02.42.370,leap3,2022.2.5,59.99253916206938,
,,,,,,,,,,,,,,,,,,,,7,0,7,0,26,0,26,0,,,,,,standard,w,g,upper,,,,,,,3,w,LoDemNoTar,h,0,0.5068953381851315,,,,,,,,,,,,,,,,,,,353,2023-11-21_09h02.42.370,leap3,2022.2.5,59.99253916206938,
,,,,,,,,,,,,,,,,,,,,7,0,7,0,27,0,27,0,,,,,,balign,nw,h,upper,,,,,,,3,nw,LoDemNoTar,h,1,0.7410947834141552,,,,,,,,,,,,,,,,,,,353,2023-11-21_09h02.42.370,leap3,2022.2.5,59.99253916206938,
,,,,,,,,,,,,,,,,,,,,7,0,7,0,28,0,28,0,,,,,,smolvers,nw,h,upper,,,,,,,3,nw,LoDemNoTar,h,1,0.6137814709218219,,,,,,,,,,,,,,,,,,,353,2023-11-21_09h02.42.370,leap3,2022.2.5,59.99253916206938,
,,,,,,,,,,,,,,,,,,,,7,0,7,0,29,0,29,0,,,,,,ignore,w,g,upper,,,,,,,3,w,LoDemNoTar,g,1,0.5237576548242941,,,,,,,,,,,,,,,,,,,353,2023-11-21_09h02.42.370,leap3,2022.2.5,59.99253916206938,
,,,,,,,,,,,,,,,,,,,,7,0,7,0,,,,,,,,,,,,,,,,,,,,,,,,,,NA,,,,,,,,,,,,,,,,,,353,2023-11-21_09h02.42.370,leap3,2022.2.5,59.99253916206938,
,,,,,,,,,,,,,,,,,,,,8,0,8,0,0,0,0,0,,,,,,trake,nw,h,lower,,,,,,,1,nw,HiDemTar,h,1,0.6848457078449428,,,,,,,,,,,,,,,,,,,353,2023-11-21_09h02.42.370,leap3,2022.2.5,59.99253916206938,
,,,,,,,,,,,,,,,,,,,,8,0,8,0,1,0,1,0,,,,,,miteous,nw,h,lower,,,,,,,1,nw,HiDemTar,h,1,0.6082938151666895,,,,,,,,,,,,,,,,,,,353,2023-11-21_09h02.42.370,leap3,2022.2.5,59.99253916206938,
,,,,,,,,,,,,,,,,,,,,8,0,8,0,2,0,2,0,,,,,,scack,nw,h,lower,,,,,,,1,nw,HiDemTar,h,1,0.4862933864351362,,,,,,,,,,,,,,,,,,,353,2023-11-21_09h02.42.370,leap3,2022.2.5,59.99253916206938,
,,,,,,,,,,,,,,,,,,,,8,0,8,0,3,0,3,0,,,,,,seldom,w,g,lower,,,,,,,1,w,HiDemTar,g,1,0.5691014482872561,,,,,,,,,,,,,,,,,,,353,2023-11-21_09h02.42.370,leap3,2022.2.5,59.99253916206938,
,,,,,,,,,,,,,,,,,,,,8,0,8,0,4,0,4,0,,,,,,chining,nw,h,lower,,,,,,,1,nw,HiDemTar,h,1,0.5844702048925683,,,,,,,,,,,,,,,,,,,353,2023-11-21_09h02.42.370,leap3,2022.2.5,59.99253916206938,
,,,,,,,,,,,,,,,,,,,,8,0,8,0,5,0,5,0,,,,,,publish,w,g,lower,,,,,,,1,w,HiDemTar,g,1,0.4709119520848617,,,,,,,,,,,,,,,,,,,353,2023-11-21_09h02.42.370,leap3,2022.2.5,59.99253916206938,
,,,,,,,,,,,,,,,,,,,,8,0,8,0,6,0,6,0,,,,,,oleandur,nw,h,lower,,,,,,,1,nw,HiDemTar,h,1,0.4980864131357521,,,,,,,,,,,,,,,,,,,353,2023-11-21_09h02.42.370,leap3,2022.2.5,59.99253916206938,
,,,,,,,,,,,,,,,,,,,,8,0,8,0,7,0,7,0,,,,,,ounwit,nw,h,lower,,,,,,,1,nw,HiDemTar,h,1,0.5647689772304147,,,,,,,,,,,,,,,,,,,353,2023-11-21_09h02.42.370,leap3,2022.2.5,59.99253916206938,
,,,,,,,,,,,,,,,,,,,,8,0,8,0,8,0,8,0,,,,,,mandate,w,g,lower,,,,,,,1,w,HiDemTar,g,1,0.5168280554935336,,,,,,,,,,,,,,,,,,,353,2023-11-21_09h02.42.370,leap3,2022.2.5,59.99253916206938,
,,,,,,,,,,,,,,,,,,,,8,0,8,0,9,0,9,0,,,,,,infusion,w,g,lower,,,,,,,1,w,HiDemTar,g,1,0.48689618334174156,,,,,,,,,,,,,,,,,,,353,2023-11-21_09h02.42.370,leap3,2022.2.5,59.99253916206938,
,,,,,,,,,,,,,,,,,,,,8,0,8,0,10,0,10,0,,,,,,hustle,w,g,lower,,,,,,,1,w,HiDemTar,g,1,0.4164256879594177,,,,,,,,,,,,,,,,,,,353,2023-11-21_09h02.42.370,leap3,2022.2.5,59.99253916206938,
,,,,,,,,,,,,,,,,,,,,8,0,8,0,11,0,11,0,,,,,,wienegs,nw,h,lower,,,,,,,1,nw,HiDemTar,h,1,0.5106352752773091,,,,,,,,,,,,,,,,,,,353,2023-11-21_09h02.42.370,leap3,2022.2.5,59.99253916206938,
,,,,,,,,,,,,,,,,,,,,8,0,8,0,12,0,12,0,,,,,,larger,w,g,lower,,,,,,,1,w,HiDemTar,g,1,0.504821318318136,,,,,,,,,,,,,,,,,,,353,2023-11-21_09h02.42.370,leap3,2022.2.5,59.99253916206938,
,,,,,,,,,,,,,,,,,,,,8,0,8,0,13,0,13,0,,,,,,unsmilung,nw,h,lower,,,,,,,1,nw,HiDemTar,h,1,0.5075358665781096,,,,,,,,,,,,,,,,,,,353,2023-11-21_09h02.42.370,leap3,2022.2.5,59.99253916206938,
,,,,,,,,,,,,,,,,,,,,8,0,8,0,14,0,14,0,,,,,,flougy,nw,h,lower,,,,,,,1,nw,HiDemTar,h,1,0.5648719086311758,,,,,,,,,,,,,,,,,,,353,2023-11-21_09h02.42.370,leap3,2022.2.5,59.99253916206938,
,,,,,,,,,,,,,,,,,,,,8,0,8,0,15,0,15,0,,,,,,finstrel,nw,h,lower,,,,,,,1,nw,HiDemTar,h,1,0.6208296975819394,,,,,,,,,,,,,,,,,,,353,2023-11-21_09h02.42.370,leap3,2022.2.5,59.99253916206938,
,,,,,,,,,,,,,,,,,,,,8,0,8,0,16,0,16,0,,,,,,other,w,g,lower,,,,,,,1,w,HiDemTar,g,1,0.41003368562087417,,,,,,,,,,,,,,,,,,,353,2023-11-21_09h02.42.370,leap3,2022.2.5,59.99253916206938,
,,,,,,,,,,,,,,,,,,,,8,0,8,0,17,0,17,0,,,,,,teamwork,w,g,lower,,,,,,,1,w,HiDemTar,g,1,0.5841463184915483,,,,,,,,,,,,,,,,,,,353,2023-11-21_09h02.42.370,leap3,2022.2.5,59.99253916206938,
,,,,,,,,,,,,,,,,,,,,8,0,8,0,18,0,18,0,,,,,,erithets,nw,h,lower,,,,,,,1,nw,HiDemTar,g,0,0.5275350214214996,,,,,,,,,,,,,,,,,,,353,2023-11-21_09h02.42.370,leap3,2022.2.5,59.99253916206938,
,,,,,,,,,,,,,,,,,,,,8,0,8,0,19,0,19,0,,,,,,ubefully,nw,h,lower,,,,,,,1,nw,HiDemTar,h,1,0.6569172224262729,,,,,,,,,,,,,,,,,,,353,2023-11-21_09h02.42.370,leap3,2022.2.5,59.99253916206938,
,,,,,,,,,,,,,,,,,,,,8,0,8,0,20,0,20,0,,,,,,illness,w,g,lower,,,,,,,1,w,HiDemTar,g,1,0.6129211948718876,,,,,,,,,,,,,,,,,,,353,2023-11-21_09h02.42.370,leap3,2022.2.5,59.99253916206938,
,,,,,,,,,,,,,,,,,,,,8,0,8,0,21,0,21,0,,,,,,colicky,w,g,lower,,,,,,,1,w,HiDemTar,h,0,0.6028985257726163,,,,,,,,,,,,,,,,,,,353,2023-11-21_09h02.42.370,leap3,2022.2.5,59.99253916206938,
,,,,,,,,,,,,,,,,,,,,8,0,8,0,22,0,22,0,,,,,,dorth,nw,h,lower,,,,,,,1,nw,HiDemTar,h,1,0.7208662217017263,,,,,,,,,,,,,,,,,,,353,2023-11-21_09h02.42.370,leap3,2022.2.5,59.99253916206938,
,,,,,,,,,,,,,,,,,,,,8,0,8,0,23,0,23,0,,,,,,uncarled,nw,h,lower,,,,,,,1,nw,HiDemTar,h,1,0.5782855745637789,,,,,,,,,,,,,,,,,,,353,2023-11-21_09h02.42.370,leap3,2022.2.5,59.99253916206938,
,,,,,,,,,,,,,,,,,,,,8,0,8,0,24,0,24,0,,,,,,comment,w,g,lower,,,,,,,1,w,HiDemTar,h,0,0.5696659100940451,,,,,,,,,,,,,,,,,,,353,2023-11-21_09h02.42.370,leap3,2022.2.5,59.99253916206938,
,,,,,,,,,,,,,,,,,,,,8,0,8,0,25,0,25,0,,,,,,butcher,w,g,lower,,,,,,,1,w,HiDemTar,g,1,0.7039803607622162,,,,,,,,,,,,,,,,,,,353,2023-11-21_09h02.42.370,leap3,2022.2.5,59.99253916206938,
,,,,,,,,,,,,,,,,,,,,8,0,8,0,26,0,26,0,,,,,,apop,nw,h,lower,,,,,,,1,nw,HiDemTar,h,1,0.5700251131784171,,,,,,,,,,,,,,,,,,,353,2023-11-21_09h02.42.370,leap3,2022.2.5,59.99253916206938,
,,,,,,,,,,,,,,,,,,,,8,0,8,0,27,0,27,0,,,,,,coyote,target,q,lower,,,,,,,1,target,HiDemTar,g,0,0.5934161704499274,,1,1,,,,,,,,,,,,,,,,353,2023-11-21_09h02.42.370,leap3,2022.2.5,59.99253916206938,
,,,,,,,,,,,,,,,,,,,,8,0,8,0,28,0,28,0,,,,,,target,w,g,lower,,,,,,,1,aftertar1,HiDemTar,g,1,0.7680869261967018,,,,,,,,,,,,,,,,,,,353,2023-11-21_09h02.42.370,leap3,2022.2.5,59.99253916206938,
,,,,,,,,,,,,,,,,,,,,8,0,8,0,29,0,29,0,,,,,,buttress,w,g,lower,,,,,,,1,aftertar2,HiDemTar,g,1,0.680107548716478,,,,,,,,,,,,,,,,,,,353,2023-11-21_09h02.42.370,leap3,2022.2.5,59.99253916206938,
,,,,,,,,,,,,,,,,,,,,8,0,8,0,,,,,,,,,,,,,,,,,,,,,,,,,,1,,,,,,,,,,,,,,,,,,353,2023-11-21_09h02.42.370,leap3,2022.2.5,59.99253916206938,
,,,,,,,,,,,,,,,,,,,,9,0,9,0,0,0,0,0,,,,,,owner,w,g,lower,,,,,,,1,w,HiDemTar,g,1,0.5953265870921314,,,,,,,,,,,,,,,,,,,353,2023-11-21_09h02.42.370,leap3,2022.2.5,59.99253916206938,
,,,,,,,,,,,,,,,,,,,,9,0,9,0,1,0,1,0,,,,,,rillains,nw,h,lower,,,,,,,1,nw,HiDemTar,g,0,0.5059046624228358,,,,,,,,,,,,,,,,,,,353,2023-11-21_09h02.42.370,leap3,2022.2.5,59.99253916206938,
,,,,,,,,,,,,,,,,,,,,9,0,9,0,2,0,2,0,,,,,,frequency,w,g,lower,,,,,,,1,w,HiDemTar,g,1,0.6120422040112317,,,,,,,,,,,,,,,,,,,353,2023-11-21_09h02.42.370,leap3,2022.2.5,59.99253916206938,
,,,,,,,,,,,,,,,,,,,,9,0,9,0,3,0,3,0,,,,,,bamboo,w,g,lower,,,,,,,1,w,HiDemTar,g,1,0.7048080367967486,,,,,,,,,,,,,,,,,,,353,2023-11-21_09h02.42.370,leap3,2022.2.5,59.99253916206938,
,,,,,,,,,,,,,,,,,,,,9,0,9,0,4,0,4,0,,,,,,booster,w,g,lower,,,,,,,1,w,HiDemTar,g,1,0.7068241012748331,,,,,,,,,,,,,,,,,,,353,2023-11-21_09h02.42.370,leap3,2022.2.5,59.99253916206938,
,,,,,,,,,,,,,,,,,,,,9,0,9,0,5,0,5,0,,,,,,eggays,nw,h,lower,,,,,,,1,nw,HiDemTar,h,1,0.6695430566323921,,,,,,,,,,,,,,,,,,,353,2023-11-21_09h02.42.370,leap3,2022.2.5,59.99253916206938,
,,,,,,,,,,,,,,,,,,,,9,0,9,0,6,0,6,0,,,,,,outset,w,g,lower,,,,,,,1,w,HiDemTar,g,1,0.9614332191413268,,,,,,,,,,,,,,,,,,,353,2023-11-21_09h02.42.370,leap3,2022.2.5,59.99253916206938,
,,,,,,,,,,,,,,,,,,,,9,0,9,0,7,0,7,0,,,,,,category,w,g,lower,,,,,,,1,w,HiDemTar,g,1,0.46546534809749573,,,,,,,,,,,,,,,,,,,353,2023-11-21_09h02.42.370,leap3,2022.2.5,59.99253916206938,
,,,,,,,,,,,,,,,,,,,,9,0,9,0,8,0,8,0,,,,,,cripet,nw,h,lower,,,,,,,1,nw,HiDemTar,h,1,0.6455455800751224,,,,,,,,,,,,,,,,,,,353,2023-11-21_09h02.42.370,leap3,2022.2.5,59.99253916206938,
,,,,,,,,,,,,,,,,,,,,9,0,9,0,9,0,9,0,,,,,,frose,nw,h,lower,,,,,,,1,nw,HiDemTar,h,1,0.6491306675598025,,,,,,,,,,,,,,,,,,,353,2023-11-21_09h02.42.370,leap3,2022.2.5,59.99253916206938,
,,,,,,,,,,,,,,,,,,,,9,0,9,0,10,0,10,0,,,,,,elephant,target,q,lower,,,,,,,1,target,HiDemTar,g,0,0.7099114359589294,,1,1,,,,,,,,,,,,,,,,353,2023-11-21_09h02.42.370,leap3,2022.2.5,59.99253916206938,
,,,,,,,,,,,,,,,,,,,,9,0,9,0,11,0,11,0,,,,,,fillings,w,g,lower,,,,,,,1,aftertar1,HiDemTar,g,1,0.7200095677981153,,,,,,,,,,,,,,,,,,,353,2023-11-21_09h02.42.370,leap3,2022.2.5,59.99253916206938,
,,,,,,,,,,,,,,,,,,,,9,0,9,0,12,0,12,0,,,,,,pender,nw,h,lower,,,,,,,1,aftertar2,HiDemTar,g,0,1.0013298048870638,,,,,,,,,,,,,,,,,,,353,2023-11-21_09h02.42.370,leap3,2022.2.5,59.99253916206938,
,,,,,,,,,,,,,,,,,,,,9,0,9,0,13,0,13,0,,,,,,irfirm,nw,h,lower,,,,,,,1,aftertar3,HiDemTar,h,1,0.6639500547898933,,,,,,,,,,,,,,,,,,,353,2023-11-21_09h02.42.370,leap3,2022.2.5,59.99253916206938,
,,,,,,,,,,,,,,,,,,,,9,0,9,0,14,0,14,0,,,,,,rualify,nw,h,lower,,,,,,,1,nw,HiDemTar,h,1,0.5719747703988105,,,,,,,,,,,,,,,,,,,353,2023-11-21_09h02.42.370,leap3,2022.2.5,59.99253916206938,
,,,,,,,,,,,,,,,,,,,,9,0,9,0,15,0,15,0,,,,,,create,w,g,lower,,,,,,,1,nw,HiDemTar,g,1,0.6834022551774979,,,,,,,,,,,,,,,,,,,353,2023-11-21_09h02.42.370,leap3,2022.2.5,59.99253916206938,
,,,,,,,,,,,,,,,,,,,,9,0,9,0,16,0,16,0,,,,,,pressures,w,g,lower,,,,,,,1,w,HiDemTar,g,1,0.6386899343924597,,,,,,,,,,,,,,,,,,,353,2023-11-21_09h02.42.370,leap3,2022.2.5,59.99253916206938,
,,,,,,,,,,,,,,,,,,,,9,0,9,0,17,0,17,0,,,,,,lenie,nw,h,lower,,,,,,,1,w,HiDemTar,h,1,0.6194164301268756,,,,,,,,,,,,,,,,,,,353,2023-11-21_09h02.42.370,leap3,2022.2.5,59.99253916206938,
,,,,,,,,,,,,,,,,,,,,9,0,9,0,18,0,18,0,,,,,,blerapies,nw,h,lower,,,,,,,1,nw,HiDemTar,h,1,0.5677926212083548,,,,,,,,,,,,,,,,,,,353,2023-11-21_09h02.42.370,leap3,2022.2.5,59.99253916206938,
,,,,,,,,,,,,,,,,,,,,9,0,9,0,19,0,19,0,,,,,,yellep,nw,h,lower,,,,,,,1,nw,HiDemTar,h,1,0.5039616458816454,,,,,,,,,,,,,,,,,,,353,2023-11-21_09h02.42.370,leap3,2022.2.5,59.99253916206938,
,,,,,,,,,,,,,,,,,,,,9,0,9,0,20,0,20,0,,,,,,priant,nw,h,lower,,,,,,,1,nw,HiDemTar,h,1,0.4977957303635776,,,,,,,,,,,,,,,,,,,353,2023-11-21_09h02.42.370,leap3,2022.2.5,59.99253916206938,
,,,,,,,,,,,,,,,,,,,,9,0,9,0,21,0,21,0,,,,,,result,w,g,lower,,,,,,,1,nw,HiDemTar,g,1,0.5644396574934945,,,,,,,,,,,,,,,,,,,353,2023-11-21_09h02.42.370,leap3,2022.2.5,59.99253916206938,
,,,,,,,,,,,,,,,,,,,,9,0,9,0,22,0,22,0,,,,,,elalt,nw,h,lower,,,,,,,1,w,HiDemTar,h,1,0.7245168107328936,,,,,,,,,,,,,,,,,,,353,2023-11-21_09h02.42.370,leap3,2022.2.5,59.99253916206938,
,,,,,,,,,,,,,,,,,,,,9,0,9,0,23,0,23,0,,,,,,capobly,nw,h,lower,,,,,,,1,nw,HiDemTar,g,0,0.5818712656619027,,,,,,,,,,,,,,,,,,,353,2023-11-21_09h02.42.370,leap3,2022.2.5,59.99253916206938,
,,,,,,,,,,,,,,,,,,,,9,0,9,0,24,0,24,0,,,,,,rodeo,w,g,lower,,,,,,,1,nw,HiDemTar,g,1,0.7573407198069617,,,,,,,,,,,,,,,,,,,353,2023-11-21_09h02.42.370,leap3,2022.2.5,59.99253916206938,
,,,,,,,,,,,,,,,,,,,,9,0,9,0,25,0,25,0,,,,,,nature,w,g,lower,,,,,,,1,w,HiDemTar,g,1,0.6533529629232362,,,,,,,,,,,,,,,,,,,353,2023-11-21_09h02.42.370,leap3,2022.2.5,59.99253916206938,
,,,,,,,,,,,,,,,,,,,,9,0,9,0,26,0,26,0,,,,,,pregs,nw,h,lower,,,,,,,1,w,HiDemTar,h,1,0.6485375298652798,,,,,,,,,,,,,,,,,,,353,2023-11-21_09h02.42.370,leap3,2022.2.5,59.99253916206938,
,,,,,,,,,,,,,,,,,,,,9,0,9,0,27,0,27,0,,,,,,accessory,w,g,lower,,,,,,,1,nw,HiDemTar,g,1,0.5420806296169758,,,,,,,,,,,,,,,,,,,353,2023-11-21_09h02.42.370,leap3,2022.2.5,59.99253916206938,
,,,,,,,,,,,,,,,,,,,,9,0,9,0,28,0,28,0,,,,,,virulent,w,g,lower,,,,,,,1,w,HiDemTar,h,0,0.605735323857516,,,,,,,,,,,,,,,,,,,353,2023-11-21_09h02.42.370,leap3,2022.2.5,59.99253916206938,
,,,,,,,,,,,,,,,,,,,,9,0,9,0,29,0,29,0,,,,,,dorte,nw,h,lower,,,,,,,1,w,HiDemTar,h,1,0.5145418342435732,,,,,,,,,,,,,,,,,,,353,2023-11-21_09h02.42.370,leap3,2022.2.5,59.99253916206938,
,,,,,,,,,,,,,,,,,,,,9,0,9,0,,,,,,,,,,,,,,,,,,,,,,,,,,1,,,,,,,,,,,,,,,,,,353,2023-11-21_09h02.42.370,leap3,2022.2.5,59.99253916206938,
,,,,,,,,,,,,,,,,,,,,10,0,10,0,0,0,0,0,,,,,,checkout,w,g,upper,,,,,,,3,w,LoDemNoTar,g,1,0.6059734845766798,,,,,,,,,,,,,,,,,,,353,2023-11-21_09h02.42.370,leap3,2022.2.5,59.99253916206938,
,,,,,,,,,,,,,,,,,,,,10,0,10,0,1,0,1,0,,,,,,zears,nw,h,upper,,,,,,,3,nw,LoDemNoTar,g,0,0.4911586248781532,,,,,,,,,,,,,,,,,,,353,2023-11-21_09h02.42.370,leap3,2022.2.5,59.99253916206938,
,,,,,,,,,,,,,,,,,,,,10,0,10,0,2,0,2,0,,,,,,living,w,g,upper,,,,,,,3,w,LoDemNoTar,g,1,0.6147320005111396,,,,,,,,,,,,,,,,,,,353,2023-11-21_09h02.42.370,leap3,2022.2.5,59.99253916206938,
,,,,,,,,,,,,,,,,,,,,10,0,10,0,3,0,3,0,,,,,,tinker,w,g,upper,,,,,,,3,w,LoDemNoTar,g,1,0.8356566312722862,,,,,,,,,,,,,,,,,,,353,2023-11-21_09h02.42.370,leap3,2022.2.5,59.99253916206938,
,,,,,,,,,,,,,,,,,,,,10,0,10,0,4,0,4,0,,,,,,remover,w,g,upper,,,,,,,3,w,LoDemNoTar,g,1,0.5371172894956544,,,,,,,,,,,,,,,,,,,353,2023-11-21_09h02.42.370,leap3,2022.2.5,59.99253916206938,
,,,,,,,,,,,,,,,,,,,,10,0,10,0,5,0,5,0,,,,,,twarfs,nw,h,upper,,,,,,,3,nw,LoDemNoTar,h,1,0.5618108349153772,,,,,,,,,,,,,,,,,,,353,2023-11-21_09h02.42.370,leap3,2022.2.5,59.99253916206938,
,,,,,,,,,,,,,,,,,,,,10,0,10,0,6,0,6,0,,,,,,spiud,nw,h,upper,,,,,,,3,nw,LoDemNoTar,h,1,0.65779832622502,,,,,,,,,,,,,,,,,,,353,2023-11-21_09h02.42.370,leap3,2022.2.5,59.99253916206938,
,,,,,,,,,,,,,,,,,,,,10,0,10,0,7,0,7,0,,,,,,vintnel,nw,h,upper,,,,,,,3,nw,LoDemNoTar,h,1,0.405808070092462,,,,,,,,,,,,,,,,,,,353,2023-11-21_09h02.42.370,leap3,2022.2.5,59.99253916206938,
,,,,,,,,,,,,,,,,,,,,10,0,10,0,8,0,8,0,,,,,,vinegar,w,g,upper,,,,,,,3,w,LoDemNoTar,g,1,0.6358800011221319,,,,,,,,,,,,,,,,,,,353,2023-11-21_09h02.42.370,leap3,2022.2.5,59.99253916206938,
,,,,,,,,,,,,,,,,,,,,10,0,10,0,9,0,9,0,,,,,,ralliep,nw,h,upper,,,,,,,3,nw,LoDemNoTar,h,1,0.5366113866912201,,,,,,,,,,,,,,,,,,,353,2023-11-21_09h02.42.370,leap3,2022.2.5,59.99253916206938,
,,,,,,,,,,,,,,,,,,,,10,0,10,0,10,0,10,0,,,,,,schinter,nw,h,upper,,,,,,,3,nw,LoDemNoTar,h,1,0.49737404414918274,,,,,,,,,,,,,,,,,,,353,2023-11-21_09h02.42.370,leap3,2022.2.5,59.99253916206938,
,,,,,,,,,,,,,,,,,,,,10,0,10,0,11,0,11,0,,,,,,infested,w,g,upper,,,,,,,3,w,LoDemNoTar,g,1,0.5950685042189434,,,,,,,,,,,,,,,,,,,353,2023-11-21_09h02.42.370,leap3,2022.2.5,59.99253916206938,
,,,,,,,,,,,,,,,,,,,,10,0,10,0,12,0,12,0,,,,,,maintain,w,g,upper,,,,,,,3,w,LoDemNoTar,g,1,0.5146924579748884,,,,,,,,,,,,,,,,,,,353,2023-11-21_09h02.42.370,leap3,2022.2.5,59.99253916206938,
,,,,,,,,,,,,,,,,,,,,10,0,10,0,13,0,13,0,,,,,,neuran,nw,h,upper,,,,,,,3,nw,LoDemNoTar,h,1,0.6117029230808839,,,,,,,,,,,,,,,,,,,353,2023-11-21_09h02.42.370,leap3,2022.2.5,59.99253916206938,
,,,,,,,,,,,,,,,,,,,,10,0,10,0,14,0,14,0,,,,,,crimb,nw,h,upper,,,,,,,3,nw,LoDemNoTar,h,1,0.7858140466269106,,,,,,,,,,,,,,,,,,,353,2023-11-21_09h02.42.370,leap3,2022.2.5,59.99253916206938,
,,,,,,,,,,,,,,,,,,,,10,0,10,0,15,0,15,0,,,,,,ottans,nw,h,upper,,,,,,,3,nw,LoDemNoTar,h,1,0.5284134085522965,,,,,,,,,,,,,,,,,,,353,2023-11-21_09h02.42.370,leap3,2022.2.5,59.99253916206938,
,,,,,,,,,,,,,,,,,,,,10,0,10,0,16,0,16,0,,,,,,fuestion,nw,h,upper,,,,,,,3,nw,LoDemNoTar,h,1,0.57783823099453,,,,,,,,,,,,,,,,,,,353,2023-11-21_09h02.42.370,leap3,2022.2.5,59.99253916206938,
,,,,,,,,,,,,,,,,,,,,10,0,10,0,17,0,17,0,,,,,,expired,w,g,upper,,,,,,,3,w,LoDemNoTar,g,1,0.617260004626587,,,,,,,,,,,,,,,,,,,353,2023-11-21_09h02.42.370,leap3,2022.2.5,59.99253916206938,
,,,,,,,,,,,,,,,,,,,,10,0,10,0,18,0,18,0,,,,,,snorls,nw,h,upper,,,,,,,3,nw,LoDemNoTar,h,1,0.5033187026856467,,,,,,,,,,,,,,,,,,,353,2023-11-21_09h02.42.370,leap3,2022.2.5,59.99253916206938,
,,,,,,,,,,,,,,,,,,,,10,0,10,0,19,0,19,0,,,,,,advantage,w,g,upper,,,,,,,3,w,LoDemNoTar,g,1,0.5853504030965269,,,,,,,,,,,,,,,,,,,353,2023-11-21_09h02.42.370,leap3,2022.2.5,59.99253916206938,
,,,,,,,,,,,,,,,,,,,,10,0,10,0,20,0,20,0,,,,,,reason,w,g,upper,,,,,,,3,w,LoDemNoTar,g,1,0.6005866470513865,,,,,,,,,,,,,,,,,,,353,2023-11-21_09h02.42.370,leap3,2022.2.5,59.99253916206938,
,,,,,,,,,,,,,,,,,,,,10,0,10,0,21,0,21,0,,,,,,redefloy,nw,h,upper,,,,,,,3,nw,LoDemNoTar,h,1,0.5353481392376125,,,,,,,,,,,,,,,,,,,353,2023-11-21_09h02.42.370,leap3,2022.2.5,59.99253916206938,
,,,,,,,,,,,,,,,,,,,,10,0,10,0,22,0,22,0,,,,,,stretches,w,g,upper,,,,,,,3,w,LoDemNoTar,g,1,0.5118315117433667,,,,,,,,,,,,,,,,,,,353,2023-11-21_09h02.42.370,leap3,2022.2.5,59.99253916206938,
,,,,,,,,,,,,,,,,,,,,10,0,10,0,23,0,23,0,,,,,,rasuals,nw,h,upper,,,,,,,3,nw,LoDemNoTar,h,1,0.6406697768252343,,,,,,,,,,,,,,,,,,,353,2023-11-21_09h02.42.370,leap3,2022.2.5,59.99253916206938,
,,,,,,,,,,,,,,,,,,,,10,0,10,0,24,0,24,0,,,,,,dominion,w,g,upper,,,,,,,3,w,LoDemNoTar,h,0,0.6695080419303849,,,,,,,,,,,,,,,,,,,353,2023-11-21_09h02.42.370,leap3,2022.2.5,59.99253916206938,
,,,,,,,,,,,,,,,,,,,,10,0,10,0,25,0,25,0,,,,,,brank,nw,h,upper,,,,,,,3,nw,LoDemNoTar,g,0,0.6734414655948058,,,,,,,,,,,,,,,,,,,353,2023-11-21_09h02.42.370,leap3,2022.2.5,59.99253916206938,
,,,,,,,,,,,,,,,,,,,,10,0,10,0,26,0,26,0,,,,,,frunted,nw,h,upper,,,,,,,3,nw,LoDemNoTar,h,1,0.7888887034496292,,,,,,,,,,,,,,,,,,,353,2023-11-21_09h02.42.370,leap3,2022.2.5,59.99253916206938,
,,,,,,,,,,,,,,,,,,,,10,0,10,0,27,0,27,0,,,,,,issue,w,g,upper,,,,,,,3,w,LoDemNoTar,g,1,0.5714217788772658,,,,,,,,,,,,,,,,,,,353,2023-11-21_09h02.42.370,leap3,2022.2.5,59.99253916206938,
,,,,,,,,,,,,,,,,,,,,10,0,10,0,28,0,28,0,,,,,,mopping,w,g,upper,,,,,,,3,w,LoDemNoTar,g,1,1.130680613219738,,,,,,,,,,,,,,,,,,,353,2023-11-21_09h02.42.370,leap3,2022.2.5,59.99253916206938,
,,,,,,,,,,,,,,,,,,,,10,0,10,0,29,0,29,0,,,,,,staircase,w,g,upper,,,,,,,3,w,LoDemNoTar,g,1,0.5157534651225433,,,,,,,,,,,,,,,,,,,353,2023-11-21_09h02.42.370,leap3,2022.2.5,59.99253916206938,
,,,,,,,,,,,,,,,,,,,,10,0,10,0,,,,,,,,,,,,,,,,,,,,,,,,,,NA,,,,,,,,,,,,,,,,,,353,2023-11-21_09h02.42.370,leap3,2022.2.5,59.99253916206938,
,,,,,,,,,,,,,,,,,,,,11,0,11,0,0,0,0,0,,,,,,roaned,nw,h,upper,,,,,,,3,nw,LoDemNoTar,h,1,0.6295429358724505,,,,,,,,,,,,,,,,,,,353,2023-11-21_09h02.42.370,leap3,2022.2.5,59.99253916206938,
,,,,,,,,,,,,,,,,,,,,11,0,11,0,1,0,1,0,,,,,,grested,nw,h,upper,,,,,,,3,nw,LoDemNoTar,h,1,0.5548957246355712,,,,,,,,,,,,,,,,,,,353,2023-11-21_09h02.42.370,leap3,2022.2.5,59.99253916206938,
,,,,,,,,,,,,,,,,,,,,11,0,11,0,2,0,2,0,,,,,,overcoat,w,g,upper,,,,,,,3,w,LoDemNoTar,g,1,0.5627423479454592,,,,,,,,,,,,,,,,,,,353,2023-11-21_09h02.42.370,leap3,2022.2.5,59.99253916206938,
,,,,,,,,,,,,,,,,,,,,11,0,11,0,3,0,3,0,,,,,,galashes,nw,h,upper,,,,,,,3,nw,LoDemNoTar,h,1,0.6505834775744006,,,,,,,,,,,,,,,,,,,353,2023-11-21_09h02.42.370,leap3,2022.2.5,59.99253916206938,
,,,,,,,,,,,,,,,,,,,,11,0,11,0,4,0,4,0,,,,,,showdown,w,g,upper,,,,,,,3,w,LoDemNoTar,g,1,0.5431742367800325,,,,,,,,,,,,,,,,,,,353,2023-11-21_09h02.42.370,leap3,2022.2.5,59.99253916206938,
,,,,,,,,,,,,,,,,,,,,11,0,11,0,5,0,5,0,,,,,,purpose,w,g,upper,,,,,,,3,w,LoDemNoTar,g,1,0.5028792072553188,,,,,,,,,,,,,,,,,,,353,2023-11-21_09h02.42.370,leap3,2022.2.5,59.99253916206938,
,,,,,,,,,,,,,,,,,,,,11,0,11,0,6,0,6,0,,,,,,loneliest,w,g,upper,,,,,,,3,w,LoDemNoTar,g,1,0.5928163920762017,,,,,,,,,,,,,,,,,,,353,2023-11-21_09h02.42.370,leap3,2022.2.5,59.99253916206938,
,,,,,,,,,,,,,,,,,,,,11,0,11,0,7,0,7,0,,,,,,vaporize,w,g,upper,,,,,,,3,w,LoDemNoTar,g,1,0.4954032573150471,,,,,,,,,,,,,,,,,,,353,2023-11-21_09h02.42.370,leap3,2022.2.5,59.99253916206938,
,,,,,,,,,,,,,,,,,,,,11,0,11,0,8,0,8,0,,,,,,nauling,nw,h,upper,,,,,,,3,nw,LoDemNoTar,h,1,0.5460596329066902,,,,,,,,,,,,,,,,,,,353,2023-11-21_09h02.42.370,leap3,2022.2.5,59.99253916206938,
,,,,,,,,,,,,,,,,,,,,11,0,11,0,9,0,9,0,,,,,,ebuating,nw,h,upper,,,,,,,3,nw,LoDemNoTar,h,1,0.6027457889867947,,,,,,,,,,,,,,,,,,,353,2023-11-21_09h02.42.370,leap3,2022.2.5,59.99253916206938,
,,,,,,,,,,,,,,,,,,,,11,0,11,0,10,0,10,0,,,,,,dileting,nw,h,upper,,,,,,,3,nw,LoDemNoTar,h,1,0.40871459571644664,,,,,,,,,,,,,,,,,,,353,2023-11-21_09h02.42.370,leap3,2022.2.5,59.99253916206938,
,,,,,,,,,,,,,,,,,,,,11,0,11,0,11,0,11,0,,,,,,ghists,nw,h,upper,,,,,,,3,nw,LoDemNoTar,h,1,0.4387210251297802,,,,,,,,,,,,,,,,,,,353,2023-11-21_09h02.42.370,leap3,2022.2.5,59.99253916206938,
,,,,,,,,,,,,,,,,,,,,11,0,11,0,12,0,12,0,,,,,,plunging,w,g,upper,,,,,,,3,w,LoDemNoTar,g,1,0.5234527850989252,,,,,,,,,,,,,,,,,,,353,2023-11-21_09h02.42.370,leap3,2022.2.5,59.99253916206938,
,,,,,,,,,,,,,,,,,,,,11,0,11,0,13,0,13,0,,,,,,sonnet,w,g,upper,,,,,,,3,w,LoDemNoTar,g,1,0.6916971276514232,,,,,,,,,,,,,,,,,,,353,2023-11-21_09h02.42.370,leap3,2022.2.5,59.99253916206938,
,,,,,,,,,,,,,,,,,,,,11,0,11,0,14,0,14,0,,,,,,bypassed,w,g,upper,,,,,,,3,w,LoDemNoTar,g,1,0.7105045737698674,,,,,,,,,,,,,,,,,,,353,2023-11-21_09h02.42.370,leap3,2022.2.5,59.99253916206938,
,,,,,,,,,,,,,,,,,,,,11,0,11,0,15,0,15,0,,,,,,glocked,nw,h,upper,,,,,,,3,nw,LoDemNoTar,h,1,1.009202991030179,,,,,,,,,,,,,,,,,,,353,2023-11-21_09h02.42.370,leap3,2022.2.5,59.99253916206938,
,,,,,,,,,,,,,,,,,,,,11,0,11,0,16,0,16,0,,,,,,require,w,g,upper,,,,,,,3,w,LoDemNoTar,g,1,0.5025743375299498,,,,,,,,,,,,,,,,,,,353,2023-11-21_09h02.42.370,leap3,2022.2.5,59.99253916206938,
,,,,,,,,,,,,,,,,,,,,11,0,11,0,17,0,17,0,,,,,,ireology,nw,h,upper,,,,,,,3,nw,LoDemNoTar,h,1,0.6251932594459504,,,,,,,,,,,,,,,,,,,353,2023-11-21_09h02.42.370,leap3,2022.2.5,59.99253916206938,
,,,,,,,,,,,,,,,,,,,,11,0,11,0,18,0,18,0,,,,,,dazid,nw,h,upper,,,,,,,3,nw,LoDemNoTar,g,0,0.4865674674510956,,,,,,,,,,,,,,,,,,,353,2023-11-21_09h02.42.370,leap3,2022.2.5,59.99253916206938,
,,,,,,,,,,,,,,,,,,,,11,0,11,0,19,0,19,0,,,,,,retain,w,g,upper,,,,,,,3,w,LoDemNoTar,g,1,0.5692028702469543,,,,,,,,,,,,,,,,,,,353,2023-11-21_09h02.42.370,leap3,2022.2.5,59.99253916206938,
,,,,,,,,,,,,,,,,,,,,11,0,11,0,20,0,20,0,,,,,,emission,w,g,upper,,,,,,,3,w,LoDemNoTar,g,1,0.6253118868917227,,,,,,,,,,,,,,,,,,,353,2023-11-21_09h02.42.370,leap3,2022.2.5,59.99253916206938,
,,,,,,,,,,,,,,,,,,,,11,0,11,0,21,0,21,0,,,,,,army,w,g,upper,,,,,,,3,w,LoDemNoTar,g,1,0.5585783099522814,,,,,,,,,,,,,,,,,,,353,2023-11-21_09h02.42.370,leap3,2022.2.5,59.99253916206938,
,,,,,,,,,,,,,,,,,,,,11,0,11,0,22,0,22,0,,,,,,pakened,nw,h,upper,,,,,,,3,nw,LoDemNoTar,h,1,0.63074400217738,,,,,,,,,,,,,,,,,,,353,2023-11-21_09h02.42.370,leap3,2022.2.5,59.99253916206938,
,,,,,,,,,,,,,,,,,,,,11,0,11,0,23,0,23,0,,,,,,dentures,w,g,upper,,,,,,,3,w,LoDemNoTar,g,1,0.7480358530301601,,,,,,,,,,,,,,,,,,,353,2023-11-21_09h02.42.370,leap3,2022.2.5,59.99253916206938,
,,,,,,,,,,,,,,,,,,,,11,0,11,0,24,0,24,0,,,,,,volder,nw,h,upper,,,,,,,3,nw,LoDemNoTar,h,1,0.6127675524912775,,,,,,,,,,,,,,,,,,,353,2023-11-21_09h02.42.370,leap3,2022.2.5,59.99253916206938,
,,,,,,,,,,,,,,,,,,,,11,0,11,0,25,0,25,0,,,,,,tharcely,nw,h,upper,,,,,,,3,nw,LoDemNoTar,h,1,0.47469837428070605,,,,,,,,,,,,,,,,,,,353,2023-11-21_09h02.42.370,leap3,2022.2.5,59.99253916206938,
,,,,,,,,,,,,,,,,,,,,11,0,11,0,26,0,26,0,,,,,,seartfelt,nw,h,upper,,,,,,,3,nw,LoDemNoTar,h,1,0.8610441327327862,,,,,,,,,,,,,,,,,,,353,2023-11-21_09h02.42.370,leap3,2022.2.5,59.99253916206938,
,,,,,,,,,,,,,,,,,,,,11,0,11,0,27,0,27,0,,,,,,release,w,g,upper,,,,,,,3,w,LoDemNoTar,g,1,0.649777534767054,,,,,,,,,,,,,,,,,,,353,2023-11-21_09h02.42.370,leap3,2022.2.5,59.99253916206938,
,,,,,,,,,,,,,,,,,,,,11,0,11,0,28,0,28,0,,,,,,sliding,w,g,upper,,,,,,,3,w,LoDemNoTar,g,1,0.5425294823944569,,,,,,,,,,,,,,,,,,,353,2023-11-21_09h02.42.370,leap3,2022.2.5,59.99253916206938,
,,,,,,,,,,,,,,,,,,,,11,0,11,0,29,0,29,0,,,,,,ebciting,nw,h,upper,,,,,,,3,nw,LoDemNoTar,h,1,0.5592354401014745,,,,,,,,,,,,,,,,,,,353,2023-11-21_09h02.42.370,leap3,2022.2.5,59.99253916206938,
,,,,,,,,,,,,,,,,,,,,11,0,11,0,,,,,,,,,,,,,,,,,,,,,,,,,,NA,,,,,,,,,,,,,,,,,,353,2023-11-21_09h02.42.370,leap3,2022.2.5,59.99253916206938,
,,,,,,,,,,,,,,,,,,,,12,0,12,0,0,0,0,0,,,,,,contusiok,nw,h,lower,,,,,,,1,nw,HiDemTar,h,1,0.560131334583275,,,,,,,,,,,,,,,,,,,353,2023-11-21_09h02.42.370,leap3,2022.2.5,59.99253916206938,
,,,,,,,,,,,,,,,,,,,,12,0,12,0,1,0,1,0,,,,,,practice,w,g,lower,,,,,,,1,w,HiDemTar,g,1,0.4232143226545304,,,,,,,,,,,,,,,,,,,353,2023-11-21_09h02.42.370,leap3,2022.2.5,59.99253916206938,
,,,,,,,,,,,,,,,,,,,,12,0,12,0,2,0,2,0,,,,,,hindsight,w,g,lower,,,,,,,1,w,HiDemTar,g,1,0.6845456677256152,,,,,,,,,,,,,,,,,,,353,2023-11-21_09h02.42.370,leap3,2022.2.5,59.99253916206938,
,,,,,,,,,,,,,,,,,,,,12,0,12,0,3,0,3,0,,,,,,daining,nw,h,lower,,,,,,,1,nw,HiDemTar,h,1,0.639919072855264,,,,,,,,,,,,,,,,,,,353,2023-11-21_09h02.42.370,leap3,2022.2.5,59.99253916206938,
,,,,,,,,,,,,,,,,,,,,12,0,12,0,4,0,4,0,,,,,,sopes,nw,h,lower,,,,,,,1,nw,HiDemTar,h,1,0.5485351149691269,,,,,,,,,,,,,,,,,,,353,2023-11-21_09h02.42.370,leap3,2022.2.5,59.99253916206938,
,,,,,,,,,,,,,,,,,,,,12,0,12,0,5,0,5,0,,,,,,observer,w,g,lower,,,,,,,1,w,HiDemTar,g,1,0.5560394389322028,,,,,,,,,,,,,,,,,,,353,2023-11-21_09h02.42.370,leap3,2022.2.5,59.99253916206938,
,,,,,,,,,,,,,,,,,,,,12,0,12,0,6,0,6,0,,,,,,sporidic,nw,h,lower,,,,,,,1,nw,HiDemTar,h,1,0.6040983845014125,,,,,,,,,,,,,,,,,,,353,2023-11-21_09h02.42.370,leap3,2022.2.5,59.99253916206938,
,,,,,,,,,,,,,,,,,,,,12,0,12,0,7,0,7,0,,,,,,whirlpool,w,g,lower,,,,,,,1,w,HiDemTar,g,1,0.6425904564093798,,,,,,,,,,,,,,,,,,,353,2023-11-21_09h02.42.370,leap3,2022.2.5,59.99253916206938,
,,,,,,,,,,,,,,,,,,,,12,0,12,0,8,0,8,0,,,,,,sooled,nw,h,lower,,,,,,,1,nw,HiDemTar,h,1,0.719924445846118,,,,,,,,,,,,,,,,,,,353,2023-11-21_09h02.42.370,leap3,2022.2.5,59.99253916206938,
,,,,,,,,,,,,,,,,,,,,12,0,12,0,9,0,9,0,,,,,,shillac,nw,h,lower,,,,,,,1,nw,HiDemTar,h,1,0.6165150358574465,,,,,,,,,,,,,,,,,,,353,2023-11-21_09h02.42.370,leap3,2022.2.5,59.99253916206938,
,,,,,,,,,,,,,,,,,,,,12,0,12,0,10,0,10,0,,,,,,horks,nw,h,lower,,,,,,,1,nw,HiDemTar,h,1,0.5745030764956027,,,,,,,,,,,,,,,,,,,353,2023-11-21_09h02.42.370,leap3,2022.2.5,59.99253916206938,
,,,,,,,,,,,,,,,,,,,,12,0,12,0,11,0,11,0,,,,,,figure,w,g,lower,,,,,,,1,w,HiDemTar,g,1,0.6137660765089095,,,,,,,,,,,,,,,,,,,353,2023-11-21_09h02.42.370,leap3,2022.2.5,59.99253916206938,
,,,,,,,,,,,,,,,,,,,,12,0,12,0,12,0,12,0,,,,,,jaguar,target,q,lower,,,,,,,1,target,HiDemTar,g,0,0.7797761161345989,,1,1,,,,,,,,,,,,,,,,353,2023-11-21_09h02.42.370,leap3,2022.2.5,59.99253916206938,
,,,,,,,,,,,,,,,,,,,,12,0,12,0,13,0,13,0,,,,,,dumult,nw,h,lower,,,,,,,1,aftertar1,HiDemTar,g,0,1.2431531071197242,,,,,,,,,,,,,,,,,,,353,2023-11-21_09h02.42.370,leap3,2022.2.5,59.99253916206938,
,,,,,,,,,,,,,,,,,,,,12,0,12,0,14,0,14,0,,,,,,resent,w,g,lower,,,,,,,1,aftertar2,HiDemTar,g,1,0.711964326328598,,,,,,,,,,,,,,,,,,,353,2023-11-21_09h02.42.370,leap3,2022.2.5,59.99253916206938,
,,,,,,,,,,,,,,,,,,,,12,0,12,0,15,0,15,0,,,,,,earterner,nw,h,lower,,,,,,,1,aftertar3,HiDemTar,h,1,0.825954528292641,,,,,,,,,,,,,,,,,,,353,2023-11-21_09h02.42.370,leap3,2022.2.5,59.99253916206938,
,,,,,,,,,,,,,,,,,,,,12,0,12,0,16,0,16,0,,,,,,rootsie,nw,h,lower,,,,,,,1,nw,HiDemTar,h,1,0.6073731688084081,,,,,,,,,,,,,,,,,,,353,2023-11-21_09h02.42.370,leap3,2022.2.5,59.99253916206938,
,,,,,,,,,,,,,,,,,,,,12,0,12,0,17,0,17,0,,,,,,catgup,nw,h,lower,,,,,,,1,nw,HiDemTar,h,1,0.6853576475987211,,,,,,,,,,,,,,,,,,,353,2023-11-21_09h02.42.370,leap3,2022.2.5,59.99253916206938,
,,,,,,,,,,,,,,,,,,,,12,0,12,0,18,0,18,0,,,,,,summon,w,g,lower,,,,,,,1,nw,HiDemTar,h,0,0.6005377471446991,,,,,,,,,,,,,,,,,,,353,2023-11-21_09h02.42.370,leap3,2022.2.5,59.99253916206938,
,,,,,,,,,,,,,,,,,,,,12,0,12,0,19,0,19,0,,,,,,huests,nw,h,lower,,,,,,,1,w,HiDemTar,h,1,0.7177930740872398,,,,,,,,,,,,,,,,,,,353,2023-11-21_09h02.42.370,leap3,2022.2.5,59.99253916206938,
,,,,,,,,,,,,,,,,,,,,12,0,12,0,20,0,20,0,,,,,,houted,nw,h,lower,,,,,,,1,nw,HiDemTar,h,1,0.6228856064844877,,,,,,,,,,,,,,,,,,,353,2023-11-21_09h02.42.370,leap3,2022.2.5,59.99253916206938,
,,,,,,,,,,,,,,,,,,,,12,0,12,0,21,0,21,0,,,,,,collision,w,g,lower,,,,,,,1,nw,HiDemTar,g,1,0.6123760514892638,,,,,,,,,,,,,,,,,,,353,2023-11-21_09h02.42.370,leap3,2022.2.5,59.99253916206938,
,,,,,,,,,,,,,,,,,,,,12,0,12,0,22,0,22,0,,,,,,diatonic,w,g,lower,,,,,,,1,w,HiDemTar,h,0,0.6664370072539896,,,,,,,,,,,,,,,,,,,353,2023-11-21_09h02.42.370,leap3,2022.2.5,59.99253916206938,
,,,,,,,,,,,,,,,,,,,,12,0,12,0,23,0,23,0,,,,,,latter,w,g,lower,,,,,,,1,w,HiDemTar,g,1,0.9184067376190796,,,,,,,,,,,,,,,,,,,353,2023-11-21_09h02.42.370,leap3,2022.2.5,59.99253916206938,
,,,,,,,,,,,,,,,,,,,,12,0,12,0,24,0,24,0,,,,,,corduroy,w,g,lower,,,,,,,1,w,HiDemTar,h,0,0.7443215732928365,,,,,,,,,,,,,,,,,,,353,2023-11-21_09h02.42.370,leap3,2022.2.5,59.99253916206938,
,,,,,,,,,,,,,,,,,,,,12,0,12,0,25,0,25,0,,,,,,cookbook,w,g,lower,,,,,,,1,w,HiDemTar,g,1,0.6089684525504708,,,,,,,,,,,,,,,,,,,353,2023-11-21_09h02.42.370,leap3,2022.2.5,59.99253916206938,
,,,,,,,,,,,,,,,,,,,,12,0,12,0,26,0,26,0,,,,,,decant,w,g,lower,,,,,,,1,w,HiDemTar,h,0,1.070180868380703,,,,,,,,,,,,,,,,,,,353,2023-11-21_09h02.42.370,leap3,2022.2.5,59.99253916206938,
,,,,,,,,,,,,,,,,,,,,12,0,12,0,27,0,27,0,,,,,,gradielts,nw,h,lower,,,,,,,1,w,HiDemTar,h,1,0.9784684963524342,,,,,,,,,,,,,,,,,,,353,2023-11-21_09h02.42.370,leap3,2022.2.5,59.99253916206938,
,,,,,,,,,,,,,,,,,,,,12,0,12,0,28,0,28,0,,,,,,enacted,w,g,lower,,,,,,,1,nw,HiDemTar,g,1,0.7767147405538708,,,,,,,,,,,,,,,,,,,353,2023-11-21_09h02.42.370,leap3,2022.2.5,59.99253916206938,
,,,,,,,,,,,,,,,,,,,,12,0,12,0,29,0,29,0,,,,,,become,w,g,lower,,,,,,,1,w,HiDemTar,g,1,0.5041170993354172,,,,,,,,,,,,,,,,,,,353,2023-11-21_09h02.42.370,leap3,2022.2.5,59.99253916206938,
,,,,,,,,,,,,,,,,,,,,12,0,12,0,,,,,,,,,,,,,,,,,,,,,,,,,,1,,,,,,,,,,,,,,,,,,353,2023-11-21_09h02.42.370,leap3,2022.2.5,59.99253916206938,
,,,,,,,,,,,,,,,,,,,,13,0,13,0,0,0,0,0,,,,,,arrive,w,g,upper,,,,,,,3,w,LoDemNoTar,g,1,0.5382193484110758,,,,,,,,,,,,,,,,,,,353,2023-11-21_09h02.42.370,leap3,2022.2.5,59.99253916206938,
,,,,,,,,,,,,,,,,,,,,13,0,13,0,1,0,1,0,,,,,,baults,nw,h,upper,,,,,,,3,nw,LoDemNoTar,h,1,0.6028822258813307,,,,,,,,,,,,,,,,,,,353,2023-11-21_09h02.42.370,leap3,2022.2.5,59.99253916206938,
,,,,,,,,,,,,,,,,,,,,13,0,13,0,2,0,2,0,,,,,,theery,nw,h,upper,,,,,,,3,nw,LoDemNoTar,h,1,0.6250148653052747,,,,,,,,,,,,,,,,,,,353,2023-11-21_09h02.42.370,leap3,2022.2.5,59.99253916206938,
,,,,,,,,,,,,,,,,,,,,13,0,13,0,3,0,3,0,,,,,,penalize,w,g,upper,,,,,,,3,w,LoDemNoTar,g,1,0.5173270157538354,,,,,,,,,,,,,,,,,,,353,2023-11-21_09h02.42.370,leap3,2022.2.5,59.99253916206938,
,,,,,,,,,,,,,,,,,,,,13,0,13,0,4,0,4,0,,,,,,fudden,nw,h,upper,,,,,,,3,nw,LoDemNoTar,h,1,0.9026866261847317,,,,,,,,,,,,,,,,,,,353,2023-11-21_09h02.42.370,leap3,2022.2.5,59.99253916206938,
,,,,,,,,,,,,,,,,,,,,13,0,13,0,5,0,5,0,,,,,,renown,w,g,upper,,,,,,,3,w,LoDemNoTar,g,1,0.5926826719660312,,,,,,,,,,,,,,,,,,,353,2023-11-21_09h02.42.370,leap3,2022.2.5,59.99253916206938,
,,,,,,,,,,,,,,,,,,,,13,0,13,0,6,0,6,0,,,,,,charcoal,w,g,upper,,,,,,,3,w,LoDemNoTar,g,1,0.5114732143701985,,,,,,,,,,,,,,,,,,,353,2023-11-21_09h02.42.370,leap3,2022.2.5,59.99253916206938,
,,,,,,,,,,,,,,,,,,,,13,0,13,0,7,0,7,0,,,,,,dialogues,w,g,upper,,,,,,,3,w,LoDemNoTar,h,0,0.5935052166460082,,,,,,,,,,,,,,,,,,,353,2023-11-21_09h02.42.370,leap3,2022.2.5,59.99253916206938,
,,,,,,,,,,,,,,,,,,,,13,0,13,0,8,0,8,0,,,,,,organize,w,g,upper,,,,,,,3,w,LoDemNoTar,g,1,0.5521446522325277,,,,,,,,,,,,,,,,,,,353,2023-11-21_09h02.42.370,leap3,2022.2.5,59.99253916206938,
,,,,,,,,,,,,,,,,,,,,13,0,13,0,9,0,9,0,,,,,,forfeit,w,g,upper,,,,,,,3,w,LoDemNoTar,g,1,0.6481623286381364,,,,,,,,,,,,,,,,,,,353,2023-11-21_09h02.42.370,leap3,2022.2.5,59.99253916206938,
,,,,,,,,,,,,,,,,,,,,13,0,13,0,10,0,10,0,,,,,,ufionize,nw,h,upper,,,,,,,3,nw,LoDemNoTar,h,1,0.6600492311408743,,,,,,,,,,,,,,,,,,,353,2023-11-21_09h02.42.370,leap3,2022.2.5,59.99253916206938,
,,,,,,,,,,,,,,,,,,,,13,0,13,0,11,0,11,0,,,,,,burrowing,w,g,upper,,,,,,,3,w,LoDemNoTar,g,1,0.5519632396753877,,,,,,,,,,,,,,,,,,,353,2023-11-21_09h02.42.370,leap3,2022.2.5,59.99253916206938,
,,,,,,,,,,,,,,,,,,,,13,0,13,0,12,0,12,0,,,,,,elpousal,nw,h,upper,,,,,,,3,nw,LoDemNoTar,h,1,0.7839860355015844,,,,,,,,,,,,,,,,,,,353,2023-11-21_09h02.42.370,leap3,2022.2.5,59.99253916206938,
,,,,,,,,,,,,,,,,,,,,13,0,13,0,13,0,13,0,,,,,,fallacy,w,g,upper,,,,,,,3,w,LoDemNoTar,g,1,0.518632220569998,,,,,,,,,,,,,,,,,,,353,2023-11-21_09h02.42.370,leap3,2022.2.5,59.99253916206938,
,,,,,,,,,,,,,,,,,,,,13,0,13,0,14,0,14,0,,,,,,fetching,w,g,upper,,,,,,,3,w,LoDemNoTar,h,0,0.7680211226688698,,,,,,,,,,,,,,,,,,,353,2023-11-21_09h02.42.370,leap3,2022.2.5,59.99253916206938,
,,,,,,,,,,,,,,,,,,,,13,0,13,0,15,0,15,0,,,,,,derisury,nw,h,upper,,,,,,,3,nw,LoDemNoTar,h,1,0.7194001300958917,,,,,,,,,,,,,,,,,,,353,2023-11-21_09h02.42.370,leap3,2022.2.5,59.99253916206938,
,,,,,,,,,,,,,,,,,,,,13,0,13,0,16,0,16,0,,,,,,gumdrep,nw,h,upper,,,,,,,3,nw,LoDemNoTar,h,1,0.6487889719428495,,,,,,,,,,,,,,,,,,,353,2023-11-21_09h02.42.370,leap3,2022.2.5,59.99253916206938,
,,,,,,,,,,,,,,,,,,,,13,0,13,0,17,0,17,0,,,,,,enunciate,w,g,upper,,,,,,,3,w,LoDemNoTar,g,1,0.6135085973655805,,,,,,,,,,,,,,,,,,,353,2023-11-21_09h02.42.370,leap3,2022.2.5,59.99253916206938,
,,,,,,,,,,,,,,,,,,,,13,0,13,0,18,0,18,0,,,,,,mandlers,nw,h,upper,,,,,,,3,nw,LoDemNoTar,h,1,0.691453231847845,,,,,,,,,,,,,,,,,,,353,2023-11-21_09h02.42.370,leap3,2022.2.5,59.99253916206938,
,,,,,,,,,,,,,,,,,,,,13,0,13,0,19,0,19,0,,,,,,pastnoss,nw,h,upper,,,,,,,3,nw,LoDemNoTar,h,1,0.5263064868049696,,,,,,,,,,,,,,,,,,,353,2023-11-21_09h02.42.370,leap3,2022.2.5,59.99253916206938,
,,,,,,,,,,,,,,,,,,,,13,0,13,0,20,0,20,0,,,,,,pripend,nw,h,upper,,,,,,,3,nw,LoDemNoTar,h,1,0.5746352872811258,,,,,,,,,,,,,,,,,,,353,2023-11-21_09h02.42.370,leap3,2022.2.5,59.99253916206938,
,,,,,,,,,,,,,,,,,,,,13,0,13,0,21,0,21,0,,,,,,butled,nw,h,upper,,,,,,,3,nw,LoDemNoTar,h,1,0.8140021241270006,,,,,,,,,,,,,,,,,,,353,2023-11-21_09h02.42.370,leap3,2022.2.5,59.99253916206938,
,,,,,,,,,,,,,,,,,,,,13,0,13,0,22,0,22,0,,,,,,mennel,nw,h,upper,,,,,,,3,nw,LoDemNoTar,h,1,0.5386271495372057,,,,,,,,,,,,,,,,,,,353,2023-11-21_09h02.42.370,leap3,2022.2.5,59.99253916206938,
,,,,,,,,,,,,,,,,,,,,13,0,13,0,23,0,23,0,,,,,,favoting,nw,h,upper,,,,,,,3,nw,LoDemNoTar,g,0,0.5795092794578522,,,,,,,,,,,,,,,,,,,353,2023-11-21_09h02.42.370,leap3,2022.2.5,59.99253916206938,
,,,,,,,,,,,,,,,,,,,,13,0,13,0,24,0,24,0,,,,,,amplifier,w,g,upper,,,,,,,3,w,LoDemNoTar,g,1,0.6828854858176783,,,,,,,,,,,,,,,,,,,353,2023-11-21_09h02.42.370,leap3,2022.2.5,59.99253916206938,
,,,,,,,,,,,,,,,,,,,,13,0,13,0,25,0,25,0,,,,,,prison,w,g,upper,,,,,,,3,w,LoDemNoTar,g,1,0.5350284787127748,,,,,,,,,,,,,,,,,,,353,2023-11-21_09h02.42.370,leap3,2022.2.5,59.99253916206938,
,,,,,,,,,,,,,,,,,,,,13,0,13,0,26,0,26,0,,,,,,divider,w,g,upper,,,,,,,3,w,LoDemNoTar,g,1,0.5760618364438415,,,,,,,,,,,,,,,,,,,353,2023-11-21_09h02.42.370,leap3,2022.2.5,59.99253916206938,
,,,,,,,,,,,,,,,,,,,,13,0,13,0,27,0,27,0,,,,,,drauns,nw,h,upper,,,,,,,3,nw,LoDemNoTar,h,1,0.6474264153512195,,,,,,,,,,,,,,,,,,,353,2023-11-21_09h02.42.370,leap3,2022.2.5,59.99253916206938,
,,,,,,,,,,,,,,,,,,,,13,0,13,0,28,0,28,0,,,,,,chemical,w,g,upper,,,,,,,3,w,LoDemNoTar,g,1,0.5640587212983519,,,,,,,,,,,,,,,,,,,353,2023-11-21_09h02.42.370,leap3,2022.2.5,59.99253916206938,
,,,,,,,,,,,,,,,,,,,,13,0,13,0,29,0,29,0,,,,,,bureaug,nw,h,upper,,,,,,,3,nw,LoDemNoTar,h,1,0.6593154306756333,,,,,,,,,,,,,,,,,,,353,2023-11-21_09h02.42.370,leap3,2022.2.5,59.99253916206938,
,,,,,,,,,,,,,,,,,,,,13,0,13,0,,,,,,,,,,,,,,,,,,,,,,,,,,NA,,,,,,,,,,,,,,,,,,353,2023-11-21_09h02.42.370,leap3,2022.2.5,59.99253916206938,
,,,,,,,,,,,,,,,,,,,,14,0,14,0,0,0,0,0,,,,,,kettle,w,g,upper,,,,,,,4,w,LoDemTar,g,1,0.6078253419836983,,,,,,,,,,,,,,,,,,,353,2023-11-21_09h02.42.370,leap3,2022.2.5,59.99253916206938,
,,,,,,,,,,,,,,,,,,,,14,0,14,0,1,0,1,0,,,,,,overflow,w,g,upper,,,,,,,4,w,LoDemTar,g,1,0.46980808209627867,,,,,,,,,,,,,,,,,,,353,2023-11-21_09h02.42.370,leap3,2022.2.5,59.99253916206938,
,,,,,,,,,,,,,,,,,,,,14,0,14,0,2,0,2,0,,,,,,latpin,nw,h,upper,,,,,,,4,nw,LoDemTar,h,1,0.5210938175441697,,,,,,,,,,,,,,,,,,,353,2023-11-21_09h02.42.370,leap3,2022.2.5,59.99253916206938,
,,,,,,,,,,,,,,,,,,,,14,0,14,0,3,0,3,0,,,,,,bamps,nw,h,upper,,,,,,,4,nw,LoDemTar,h,1,0.5544737365562469,,,,,,,,,,,,,,,,,,,353,2023-11-21_09h02.42.370,leap3,2022.2.5,59.99253916206938,
,,,,,,,,,,,,,,,,,,,,14,0,14,0,4,0,4,0,,,,,,sording,nw,h,upper,,,,,,,4,nw,LoDemTar,h,1,0.5625811594072729,,,,,,,,,,,,,,,,,,,353,2023-11-21_09h02.42.370,leap3,2022.2.5,59.99253916206938,
,,,,,,,,,,,,,,,,,,,,14,0,14,0,5,0,5,0,,,,,,analysis,w,g,upper,,,,,,,4,w,LoDemTar,g,1,0.5625899130245671,,,,,,,,,,,,,,,,,,,353,2023-11-21_09h02.42.370,leap3,2022.2.5,59.99253916206938,
,,,,,,,,,,,,,,,,,,,,14,0,14,0,6,0,6,0,,,,,,infancy,w,g,upper,,,,,,,4,w,LoDemTar,g,1,0.6574741380754858,,,,,,,,,,,,,,,,,,,353,2023-11-21_09h02.42.370,leap3,2022.2.5,59.99253916206938,
,,,,,,,,,,,,,,,,,,,,14,0,14,0,7,0,7,0,,,,,,gund,nw,h,upper,,,,,,,4,nw,LoDemTar,h,1,0.48548593430314213,,,,,,,,,,,,,,,,,,,353,2023-11-21_09h02.42.370,leap3,2022.2.5,59.99253916206938,
,,,,,,,,,,,,,,,,,,,,14,0,14,0,8,0,8,0,,,,,,bookend,w,g,upper,,,,,,,4,w,LoDemTar,h,0,0.6881431309739128,,,,,,,,,,,,,,,,,,,353,2023-11-21_09h02.42.370,leap3,2022.2.5,59.99253916206938,
,,,,,,,,,,,,,,,,,,,,14,0,14,0,9,0,9,0,,,,,,flooted,nw,h,upper,,,,,,,4,nw,LoDemTar,h,1,0.7148331205826253,,,,,,,,,,,,,,,,,,,353,2023-11-21_09h02.42.370,leap3,2022.2.5,59.99253916206938,
,,,,,,,,,,,,,,,,,,,,14,0,14,0,10,0,10,0,,,,,,removable,w,g,upper,,,,,,,4,w,LoDemTar,g,1,0.5249439302133396,,,,,,,,,,,,,,,,,,,353,2023-11-21_09h02.42.370,leap3,2022.2.5,59.99253916206938,
,,,,,,,,,,,,,,,,,,,,14,0,14,0,11,0,11,0,,,,,,mantos,nw,h,upper,,,,,,,4,nw,LoDemTar,h,1,0.6062629598891363,,,,,,,,,,,,,,,,,,,353,2023-11-21_09h02.42.370,leap3,2022.2.5,59.99253916206938,
,,,,,,,,,,,,,,,,,,,,14,0,14,0,12,0,12,0,,,,,,eyesight,w,g,upper,,,,,,,4,w,LoDemTar,g,1,0.5803019409067929,,,,,,,,,,,,,,,,,,,353,2023-11-21_09h02.42.370,leap3,2022.2.5,59.99253916206938,
,,,,,,,,,,,,,,,,,,,,14,0,14,0,13,0,13,0,,,,,,scatter,w,g,upper,,,,,,,4,w,LoDemTar,g,1,0.7316254077013582,,,,,,,,,,,,,,,,,,,353,2023-11-21_09h02.42.370,leap3,2022.2.5,59.99253916206938,
,,,,,,,,,,,,,,,,,,,,14,0,14,0,14,0,14,0,,,,,,nimp,nw,h,upper,,,,,,,4,nw,LoDemTar,h,1,0.6841094926930964,,,,,,,,,,,,,,,,,,,353,2023-11-21_09h02.42.370,leap3,2022.2.5,59.99253916206938,
,,,,,,,,,,,,,,,,,,,,14,0,14,0,15,0,15,0,,,,,,glates,nw,h,upper,,,,,,,4,nw,LoDemTar,h,1,0.6471683324780315,,,,,,,,,,,,,,,,,,,353,2023-11-21_09h02.42.370,leap3,2022.2.5,59.99253916206938,
,,,,,,,,,,,,,,,,,,,,14,0,14,0,16,0,16,0,,,,,,triangle,w,g,upper,,,,,,,4,w,LoDemTar,g,1,0.6910499584628269,,,,,,,,,,,,,,,,,,,353,2023-11-21_09h02.42.370,leap3,2022.2.5,59.99253916206938,
,,,,,,,,,,,,,,,,,,,,14,0,14,0,17,0,17,0,,,,,,gures,nw,h,upper,,,,,,,4,nw,LoDemTar,h,1,0.5583564492408186,,,,,,,,,,,,,,,,,,,353,2023-11-21_09h02.42.370,leap3,2022.2.5,59.99253916206938,
,,,,,,,,,,,,,,,,,,,,14,0,14,0,18,0,18,0,,,,,,atabaster,nw,h,upper,,,,,,,4,nw,LoDemTar,g,0,0.510922335786745,,,,,,,,,,,,,,,,,,,353,2023-11-21_09h02.42.370,leap3,2022.2.5,59.99253916206938,
,,,,,,,,,,,,,,,,,,,,14,0,14,0,19,0,19,0,,,,,,sunhess,nw,h,upper,,,,,,,4,nw,LoDemTar,h,1,0.8568514188518748,,,,,,,,,,,,,,,,,,,353,2023-11-21_09h02.42.370,leap3,2022.2.5,59.99253916206938,
,,,,,,,,,,,,,,,,,,,,14,0,14,0,20,0,20,0,,,,,,expounded,w,g,upper,,,,,,,4,w,LoDemTar,g,1,0.5329589865868911,,,,,,,,,,,,,,,,,,,353,2023-11-21_09h02.42.370,leap3,2022.2.5,59.99253916206938,
,,,,,,,,,,,,,,,,,,,,14,0,14,0,21,0,21,0,,,,,,lizard,target,q,upper,,,,,,,4,target,LoDemTar,g,0,0.4863670381018892,,1,1,,,,,,,,,,,,,,,,353,2023-11-21_09h02.42.370,leap3,2022.2.5,59.99253916206938,
,,,,,,,,,,,,,,,,,,,,14,0,14,0,22,0,22,0,,,,,,sarlock,nw,h,upper,,,,,,,4,aftertar1,LoDemTar,h,1,0.7769317716592923,,,,,,,,,,,,,,,,,,,353,2023-11-21_09h02.42.370,leap3,2022.2.5,59.99253916206938,
,,,,,,,,,,,,,,,,,,,,14,0,14,0,23,0,23,0,,,,,,dounger,nw,h,upper,,,,,,,4,aftertar2,LoDemTar,h,1,0.6884003082523122,,,,,,,,,,,,,,,,,,,353,2023-11-21_09h02.42.370,leap3,2022.2.5,59.99253916206938,
,,,,,,,,,,,,,,,,,,,,14,0,14,0,24,0,24,0,,,,,,company,w,g,upper,,,,,,,4,aftertar3,LoDemTar,g,1,0.5470530253369361,,,,,,,,,,,,,,,,,,,353,2023-11-21_09h02.42.370,leap3,2022.2.5,59.99253916206938,
,,,,,,,,,,,,,,,,,,,,14,0,14,0,25,0,25,0,,,,,,dialect,w,g,upper,,,,,,,4,w,LoDemTar,h,0,0.5786671144887805,,,,,,,,,,,,,,,,,,,353,2023-11-21_09h02.42.370,leap3,2022.2.5,59.99253916206938,
,,,,,,,,,,,,,,,,,,,,14,0,14,0,26,0,26,0,,,,,,shazer,nw,h,upper,,,,,,,4,w,LoDemTar,h,1,0.954174300073646,,,,,,,,,,,,,,,,,,,353,2023-11-21_09h02.42.370,leap3,2022.2.5,59.99253916206938,
,,,,,,,,,,,,,,,,,,,,14,0,14,0,27,0,27,0,,,,,,railroad,w,g,upper,,,,,,,4,nw,LoDemTar,g,1,0.7381701465928927,,,,,,,,,,,,,,,,,,,353,2023-11-21_09h02.42.370,leap3,2022.2.5,59.99253916206938,
,,,,,,,,,,,,,,,,,,,,14,0,14,0,28,0,28,0,,,,,,budget,w,g,upper,,,,,,,4,w,LoDemTar,g,1,0.5947904991917312,,,,,,,,,,,,,,,,,,,353,2023-11-21_09h02.42.370,leap3,2022.2.5,59.99253916206938,
,,,,,,,,,,,,,,,,,,,,14,0,14,0,29,0,29,0,,,,,,reses,nw,h,upper,,,,,,,4,w,LoDemTar,h,1,0.7375480312621221,,,,,,,,,,,,,,,,,,,353,2023-11-21_09h02.42.370,leap3,2022.2.5,59.99253916206938,
,,,,,,,,,,,,,,,,,,,,14,0,14,0,,,,,,,,,,,,,,,,,,,,,,,,,,1,,,,,,,,,,,,,,,,,,353,2023-11-21_09h02.42.370,leap3,2022.2.5,59.99253916206938,
,,,,,,,,,,,,,,,,,,,,15,0,15,0,0,0,0,0,,,,,,mabit,nw,h,lower,,,,,,,1,nw,HiDemTar,h,1,0.6580745200626552,,,,,,,,,,,,,,,,,,,353,2023-11-21_09h02.42.370,leap3,2022.2.5,59.99253916206938,
,,,,,,,,,,,,,,,,,,,,15,0,15,0,1,0,1,0,,,,,,exemplify,w,g,lower,,,,,,,1,w,HiDemTar,g,1,0.4701570221222937,,,,,,,,,,,,,,,,,,,353,2023-11-21_09h02.42.370,leap3,2022.2.5,59.99253916206938,
,,,,,,,,,,,,,,,,,,,,15,0,15,0,2,0,2,0,,,,,,talate,nw,h,lower,,,,,,,1,nw,HiDemTar,g,0,0.4654913073172793,,,,,,,,,,,,,,,,,,,353,2023-11-21_09h02.42.370,leap3,2022.2.5,59.99253916206938,
,,,,,,,,,,,,,,,,,,,,15,0,15,0,3,0,3,0,,,,,,ilterfere,nw,h,lower,,,,,,,1,nw,HiDemTar,h,1,0.5894326395355165,,,,,,,,,,,,,,,,,,,353,2023-11-21_09h02.42.370,leap3,2022.2.5,59.99253916206938,
,,,,,,,,,,,,,,,,,,,,15,0,15,0,4,0,4,0,,,,,,demise,w,g,lower,,,,,,,1,w,HiDemTar,h,0,0.5722271180711687,,,,,,,,,,,,,,,,,,,353,2023-11-21_09h02.42.370,leap3,2022.2.5,59.99253916206938,
,,,,,,,,,,,,,,,,,,,,15,0,15,0,5,0,5,0,,,,,,deeper,w,g,lower,,,,,,,1,w,HiDemTar,g,1,0.5635295759420842,,,,,,,,,,,,,,,,,,,353,2023-11-21_09h02.42.370,leap3,2022.2.5,59.99253916206938,
,,,,,,,,,,,,,,,,,,,,15,0,15,0,6,0,6,0,,,,,,knowledge,w,g,lower,,,,,,,1,w,HiDemTar,g,1,0.45090072334278375,,,,,,,,,,,,,,,,,,,353,2023-11-21_09h02.42.370,leap3,2022.2.5,59.99253916206938,
,,,,,,,,,,,,,,,,,,,,15,0,15,0,7,0,7,0,,,,,,slooch,nw,h,lower,,,,,,,1,nw,HiDemTar,h,1,0.5264438290614635,,,,,,,,,,,,,,,,,,,353,2023-11-21_09h02.42.370,leap3,2022.2.5,59.99253916206938,
,,,,,,,,,,,,,,,,,,,,15,0,15,0,8,0,8,0,,,,,,imotope,nw,h,lower,,,,,,,1,nw,HiDemTar,h,1,0.6228786639403552,,,,,,,,,,,,,,,,,,,353,2023-11-21_09h02.42.370,leap3,2022.2.5,59.99253916206938,
,,,,,,,,,,,,,,,,,,,,15,0,15,0,9,0,9,0,,,,,,intrude,w,g,lower,,,,,,,1,w,HiDemTar,g,1,0.5004598695086315,,,,,,,,,,,,,,,,,,,353,2023-11-21_09h02.42.370,leap3,2022.2.5,59.99253916206938,
,,,,,,,,,,,,,,,,,,,,15,0,15,0,10,0,10,0,,,,,,metebing,nw,h,lower,,,,,,,1,nw,HiDemTar,h,1,0.5671768446918577,,,,,,,,,,,,,,,,,,,353,2023-11-21_09h02.42.370,leap3,2022.2.5,59.99253916206938,
,,,,,,,,,,,,,,,,,,,,15,0,15,0,11,0,11,0,,,,,,intersect,w,g,lower,,,,,,,1,w,HiDemTar,g,1,0.5108680025441572,,,,,,,,,,,,,,,,,,,353,2023-11-21_09h02.42.370,leap3,2022.2.5,59.99253916206938,
,,,,,,,,,,,,,,,,,,,,15,0,15,0,12,0,12,0,,,,,,selongs,nw,h,lower,,,,,,,1,nw,HiDemTar,h,1,0.5447381280828267,,,,,,,,,,,,,,,,,,,353,2023-11-21_09h02.42.370,leap3,2022.2.5,59.99253916206938,
,,,,,,,,,,,,,,,,,,,,15,0,15,0,13,0,13,0,,,,,,angry,w,g,lower,,,,,,,1,w,HiDemTar,g,1,0.5853537236107513,,,,,,,,,,,,,,,,,,,353,2023-11-21_09h02.42.370,leap3,2022.2.5,59.99253916206938,
,,,,,,,,,,,,,,,,,,,,15,0,15,0,14,0,14,0,,,,,,chicken,target,q,lower,,,,,,,1,target,HiDemTar,q,1,0.6480883751064539,,1,,,,,,,,,,,,,,,,,353,2023-11-21_09h02.42.370,leap3,2022.2.5,59.99253916206938,
,,,,,,,,,,,,,,,,,,,,15,0,15,0,15,0,15,0,,,,,,unrealon,nw,h,lower,,,,,,,1,aftertar1,HiDemTar,h,1,0.7409003912471235,,,,,,,,,,,,,,,,,,,353,2023-11-21_09h02.42.370,leap3,2022.2.5,59.99253916206938,
,,,,,,,,,,,,,,,,,,,,15,0,15,0,16,0,16,0,,,,,,joses,nw,h,lower,,,,,,,1,aftertar2,HiDemTar,h,1,0.6695104567334056,,,,,,,,,,,,,,,,,,,353,2023-11-21_09h02.42.370,leap3,2022.2.5,59.99253916206938,
,,,,,,,,,,,,,,,,,,,,15,0,15,0,17,0,17,0,,,,,,legalize,w,g,lower,,,,,,,1,aftertar3,HiDemTar,g,1,0.6485933721996844,,,,,,,,,,,,,,,,,,,353,2023-11-21_09h02.42.370,leap3,2022.2.5,59.99253916206938,
,,,,,,,,,,,,,,,,,,,,15,0,15,0,18,0,18,0,,,,,,ignoble,w,g,lower,,,,,,,1,w,HiDemTar,g,1,0.5816744586918503,,,,,,,,,,,,,,,,,,,353,2023-11-21_09h02.42.370,leap3,2022.2.5,59.99253916206938,
,,,,,,,,,,,,,,,,,,,,15,0,15,0,19,0,19,0,,,,,,rivet,w,g,lower,,,,,,,1,w,HiDemTar,g,1,0.9320184180978686,,,,,,,,,,,,,,,,,,,353,2023-11-21_09h02.42.370,leap3,2022.2.5,59.99253916206938,
,,,,,,,,,,,,,,,,,,,,15,0,15,0,20,0,20,0,,,,,,pegend,nw,h,lower,,,,,,,1,w,HiDemTar,h,1,0.5733152917819098,,,,,,,,,,,,,,,,,,,353,2023-11-21_09h02.42.370,leap3,2022.2.5,59.99253916206938,
,,,,,,,,,,,,,,,,,,,,15,0,15,0,21,0,21,0,,,,,,glaims,nw,h,lower,,,,,,,1,nw,HiDemTar,h,1,0.6686196937225759,,,,,,,,,,,,,,,,,,,353,2023-11-21_09h02.42.370,leap3,2022.2.5,59.99253916206938,
,,,,,,,,,,,,,,,,,,,,15,0,15,0,22,0,22,0,,,,,,thorifies,nw,h,lower,,,,,,,1,nw,HiDemTar,h,1,0.5760011642705649,,,,,,,,,,,,,,,,,,,353,2023-11-21_09h02.42.370,leap3,2022.2.5,59.99253916206938,
,,,,,,,,,,,,,,,,,,,,15,0,15,0,23,0,23,0,,,,,,nimono,nw,h,lower,,,,,,,1,nw,HiDemTar,h,1,0.5114206922007725,,,,,,,,,,,,,,,,,,,353,2023-11-21_09h02.42.370,leap3,2022.2.5,59.99253916206938,
,,,,,,,,,,,,,,,,,,,,15,0,15,0,24,0,24,0,,,,,,acidic,w,g,lower,,,,,,,1,nw,HiDemTar,g,1,0.6094474905403331,,,,,,,,,,,,,,,,,,,353,2023-11-21_09h02.42.370,leap3,2022.2.5,59.99253916206938,
,,,,,,,,,,,,,,,,,,,,15,0,15,0,25,0,25,0,,,,,,shivering,w,g,lower,,,,,,,1,w,HiDemTar,g,1,0.6234760276274756,,,,,,,,,,,,,,,,,,,353,2023-11-21_09h02.42.370,leap3,2022.2.5,59.99253916206938,
,,,,,,,,,,,,,,,,,,,,15,0,15,0,26,0,26,0,,,,,,nearsipe,nw,h,lower,,,,,,,1,w,HiDemTar,h,1,0.6528612470719963,,,,,,,,,,,,,,,,,,,353,2023-11-21_09h02.42.370,leap3,2022.2.5,59.99253916206938,
,,,,,,,,,,,,,,,,,,,,15,0,15,0,27,0,27,0,,,,,,currowing,nw,h,lower,,,,,,,1,nw,HiDemTar,g,0,0.4647925216704607,,,,,,,,,,,,,,,,,,,353,2023-11-21_09h02.42.370,leap3,2022.2.5,59.99253916206938,
,,,,,,,,,,,,,,,,,,,,15,0,15,0,28,0,28,0,,,,,,urgency,w,g,lower,,,,,,,1,nw,HiDemTar,g,1,0.7398644377244636,,,,,,,,,,,,,,,,,,,353,2023-11-21_09h02.42.370,leap3,2022.2.5,59.99253916206938,
,,,,,,,,,,,,,,,,,,,,15,0,15,0,29,0,29,0,,,,,,martial,w,g,lower,,,,,,,1,w,HiDemTar,g,1,0.6125124882673845,,,,,,,,,,,,,,,,,,,353,2023-11-21_09h02.42.370,leap3,2022.2.5,59.99253916206938,
,,,,,,,,,,,,,,,,,,,,15,0,15,0,,,,,,,,,,,,,,,,,,,,,,,,,,1,,,,,,,,,,,,,,,,,,353,2023-11-21_09h02.42.370,leap3,2022.2.5,59.99253916206938,
,,,,,,,,,,,,,,,,,,,,16,0,16,0,0,0,0,0,,,,,,etcess,nw,h,lower,,,,,,,2,nw,HiDemNoTar,h,1,0.6182114399271086,,,,,,,,,,,,,,,,,,,353,2023-11-21_09h02.42.370,leap3,2022.2.5,59.99253916206938,
,,,,,,,,,,,,,,,,,,,,16,0,16,0,1,0,1,0,,,,,,maiden,w,g,lower,,,,,,,2,w,HiDemNoTar,h,0,1.1835257123457268,,,,,,,,,,,,,,,,,,,353,2023-11-21_09h02.42.370,leap3,2022.2.5,59.99253916206938,
,,,,,,,,,,,,,,,,,,,,16,0,16,0,2,0,2,0,,,,,,thaken,nw,h,lower,,,,,,,2,nw,HiDemNoTar,h,1,0.5911211953498423,,,,,,,,,,,,,,,,,,,353,2023-11-21_09h02.42.370,leap3,2022.2.5,59.99253916206938,
,,,,,,,,,,,,,,,,,,,,16,0,16,0,3,0,3,0,,,,,,acroad,nw,h,lower,,,,,,,2,nw,HiDemNoTar,g,0,0.5413426032755524,,,,,,,,,,,,,,,,,,,353,2023-11-21_09h02.42.370,leap3,2022.2.5,59.99253916206938,
,,,,,,,,,,,,,,,,,,,,16,0,16,0,4,0,4,0,,,,,,lentils,w,g,lower,,,,,,,2,w,HiDemNoTar,g,1,0.7819077896419913,,,,,,,,,,,,,,,,,,,353,2023-11-21_09h02.42.370,leap3,2022.2.5,59.99253916206938,
,,,,,,,,,,,,,,,,,,,,16,0,16,0,5,0,5,0,,,,,,neally,nw,h,lower,,,,,,,2,nw,HiDemNoTar,h,1,0.5812316427472979,,,,,,,,,,,,,,,,,,,353,2023-11-21_09h02.42.370,leap3,2022.2.5,59.99253916206938,
,,,,,,,,,,,,,,,,,,,,16,0,16,0,6,0,6,0,,,,,,comply,w,g,lower,,,,,,,2,w,HiDemNoTar,g,1,0.7485972964204848,,,,,,,,,,,,,,,,,,,353,2023-11-21_09h02.42.370,leap3,2022.2.5,59.99253916206938,
,,,,,,,,,,,,,,,,,,,,16,0,16,0,7,0,7,0,,,,,,calming,w,g,lower,,,,,,,2,w,HiDemNoTar,g,1,0.46135866176337004,,,,,,,,,,,,,,,,,,,353,2023-11-21_09h02.42.370,leap3,2022.2.5,59.99253916206938,
