demoRace_loop.thisRepN,demoRace_loop.thisTrialN,demoRace_loop.thisN,demoRace_loop.thisIndex,LDTunderstand.thisRepN,LDTunderstand.thisTrialN,LDTunderstand.thisN,LDTunderstand.thisIndex,pracBlocks.thisRepN,pracBlocks.thisTrialN,pracBlocks.thisN,pracBlocks.thisIndex,pracTrial.thisRepN,pracTrial.thisTrialN,pracTrial.thisN,pracTrial.thisIndex,PMunderstand.thisRepN,PMunderstand.thisTrialN,PMunderstand.thisN,PMunderstand.thisIndex,LDT_block.thisRepN,LDT_block.thisTrialN,LDT_block.thisN,LDT_block.thisIndex,LDT_trial.thisRepN,LDT_trial.thisTrialN,LDT_trial.thisN,LDT_trial.thisIndex,ageTextbox.text,genderTextbox.text,race,raceResp,LDTunderstand,stim,word_type,corr_key,stim_location,LDTpracKey.keys,LDTpracKey.corr,LDTpracKey.rt,PMunderstand,cueTextbox.text,intentionTextbox.text,block_type,role,block_desc,LDTResp.keys,LDTResp.corr,LDTResp.rt,pressedQ,pressedQ_blank,PM_accuracy,postQ1,Q2Textbox.text,Q3Textbox.text,Q4,Q5,Q6Key.keys,Q6Key.rt,postQ7_correct,postQ7,Q8Textbox.text,education,medTextbox.text,health,healthLimit,psych,participant,date,expName,psychopyVersion,frameRate,
0,0,0,0,,,,,,,,,,,,,,,,,,,,,,,,,"19
", FEMALE,American Indian or Alaska Native,n,,,,,,,,,,,,,,,,,,,,,,,,,,,,,,,,,,,,354,2023-11-21_09h17.07.259,leap3,2022.2.5,59.997500844092336,
1,0,1,0,,,,,,,,,,,,,,,,,,,,,,,,,,,Asian,y,,,,,,,,,,,,,,,,,,,,,,,,,,,,,,,,,,,,354,2023-11-21_09h17.07.259,leap3,2022.2.5,59.997500844092336,
2,0,2,0,,,,,,,,,,,,,,,,,,,,,,,,,,,Black or African American,n,,,,,,,,,,,,,,,,,,,,,,,,,,,,,,,,,,,,354,2023-11-21_09h17.07.259,leap3,2022.2.5,59.997500844092336,
3,0,3,0,,,,,,,,,,,,,,,,,,,,,,,,,,,Native Hawaiian or other Pacific Islander,n,,,,,,,,,,,,,,,,,,,,,,,,,,,,,,,,,,,,354,2023-11-21_09h17.07.259,leap3,2022.2.5,59.997500844092336,
4,0,4,0,,,,,,,,,,,,,,,,,,,,,,,,,,,White,n,,,,,,,,,,,,,,,,,,,,,,,,,,,,,,,,,,,,354,2023-11-21_09h17.07.259,leap3,2022.2.5,59.997500844092336,
,,,,0,0,0,0,,,,,,,,,,,,,,,,,,,,,,,,,y,,,,,,,,,,,,,,,,,,,,,,,,,,,,,,,,,,,354,2023-11-21_09h17.07.259,leap3,2022.2.5,59.997500844092336,
,,,,,,,,0,0,0,0,0,0,0,0,,,,,,,,,,,,,,,,,,lumbigo,nw,h,upper,h,1,0.19494163827039301,,,,,,,,,,,,,,,,,,,,,,,,,,,,354,2023-11-21_09h17.07.259,leap3,2022.2.5,59.997500844092336,
,,,,,,,,0,0,0,0,1,0,1,0,,,,,,,,,,,,,,,,,,revival,w,g,upper,h,0,0.24633739166893065,,,,,,,,,,,,,,,,,,,,,,,,,,,,354,2023-11-21_09h17.07.259,leap3,2022.2.5,59.997500844092336,
,,,,,,,,0,0,0,0,2,0,2,0,,,,,,,,,,,,,,,,,,slumber,w,g,upper,g,1,0.6691696591442451,,,,,,,,,,,,,,,,,,,,,,,,,,,,354,2023-11-21_09h17.07.259,leap3,2022.2.5,59.997500844092336,
,,,,,,,,0,0,0,0,3,0,3,0,,,,,,,,,,,,,,,,,,crinklo,nw,h,upper,h,1,0.6141689921496436,,,,,,,,,,,,,,,,,,,,,,,,,,,,354,2023-11-21_09h17.07.259,leap3,2022.2.5,59.997500844092336,
,,,,,,,,0,0,0,0,4,0,4,0,,,,,,,,,,,,,,,,,,grutch,nw,h,upper,g,0,0.7579200220061466,,,,,,,,,,,,,,,,,,,,,,,,,,,,354,2023-11-21_09h17.07.259,leap3,2022.2.5,59.997500844092336,
,,,,,,,,0,0,0,0,5,0,5,0,,,,,,,,,,,,,,,,,,umpire,w,g,upper,g,1,0.8141039146576077,,,,,,,,,,,,,,,,,,,,,,,,,,,,354,2023-11-21_09h17.07.259,leap3,2022.2.5,59.997500844092336,
,,,,,,,,0,0,0,0,6,0,6,0,,,,,,,,,,,,,,,,,,latador,nw,h,upper,h,1,0.788393511553295,,,,,,,,,,,,,,,,,,,,,,,,,,,,354,2023-11-21_09h17.07.259,leap3,2022.2.5,59.997500844092336,
,,,,,,,,0,0,0,0,7,0,7,0,,,,,,,,,,,,,,,,,,grocus,nw,h,upper,h,1,0.7699240257497877,,,,,,,,,,,,,,,,,,,,,,,,,,,,354,2023-11-21_09h17.07.259,leap3,2022.2.5,59.997500844092336,
,,,,,,,,0,0,0,0,8,0,8,0,,,,,,,,,,,,,,,,,,unscrew,w,g,upper,g,1,0.6973077873699367,,,,,,,,,,,,,,,,,,,,,,,,,,,,354,2023-11-21_09h17.07.259,leap3,2022.2.5,59.997500844092336,
,,,,,,,,0,0,0,0,9,0,9,0,,,,,,,,,,,,,,,,,,busted,w,g,upper,g,1,0.6358096428448334,,,,,,,,,,,,,,,,,,,,,,,,,,,,354,2023-11-21_09h17.07.259,leap3,2022.2.5,59.997500844092336,
,,,,,,,,0,0,0,0,10,0,10,0,,,,,,,,,,,,,,,,,,lurshing,nw,h,upper,g,0,0.6964813406812027,,,,,,,,,,,,,,,,,,,,,,,,,,,,354,2023-11-21_09h17.07.259,leap3,2022.2.5,59.997500844092336,
,,,,,,,,0,0,0,0,11,0,11,0,,,,,,,,,,,,,,,,,,curlecs,nw,h,upper,h,1,0.9150759102776647,,,,,,,,,,,,,,,,,,,,,,,,,,,,354,2023-11-21_09h17.07.259,leap3,2022.2.5,59.997500844092336,
,,,,,,,,0,0,0,0,12,0,12,0,,,,,,,,,,,,,,,,,,sponsor,w,g,upper,g,1,0.6200633867410943,,,,,,,,,,,,,,,,,,,,,,,,,,,,354,2023-11-21_09h17.07.259,leap3,2022.2.5,59.997500844092336,
,,,,,,,,0,0,0,0,13,0,13,0,,,,,,,,,,,,,,,,,,picture,w,g,upper,g,1,0.4814394658897072,,,,,,,,,,,,,,,,,,,,,,,,,,,,354,2023-11-21_09h17.07.259,leap3,2022.2.5,59.997500844092336,
,,,,,,,,0,0,0,0,,,,,,,,,,,,,,,,,,,,,,,,,,,,,,,,,,,,,,,,,,,,,,,,,,,,,,,,354,2023-11-21_09h17.07.259,leap3,2022.2.5,59.997500844092336,
,,,,,,,,1,0,1,0,0,0,0,0,,,,,,,,,,,,,,,,,,hasking,nw,h,lower,g,0,0.6293387275654823,,,,,,,,,,,,,,,,,,,,,,,,,,,,354,2023-11-21_09h17.07.259,leap3,2022.2.5,59.997500844092336,
,,,,,,,,1,0,1,0,1,0,1,0,,,,,,,,,,,,,,,,,,reputable,w,g,lower,g,1,0.6105728318216279,,,,,,,,,,,,,,,,,,,,,,,,,,,,354,2023-11-21_09h17.07.259,leap3,2022.2.5,59.997500844092336,
,,,,,,,,1,0,1,0,2,0,2,0,,,,,,,,,,,,,,,,,,hiring,w,g,lower,g,1,0.6554695983650163,,,,,,,,,,,,,,,,,,,,,,,,,,,,354,2023-11-21_09h17.07.259,leap3,2022.2.5,59.997500844092336,
,,,,,,,,1,0,1,0,3,0,3,0,,,,,,,,,,,,,,,,,,alolition,nw,h,lower,h,1,0.6114077301463112,,,,,,,,,,,,,,,,,,,,,,,,,,,,354,2023-11-21_09h17.07.259,leap3,2022.2.5,59.997500844092336,
,,,,,,,,1,0,1,0,4,0,4,0,,,,,,,,,,,,,,,,,,turative,nw,h,lower,h,1,0.577423200244084,,,,,,,,,,,,,,,,,,,,,,,,,,,,354,2023-11-21_09h17.07.259,leap3,2022.2.5,59.997500844092336,
,,,,,,,,1,0,1,0,5,0,5,0,,,,,,,,,,,,,,,,,,infinity,w,g,lower,g,1,0.7354372286936268,,,,,,,,,,,,,,,,,,,,,,,,,,,,354,2023-11-21_09h17.07.259,leap3,2022.2.5,59.997500844092336,
,,,,,,,,1,0,1,0,6,0,6,0,,,,,,,,,,,,,,,,,,julled,nw,h,lower,h,1,0.7362875210819766,,,,,,,,,,,,,,,,,,,,,,,,,,,,354,2023-11-21_09h17.07.259,leap3,2022.2.5,59.997500844092336,
,,,,,,,,1,0,1,0,7,0,7,0,,,,,,,,,,,,,,,,,,raestro,nw,h,lower,h,1,0.7048940134700388,,,,,,,,,,,,,,,,,,,,,,,,,,,,354,2023-11-21_09h17.07.259,leap3,2022.2.5,59.997500844092336,
,,,,,,,,1,0,1,0,8,0,8,0,,,,,,,,,,,,,,,,,,overshoot,w,g,lower,g,1,0.5467296671122313,,,,,,,,,,,,,,,,,,,,,,,,,,,,354,2023-11-21_09h17.07.259,leap3,2022.2.5,59.997500844092336,
,,,,,,,,1,0,1,0,9,0,9,0,,,,,,,,,,,,,,,,,,tricycle,w,g,lower,h,0,0.6513551732059568,,,,,,,,,,,,,,,,,,,,,,,,,,,,354,2023-11-21_09h17.07.259,leap3,2022.2.5,59.997500844092336,
,,,,,,,,1,0,1,0,10,0,10,0,,,,,,,,,,,,,,,,,,trotch,nw,h,lower,h,1,0.8074431399581954,,,,,,,,,,,,,,,,,,,,,,,,,,,,354,2023-11-21_09h17.07.259,leap3,2022.2.5,59.997500844092336,
,,,,,,,,1,0,1,0,11,0,11,0,,,,,,,,,,,,,,,,,,treeps,nw,h,lower,h,1,0.7253158213570714,,,,,,,,,,,,,,,,,,,,,,,,,,,,354,2023-11-21_09h17.07.259,leap3,2022.2.5,59.997500844092336,
,,,,,,,,1,0,1,0,12,0,12,0,,,,,,,,,,,,,,,,,,grimace,w,g,lower,h,0,0.7266303485957906,,,,,,,,,,,,,,,,,,,,,,,,,,,,354,2023-11-21_09h17.07.259,leap3,2022.2.5,59.997500844092336,
,,,,,,,,1,0,1,0,13,0,13,0,,,,,,,,,,,,,,,,,,summary,w,g,lower,g,1,0.5496699220966548,,,,,,,,,,,,,,,,,,,,,,,,,,,,354,2023-11-21_09h17.07.259,leap3,2022.2.5,59.997500844092336,
,,,,,,,,1,0,1,0,,,,,,,,,,,,,,,,,,,,,,,,,,,,,,,,,,,,,,,,,,,,,,,,,,,,,,,,354,2023-11-21_09h17.07.259,leap3,2022.2.5,59.997500844092336,
,,,,,,,,,,,,,,,,0,0,0,0,,,,,,,,,,,,,,,,,,,,,y,,,,,,,,,,,,,,,,,,,,,,,,,,,354,2023-11-21_09h17.07.259,leap3,2022.2.5,59.997500844092336,
,,,,,,,,,,,,,,,,,,,,0,0,0,0,0,0,0,0,,,,,,hatred,w,g,lower,,,,,ANIMAL,"
Q
",4,w,LoDemTar,g,1,1.188447481021285,,,,,,,,,,,,,,,,,,,354,2023-11-21_09h17.07.259,leap3,2022.2.5,59.997500844092336,
,,,,,,,,,,,,,,,,,,,,0,0,0,0,1,0,1,0,,,,,,vaporize,w,g,lower,,,,,,,4,w,LoDemTar,g,1,0.9862550729885697,,,,,,,,,,,,,,,,,,,354,2023-11-21_09h17.07.259,leap3,2022.2.5,59.997500844092336,
,,,,,,,,,,,,,,,,,,,,0,0,0,0,2,0,2,0,,,,,,student,w,g,lower,,,,,,,4,w,LoDemTar,g,1,0.755005121929571,,,,,,,,,,,,,,,,,,,354,2023-11-21_09h17.07.259,leap3,2022.2.5,59.997500844092336,
,,,,,,,,,,,,,,,,,,,,0,0,0,0,3,0,3,0,,,,,,wienegs,nw,h,lower,,,,,,,4,nw,LoDemTar,h,1,0.6676492748083547,,,,,,,,,,,,,,,,,,,354,2023-11-21_09h17.07.259,leap3,2022.2.5,59.997500844092336,
,,,,,,,,,,,,,,,,,,,,0,0,0,0,4,0,4,0,,,,,,brudent,nw,h,lower,,,,,,,4,nw,LoDemTar,g,0,0.8947751416126266,,,,,,,,,,,,,,,,,,,354,2023-11-21_09h17.07.259,leap3,2022.2.5,59.997500844092336,
,,,,,,,,,,,,,,,,,,,,0,0,0,0,5,0,5,0,,,,,,infusion,w,g,lower,,,,,,,4,w,LoDemTar,g,1,0.6829131853301078,,,,,,,,,,,,,,,,,,,354,2023-11-21_09h17.07.259,leap3,2022.2.5,59.997500844092336,
,,,,,,,,,,,,,,,,,,,,0,0,0,0,6,0,6,0,,,,,,seartfelt,nw,h,lower,,,,,,,4,nw,LoDemTar,h,1,1.3739322625333443,,,,,,,,,,,,,,,,,,,354,2023-11-21_09h17.07.259,leap3,2022.2.5,59.997500844092336,
,,,,,,,,,,,,,,,,,,,,0,0,0,0,7,0,7,0,,,,,,gewer,nw,h,lower,,,,,,,4,nw,LoDemTar,h,1,0.8779196115210652,,,,,,,,,,,,,,,,,,,354,2023-11-21_09h17.07.259,leap3,2022.2.5,59.997500844092336,
,,,,,,,,,,,,,,,,,,,,0,0,0,0,8,0,8,0,,,,,,buttress,w,g,lower,,,,,,,4,w,LoDemTar,g,1,1.0567255076020956,,,,,,,,,,,,,,,,,,,354,2023-11-21_09h17.07.259,leap3,2022.2.5,59.997500844092336,
,,,,,,,,,,,,,,,,,,,,0,0,0,0,9,0,9,0,,,,,,prame,nw,h,lower,,,,,,,4,nw,LoDemTar,h,1,0.8692521831253543,,,,,,,,,,,,,,,,,,,354,2023-11-21_09h17.07.259,leap3,2022.2.5,59.997500844092336,
,,,,,,,,,,,,,,,,,,,,0,0,0,0,10,0,10,0,,,,,,bingu,nw,h,lower,,,,,,,4,nw,LoDemTar,h,1,0.6741376969730482,,,,,,,,,,,,,,,,,,,354,2023-11-21_09h17.07.259,leap3,2022.2.5,59.997500844092336,
,,,,,,,,,,,,,,,,,,,,0,0,0,0,11,0,11,0,,,,,,airline,w,g,lower,,,,,,,4,w,LoDemTar,g,1,0.9024555428186432,,,,,,,,,,,,,,,,,,,354,2023-11-21_09h17.07.259,leap3,2022.2.5,59.997500844092336,
,,,,,,,,,,,,,,,,,,,,0,0,0,0,12,0,12,0,,,,,,dorth,nw,h,lower,,,,,,,4,nw,LoDemTar,h,1,0.7440910743316635,,,,,,,,,,,,,,,,,,,354,2023-11-21_09h17.07.259,leap3,2022.2.5,59.997500844092336,
,,,,,,,,,,,,,,,,,,,,0,0,0,0,13,0,13,0,,,,,,volder,nw,h,lower,,,,,,,4,nw,LoDemTar,h,1,0.8653807417722419,,,,,,,,,,,,,,,,,,,354,2023-11-21_09h17.07.259,leap3,2022.2.5,59.997500844092336,
,,,,,,,,,,,,,,,,,,,,0,0,0,0,14,0,14,0,,,,,,plunging,w,g,lower,,,,,,,4,w,LoDemTar,g,1,0.9899801202118397,,,,,,,,,,,,,,,,,,,354,2023-11-21_09h17.07.259,leap3,2022.2.5,59.997500844092336,
,,,,,,,,,,,,,,,,,,,,0,0,0,0,15,0,15,0,,,,,,neliefs,nw,h,lower,,,,,,,4,nw,LoDemTar,h,1,0.7573474254459143,,,,,,,,,,,,,,,,,,,354,2023-11-21_09h17.07.259,leap3,2022.2.5,59.997500844092336,
,,,,,,,,,,,,,,,,,,,,0,0,0,0,16,0,16,0,,,,,,mebase,nw,h,lower,,,,,,,4,nw,LoDemTar,h,1,0.7978581079514697,,,,,,,,,,,,,,,,,,,354,2023-11-21_09h17.07.259,leap3,2022.2.5,59.997500844092336,
,,,,,,,,,,,,,,,,,,,,0,0,0,0,17,0,17,0,,,,,,theery,nw,h,lower,,,,,,,4,nw,LoDemTar,h,1,1.2771975422510877,,,,,,,,,,,,,,,,,,,354,2023-11-21_09h17.07.259,leap3,2022.2.5,59.997500844092336,
,,,,,,,,,,,,,,,,,,,,0,0,0,0,18,0,18,0,,,,,,reddar,nw,h,lower,,,,,,,4,nw,LoDemTar,h,1,0.9131420006742701,,,,,,,,,,,,,,,,,,,354,2023-11-21_09h17.07.259,leap3,2022.2.5,59.997500844092336,
,,,,,,,,,,,,,,,,,,,,0,0,0,0,19,0,19,0,,,,,,populace,w,g,lower,,,,,,,4,w,LoDemTar,g,1,1.1478341717738658,,,,,,,,,,,,,,,,,,,354,2023-11-21_09h17.07.259,leap3,2022.2.5,59.997500844092336,
,,,,,,,,,,,,,,,,,,,,0,0,0,0,20,0,20,0,,,,,,perishing,w,g,lower,,,,,,,4,w,LoDemTar,g,1,0.7962145716883242,,,,,,,,,,,,,,,,,,,354,2023-11-21_09h17.07.259,leap3,2022.2.5,59.997500844092336,
,,,,,,,,,,,,,,,,,,,,0,0,0,0,21,0,21,0,,,,,,desert,w,g,lower,,,,,,,4,w,LoDemTar,g,1,0.7723671448184177,,,,,,,,,,,,,,,,,,,354,2023-11-21_09h17.07.259,leap3,2022.2.5,59.997500844092336,
,,,,,,,,,,,,,,,,,,,,0,0,0,0,22,0,22,0,,,,,,elephant,target,q,lower,,,,,,,4,target,LoDemTar,g,0,0.6433626661309972,1,1,,,,,,,,,,,,,,,,,354,2023-11-21_09h17.07.259,leap3,2022.2.5,59.997500844092336,
,,,,,,,,,,,,,,,,,,,,0,0,0,0,23,0,23,0,,,,,,renown,w,g,lower,,,,,,,4,aftertar1,LoDemTar,h,0,1.0646531184902415,,,,,,,,,,,,,,,,,,,354,2023-11-21_09h17.07.259,leap3,2022.2.5,59.997500844092336,
,,,,,,,,,,,,,,,,,,,,0,0,0,0,24,0,24,0,,,,,,casino,w,g,lower,,,,,,,4,aftertar2,LoDemTar,g,1,0.9812969960039482,,,,,,,,,,,,,,,,,,,354,2023-11-21_09h17.07.259,leap3,2022.2.5,59.997500844092336,
,,,,,,,,,,,,,,,,,,,,0,0,0,0,25,0,25,0,,,,,,runabouk,nw,h,lower,,,,,,,4,aftertar3,LoDemTar,h,1,0.8453129960689694,,,,,,,,,,,,,,,,,,,354,2023-11-21_09h17.07.259,leap3,2022.2.5,59.997500844092336,
,,,,,,,,,,,,,,,,,,,,0,0,0,0,26,0,26,0,,,,,,spiud,nw,h,lower,,,,,,,4,nw,LoDemTar,h,1,0.7706128320423886,,,,,,,,,,,,,,,,,,,354,2023-11-21_09h17.07.259,leap3,2022.2.5,59.997500844092336,
,,,,,,,,,,,,,,,,,,,,0,0,0,0,27,0,27,0,,,,,,alber,nw,h,lower,,,,,,,4,nw,LoDemTar,h,1,0.554614717955701,,,,,,,,,,,,,,,,,,,354,2023-11-21_09h17.07.259,leap3,2022.2.5,59.997500844092336,
,,,,,,,,,,,,,,,,,,,,0,0,0,0,28,0,28,0,,,,,,urgent,w,g,lower,,,,,,,4,nw,LoDemTar,g,1,0.778392841340974,,,,,,,,,,,,,,,,,,,354,2023-11-21_09h17.07.259,leap3,2022.2.5,59.997500844092336,
,,,,,,,,,,,,,,,,,,,,0,0,0,0,29,0,29,0,,,,,,picnic,w,g,lower,,,,,,,4,w,LoDemTar,g,1,0.6263236155500636,,,,,,,,,,,,,,,,,,,354,2023-11-21_09h17.07.259,leap3,2022.2.5,59.997500844092336,
,,,,,,,,,,,,,,,,,,,,0,0,0,0,,,,,,,,,,,,,,,,,,,,,,,,,,,,1,,,,,,,,,,,,,,,,354,2023-11-21_09h17.07.259,leap3,2022.2.5,59.997500844092336,
,,,,,,,,,,,,,,,,,,,,1,0,1,0,0,0,0,0,,,,,,naxis,nw,h,lower,,,,,,,3,nw,LoDemNoTar,h,1,1.0533454670803621,,,,,,,,,,,,,,,,,,,354,2023-11-21_09h17.07.259,leap3,2022.2.5,59.997500844092336,
,,,,,,,,,,,,,,,,,,,,1,0,1,0,1,0,1,0,,,,,,religious,w,g,lower,,,,,,,3,w,LoDemNoTar,g,1,0.6285940803354606,,,,,,,,,,,,,,,,,,,354,2023-11-21_09h17.07.259,leap3,2022.2.5,59.997500844092336,
,,,,,,,,,,,,,,,,,,,,1,0,1,0,2,0,2,0,,,,,,chemical,w,g,lower,,,,,,,3,w,LoDemNoTar,g,1,0.6106307856971398,,,,,,,,,,,,,,,,,,,354,2023-11-21_09h17.07.259,leap3,2022.2.5,59.997500844092336,
,,,,,,,,,,,,,,,,,,,,1,0,1,0,3,0,3,0,,,,,,elpousal,nw,h,lower,,,,,,,3,nw,LoDemNoTar,h,1,0.7212391265202314,,,,,,,,,,,,,,,,,,,354,2023-11-21_09h17.07.259,leap3,2022.2.5,59.997500844092336,
,,,,,,,,,,,,,,,,,,,,1,0,1,0,4,0,4,0,,,,,,hangar,w,g,lower,,,,,,,3,w,LoDemNoTar,h,0,1.1393291350686923,,,,,,,,,,,,,,,,,,,354,2023-11-21_09h17.07.259,leap3,2022.2.5,59.997500844092336,
,,,,,,,,,,,,,,,,,,,,1,0,1,0,5,0,5,0,,,,,,melodic,w,g,lower,,,,,,,3,w,LoDemNoTar,g,1,0.8355462544132024,,,,,,,,,,,,,,,,,,,354,2023-11-21_09h17.07.259,leap3,2022.2.5,59.997500844092336,
,,,,,,,,,,,,,,,,,,,,1,0,1,0,6,0,6,0,,,,,,pranny,nw,h,lower,,,,,,,3,nw,LoDemNoTar,h,1,0.8248124071396887,,,,,,,,,,,,,,,,,,,354,2023-11-21_09h17.07.259,leap3,2022.2.5,59.997500844092336,
,,,,,,,,,,,,,,,,,,,,1,0,1,0,7,0,7,0,,,,,,rumblos,nw,h,lower,,,,,,,3,nw,LoDemNoTar,h,1,1.782816655933857,,,,,,,,,,,,,,,,,,,354,2023-11-21_09h17.07.259,leap3,2022.2.5,59.997500844092336,
,,,,,,,,,,,,,,,,,,,,1,0,1,0,8,0,8,0,,,,,,irregular,w,g,lower,,,,,,,3,w,LoDemNoTar,g,1,0.8627565166680142,,,,,,,,,,,,,,,,,,,354,2023-11-21_09h17.07.259,leap3,2022.2.5,59.997500844092336,
,,,,,,,,,,,,,,,,,,,,1,0,1,0,9,0,9,0,,,,,,leather,w,g,lower,,,,,,,3,w,LoDemNoTar,g,1,0.8993725159671158,,,,,,,,,,,,,,,,,,,354,2023-11-21_09h17.07.259,leap3,2022.2.5,59.997500844092336,
,,,,,,,,,,,,,,,,,,,,1,0,1,0,10,0,10,0,,,,,,committed,w,g,lower,,,,,,,3,w,LoDemNoTar,g,1,0.7107111363438889,,,,,,,,,,,,,,,,,,,354,2023-11-21_09h17.07.259,leap3,2022.2.5,59.997500844092336,
,,,,,,,,,,,,,,,,,,,,1,0,1,0,11,0,11,0,,,,,,baults,nw,h,lower,,,,,,,3,nw,LoDemNoTar,h,1,0.9284545079572126,,,,,,,,,,,,,,,,,,,354,2023-11-21_09h17.07.259,leap3,2022.2.5,59.997500844092336,
,,,,,,,,,,,,,,,,,,,,1,0,1,0,12,0,12,0,,,,,,frunted,nw,h,lower,,,,,,,3,nw,LoDemNoTar,g,0,0.7633356935111806,,,,,,,,,,,,,,,,,,,354,2023-11-21_09h17.07.259,leap3,2022.2.5,59.997500844092336,
,,,,,,,,,,,,,,,,,,,,1,0,1,0,13,0,13,0,,,,,,odacles,nw,h,lower,,,,,,,3,nw,LoDemNoTar,h,1,0.9629503603791818,,,,,,,,,,,,,,,,,,,354,2023-11-21_09h17.07.259,leap3,2022.2.5,59.997500844092336,
,,,,,,,,,,,,,,,,,,,,1,0,1,0,14,0,14,0,,,,,,pimorous,nw,h,lower,,,,,,,3,nw,LoDemNoTar,h,1,0.8275887612253428,,,,,,,,,,,,,,,,,,,354,2023-11-21_09h17.07.259,leap3,2022.2.5,59.997500844092336,
,,,,,,,,,,,,,,,,,,,,1,0,1,0,15,0,15,0,,,,,,paterways,nw,h,lower,,,,,,,3,nw,LoDemNoTar,h,1,0.7695437032962218,,,,,,,,,,,,,,,,,,,354,2023-11-21_09h17.07.259,leap3,2022.2.5,59.997500844092336,
,,,,,,,,,,,,,,,,,,,,1,0,1,0,16,0,16,0,,,,,,urique,nw,h,lower,,,,,,,3,nw,LoDemNoTar,h,1,0.8971862653270364,,,,,,,,,,,,,,,,,,,354,2023-11-21_09h17.07.259,leap3,2022.2.5,59.997500844092336,
,,,,,,,,,,,,,,,,,,,,1,0,1,0,17,0,17,0,,,,,,slightly,w,g,lower,,,,,,,3,w,LoDemNoTar,g,1,0.8035783391678706,,,,,,,,,,,,,,,,,,,354,2023-11-21_09h17.07.259,leap3,2022.2.5,59.997500844092336,
,,,,,,,,,,,,,,,,,,,,1,0,1,0,18,0,18,0,,,,,,assent,w,g,lower,,,,,,,3,w,LoDemNoTar,g,1,0.6423119498649612,,,,,,,,,,,,,,,,,,,354,2023-11-21_09h17.07.259,leap3,2022.2.5,59.997500844092336,
,,,,,,,,,,,,,,,,,,,,1,0,1,0,19,0,19,0,,,,,,issue,w,g,lower,,,,,,,3,w,LoDemNoTar,g,1,0.5361241032369435,,,,,,,,,,,,,,,,,,,354,2023-11-21_09h17.07.259,leap3,2022.2.5,59.997500844092336,
,,,,,,,,,,,,,,,,,,,,1,0,1,0,20,0,20,0,,,,,,punctual,w,g,lower,,,,,,,3,w,LoDemNoTar,g,1,0.9700575611786917,,,,,,,,,,,,,,,,,,,354,2023-11-21_09h17.07.259,leap3,2022.2.5,59.997500844092336,
,,,,,,,,,,,,,,,,,,,,1,0,1,0,21,0,21,0,,,,,,stelled,nw,h,lower,,,,,,,3,nw,LoDemNoTar,g,0,1.32906809495762,,,,,,,,,,,,,,,,,,,354,2023-11-21_09h17.07.259,leap3,2022.2.5,59.997500844092336,
,,,,,,,,,,,,,,,,,,,,1,0,1,0,22,0,22,0,,,,,,hangar,w,g,lower,,,,,,,3,w,LoDemNoTar,g,1,1.2989531952189282,,,,,,,,,,,,,,,,,,,354,2023-11-21_09h17.07.259,leap3,2022.2.5,59.997500844092336,
,,,,,,,,,,,,,,,,,,,,1,0,1,0,23,0,23,0,,,,,,trises,nw,h,lower,,,,,,,3,nw,LoDemNoTar,h,1,1.478325953008607,,,,,,,,,,,,,,,,,,,354,2023-11-21_09h17.07.259,leap3,2022.2.5,59.997500844092336,
,,,,,,,,,,,,,,,,,,,,1,0,1,0,24,0,24,0,,,,,,condensed,w,g,lower,,,,,,,3,w,LoDemNoTar,g,1,0.6823550772387534,,,,,,,,,,,,,,,,,,,354,2023-11-21_09h17.07.259,leap3,2022.2.5,59.997500844092336,
,,,,,,,,,,,,,,,,,,,,1,0,1,0,25,0,25,0,,,,,,maiden,w,g,lower,,,,,,,3,w,LoDemNoTar,g,1,0.7423494388349354,,,,,,,,,,,,,,,,,,,354,2023-11-21_09h17.07.259,leap3,2022.2.5,59.997500844092336,
,,,,,,,,,,,,,,,,,,,,1,0,1,0,26,0,26,0,,,,,,tibs,nw,h,lower,,,,,,,3,nw,LoDemNoTar,h,1,0.9674991379724815,,,,,,,,,,,,,,,,,,,354,2023-11-21_09h17.07.259,leap3,2022.2.5,59.997500844092336,
,,,,,,,,,,,,,,,,,,,,1,0,1,0,27,0,27,0,,,,,,breiled,nw,h,lower,,,,,,,3,nw,LoDemNoTar,h,1,0.8714915580349043,,,,,,,,,,,,,,,,,,,354,2023-11-21_09h17.07.259,leap3,2022.2.5,59.997500844092336,
,,,,,,,,,,,,,,,,,,,,1,0,1,0,28,0,28,0,,,,,,peems,nw,h,lower,,,,,,,3,nw,LoDemNoTar,h,1,0.8115041389828548,,,,,,,,,,,,,,,,,,,354,2023-11-21_09h17.07.259,leap3,2022.2.5,59.997500844092336,
,,,,,,,,,,,,,,,,,,,,1,0,1,0,29,0,29,0,,,,,,enunciate,w,g,lower,,,,,,,3,w,LoDemNoTar,g,1,0.9691641052486375,,,,,,,,,,,,,,,,,,,354,2023-11-21_09h17.07.259,leap3,2022.2.5,59.997500844092336,
,,,,,,,,,,,,,,,,,,,,1,0,1,0,,,,,,,,,,,,,,,,,,,,,,,,,,,,NA,,,,,,,,,,,,,,,,354,2023-11-21_09h17.07.259,leap3,2022.2.5,59.997500844092336,
,,,,,,,,,,,,,,,,,,,,2,0,2,0,0,0,0,0,,,,,,congraks,nw,h,upper,,,,,,,2,nw,HiDemNoTar,h,1,0.9769598104758188,,,,,,,,,,,,,,,,,,,354,2023-11-21_09h17.07.259,leap3,2022.2.5,59.997500844092336,
,,,,,,,,,,,,,,,,,,,,2,0,2,0,1,0,1,0,,,,,,castaway,w,g,upper,,,,,,,2,w,HiDemNoTar,g,1,0.9529647824820131,,,,,,,,,,,,,,,,,,,354,2023-11-21_09h17.07.259,leap3,2022.2.5,59.997500844092336,
,,,,,,,,,,,,,,,,,,,,2,0,2,0,2,0,2,0,,,,,,agony,w,g,upper,,,,,,,2,w,HiDemNoTar,g,1,0.6726885475218296,,,,,,,,,,,,,,,,,,,354,2023-11-21_09h17.07.259,leap3,2022.2.5,59.997500844092336,
,,,,,,,,,,,,,,,,,,,,2,0,2,0,3,0,3,0,,,,,,fuhrek,nw,h,upper,,,,,,,2,nw,HiDemNoTar,h,1,0.7886742256814614,,,,,,,,,,,,,,,,,,,354,2023-11-21_09h17.07.259,leap3,2022.2.5,59.997500844092336,
,,,,,,,,,,,,,,,,,,,,2,0,2,0,4,0,4,0,,,,,,togglo,nw,h,upper,,,,,,,2,nw,HiDemNoTar,h,1,0.5078848573612049,,,,,,,,,,,,,,,,,,,354,2023-11-21_09h17.07.259,leap3,2022.2.5,59.997500844092336,
,,,,,,,,,,,,,,,,,,,,2,0,2,0,5,0,5,0,,,,,,reason,w,g,upper,,,,,,,2,w,HiDemNoTar,g,1,0.5654116504592821,,,,,,,,,,,,,,,,,,,354,2023-11-21_09h17.07.259,leap3,2022.2.5,59.997500844092336,
,,,,,,,,,,,,,,,,,,,,2,0,2,0,6,0,6,0,,,,,,etber,nw,h,upper,,,,,,,2,nw,HiDemNoTar,h,1,0.7818978449795395,,,,,,,,,,,,,,,,,,,354,2023-11-21_09h17.07.259,leap3,2022.2.5,59.997500844092336,
,,,,,,,,,,,,,,,,,,,,2,0,2,0,7,0,7,0,,,,,,measure,w,g,upper,,,,,,,2,w,HiDemNoTar,g,1,0.6066932405810803,,,,,,,,,,,,,,,,,,,354,2023-11-21_09h17.07.259,leap3,2022.2.5,59.997500844092336,
,,,,,,,,,,,,,,,,,,,,2,0,2,0,8,0,8,0,,,,,,thrapping,nw,h,upper,,,,,,,2,nw,HiDemNoTar,h,1,1.2139613842591643,,,,,,,,,,,,,,,,,,,354,2023-11-21_09h17.07.259,leap3,2022.2.5,59.997500844092336,
,,,,,,,,,,,,,,,,,,,,2,0,2,0,9,0,9,0,,,,,,bureaug,nw,h,upper,,,,,,,2,nw,HiDemNoTar,h,1,0.748402904951945,,,,,,,,,,,,,,,,,,,354,2023-11-21_09h17.07.259,leap3,2022.2.5,59.997500844092336,
,,,,,,,,,,,,,,,,,,,,2,0,2,0,10,0,10,0,,,,,,column,w,g,upper,,,,,,,2,w,HiDemNoTar,g,1,0.7338625125121325,,,,,,,,,,,,,,,,,,,354,2023-11-21_09h17.07.259,leap3,2022.2.5,59.997500844092336,
,,,,,,,,,,,,,,,,,,,,2,0,2,0,11,0,11,0,,,,,,martial,w,g,upper,,,,,,,2,w,HiDemNoTar,h,0,0.9030408167745918,,,,,,,,,,,,,,,,,,,354,2023-11-21_09h17.07.259,leap3,2022.2.5,59.997500844092336,
,,,,,,,,,,,,,,,,,,,,2,0,2,0,12,0,12,0,,,,,,noils,nw,h,upper,,,,,,,2,nw,HiDemNoTar,h,1,1.0726465310435742,,,,,,,,,,,,,,,,,,,354,2023-11-21_09h17.07.259,leap3,2022.2.5,59.997500844092336,
,,,,,,,,,,,,,,,,,,,,2,0,2,0,13,0,13,0,,,,,,zears,nw,h,upper,,,,,,,2,nw,HiDemNoTar,h,1,1.2686502472497523,,,,,,,,,,,,,,,,,,,354,2023-11-21_09h17.07.259,leap3,2022.2.5,59.997500844092336,
,,,,,,,,,,,,,,,,,,,,2,0,2,0,14,0,14,0,,,,,,walsams,nw,h,upper,,,,,,,2,nw,HiDemNoTar,h,1,0.9925943845883012,,,,,,,,,,,,,,,,,,,354,2023-11-21_09h17.07.259,leap3,2022.2.5,59.997500844092336,
,,,,,,,,,,,,,,,,,,,,2,0,2,0,15,0,15,0,,,,,,minister,w,g,upper,,,,,,,2,w,HiDemNoTar,g,1,0.7919622041517869,,,,,,,,,,,,,,,,,,,354,2023-11-21_09h17.07.259,leap3,2022.2.5,59.997500844092336,
,,,,,,,,,,,,,,,,,,,,2,0,2,0,16,0,16,0,,,,,,asthmatic,w,g,upper,,,,,,,2,w,HiDemNoTar,g,1,1.0312713694293052,,,,,,,,,,,,,,,,,,,354,2023-11-21_09h17.07.259,leap3,2022.2.5,59.997500844092336,
,,,,,,,,,,,,,,,,,,,,2,0,2,0,17,0,17,0,,,,,,ilterfere,nw,h,upper,,,,,,,2,nw,HiDemNoTar,h,1,1.1972241768380627,,,,,,,,,,,,,,,,,,,354,2023-11-21_09h17.07.259,leap3,2022.2.5,59.997500844092336,
,,,,,,,,,,,,,,,,,,,,2,0,2,0,18,0,18,0,,,,,,undertake,w,g,upper,,,,,,,2,w,HiDemNoTar,g,1,0.6524780300678685,,,,,,,,,,,,,,,,,,,354,2023-11-21_09h17.07.259,leap3,2022.2.5,59.997500844092336,
,,,,,,,,,,,,,,,,,,,,2,0,2,0,19,0,19,0,,,,,,bother,w,g,upper,,,,,,,2,w,HiDemNoTar,g,1,0.9451908098999411,,,,,,,,,,,,,,,,,,,354,2023-11-21_09h17.07.259,leap3,2022.2.5,59.997500844092336,
,,,,,,,,,,,,,,,,,,,,2,0,2,0,20,0,20,0,,,,,,grefab,nw,h,upper,,,,,,,2,nw,HiDemNoTar,h,1,0.6013780831126496,,,,,,,,,,,,,,,,,,,354,2023-11-21_09h17.07.259,leap3,2022.2.5,59.997500844092336,
,,,,,,,,,,,,,,,,,,,,2,0,2,0,21,0,21,0,,,,,,senior,w,g,upper,,,,,,,2,w,HiDemNoTar,g,1,0.6480856072157621,,,,,,,,,,,,,,,,,,,354,2023-11-21_09h17.07.259,leap3,2022.2.5,59.997500844092336,
,,,,,,,,,,,,,,,,,,,,2,0,2,0,22,0,22,0,,,,,,carony,nw,h,upper,,,,,,,2,nw,HiDemNoTar,h,1,1.8373974589630961,,,,,,,,,,,,,,,,,,,354,2023-11-21_09h17.07.259,leap3,2022.2.5,59.997500844092336,
,,,,,,,,,,,,,,,,,,,,2,0,2,0,23,0,23,0,,,,,,twarfs,nw,h,upper,,,,,,,2,nw,HiDemNoTar,h,1,0.706670964602381,,,,,,,,,,,,,,,,,,,354,2023-11-21_09h17.07.259,leap3,2022.2.5,59.997500844092336,
,,,,,,,,,,,,,,,,,,,,2,0,2,0,24,0,24,0,,,,,,charcoal,w,g,upper,,,,,,,2,w,HiDemNoTar,g,1,0.7972652879543602,,,,,,,,,,,,,,,,,,,354,2023-11-21_09h17.07.259,leap3,2022.2.5,59.997500844092336,
,,,,,,,,,,,,,,,,,,,,2,0,2,0,25,0,25,0,,,,,,unversed,w,g,upper,,,,,,,2,w,HiDemNoTar,g,1,0.6206516792299226,,,,,,,,,,,,,,,,,,,354,2023-11-21_09h17.07.259,leap3,2022.2.5,59.997500844092336,
,,,,,,,,,,,,,,,,,,,,2,0,2,0,26,0,26,0,,,,,,susher,nw,h,upper,,,,,,,2,nw,HiDemNoTar,h,1,1.273472193046473,,,,,,,,,,,,,,,,,,,354,2023-11-21_09h17.07.259,leap3,2022.2.5,59.997500844092336,
,,,,,,,,,,,,,,,,,,,,2,0,2,0,27,0,27,0,,,,,,shimble,nw,h,upper,,,,,,,2,nw,HiDemNoTar,g,0,1.4844271102920175,,,,,,,,,,,,,,,,,,,354,2023-11-21_09h17.07.259,leap3,2022.2.5,59.997500844092336,
,,,,,,,,,,,,,,,,,,,,2,0,2,0,28,0,28,0,,,,,,expired,w,g,upper,,,,,,,2,w,HiDemNoTar,g,1,0.6327770238276571,,,,,,,,,,,,,,,,,,,354,2023-11-21_09h17.07.259,leap3,2022.2.5,59.997500844092336,
,,,,,,,,,,,,,,,,,,,,2,0,2,0,29,0,29,0,,,,,,combat,w,g,upper,,,,,,,2,w,HiDemNoTar,g,1,1.0148323831381276,,,,,,,,,,,,,,,,,,,354,2023-11-21_09h17.07.259,leap3,2022.2.5,59.997500844092336,
,,,,,,,,,,,,,,,,,,,,2,0,2,0,,,,,,,,,,,,,,,,,,,,,,,,,,,,NA,,,,,,,,,,,,,,,,354,2023-11-21_09h17.07.259,leap3,2022.2.5,59.997500844092336,
,,,,,,,,,,,,,,,,,,,,3,0,3,0,0,0,0,0,,,,,,decency,w,g,upper,,,,,,,1,w,HiDemTar,g,1,0.7006808856967837,,,,,,,,,,,,,,,,,,,354,2023-11-21_09h17.07.259,leap3,2022.2.5,59.997500844092336,
,,,,,,,,,,,,,,,,,,,,3,0,3,0,1,0,1,0,,,,,,virulent,w,g,upper,,,,,,,1,w,HiDemTar,g,1,1.5991634592646733,,,,,,,,,,,,,,,,,,,354,2023-11-21_09h17.07.259,leap3,2022.2.5,59.997500844092336,
,,,,,,,,,,,,,,,,,,,,3,0,3,0,2,0,2,0,,,,,,demon,w,g,upper,,,,,,,1,w,HiDemTar,g,1,0.662393580423668,,,,,,,,,,,,,,,,,,,354,2023-11-21_09h17.07.259,leap3,2022.2.5,59.997500844092336,
,,,,,,,,,,,,,,,,,,,,3,0,3,0,3,0,3,0,,,,,,obtuse,w,g,upper,,,,,,,1,w,HiDemTar,g,1,0.7389802646357566,,,,,,,,,,,,,,,,,,,354,2023-11-21_09h17.07.259,leap3,2022.2.5,59.997500844092336,
,,,,,,,,,,,,,,,,,,,,3,0,3,0,4,0,4,0,,,,,,moyeur,nw,h,upper,,,,,,,1,nw,HiDemTar,h,1,0.8122856110567227,,,,,,,,,,,,,,,,,,,354,2023-11-21_09h17.07.259,leap3,2022.2.5,59.997500844092336,
,,,,,,,,,,,,,,,,,,,,3,0,3,0,5,0,5,0,,,,,,ludictous,nw,h,upper,,,,,,,1,nw,HiDemTar,g,0,0.8589243149617687,,,,,,,,,,,,,,,,,,,354,2023-11-21_09h17.07.259,leap3,2022.2.5,59.997500844092336,
,,,,,,,,,,,,,,,,,,,,3,0,3,0,6,0,6,0,,,,,,saucer,w,g,upper,,,,,,,1,w,HiDemTar,g,1,1.063458423013799,,,,,,,,,,,,,,,,,,,354,2023-11-21_09h17.07.259,leap3,2022.2.5,59.997500844092336,
,,,,,,,,,,,,,,,,,,,,3,0,3,0,7,0,7,0,,,,,,beggarlan,nw,h,upper,,,,,,,1,nw,HiDemTar,h,1,1.1321177983190864,,,,,,,,,,,,,,,,,,,354,2023-11-21_09h17.07.259,leap3,2022.2.5,59.997500844092336,
,,,,,,,,,,,,,,,,,,,,3,0,3,0,8,0,8,0,,,,,,anterior,w,g,upper,,,,,,,1,w,HiDemTar,h,0,0.8940751671325415,,,,,,,,,,,,,,,,,,,354,2023-11-21_09h17.07.259,leap3,2022.2.5,59.997500844092336,
,,,,,,,,,,,,,,,,,,,,3,0,3,0,9,0,9,0,,,,,,dehydrate,w,g,upper,,,,,,,1,w,HiDemTar,g,1,0.8173562755109742,,,,,,,,,,,,,,,,,,,354,2023-11-21_09h17.07.259,leap3,2022.2.5,59.997500844092336,
,,,,,,,,,,,,,,,,,,,,3,0,3,0,10,0,10,0,,,,,,bamps,nw,h,upper,,,,,,,1,nw,HiDemTar,h,1,0.9663448893697932,,,,,,,,,,,,,,,,,,,354,2023-11-21_09h17.07.259,leap3,2022.2.5,59.997500844092336,
,,,,,,,,,,,,,,,,,,,,3,0,3,0,11,0,11,0,,,,,,olerates,nw,h,upper,,,,,,,1,nw,HiDemTar,h,1,1.2790547836339101,,,,,,,,,,,,,,,,,,,354,2023-11-21_09h17.07.259,leap3,2022.2.5,59.997500844092336,
,,,,,,,,,,,,,,,,,,,,3,0,3,0,12,0,12,0,,,,,,clarms,nw,h,upper,,,,,,,1,nw,HiDemTar,h,1,0.7629870644304901,,,,,,,,,,,,,,,,,,,354,2023-11-21_09h17.07.259,leap3,2022.2.5,59.997500844092336,
,,,,,,,,,,,,,,,,,,,,3,0,3,0,13,0,13,0,,,,,,esdings,nw,h,upper,,,,,,,1,nw,HiDemTar,h,1,0.6424281595973298,,,,,,,,,,,,,,,,,,,354,2023-11-21_09h17.07.259,leap3,2022.2.5,59.997500844092336,
,,,,,,,,,,,,,,,,,,,,3,0,3,0,14,0,14,0,,,,,,sefine,nw,h,upper,,,,,,,1,nw,HiDemTar,h,1,1.2636828131508082,,,,,,,,,,,,,,,,,,,354,2023-11-21_09h17.07.259,leap3,2022.2.5,59.997500844092336,
,,,,,,,,,,,,,,,,,,,,3,0,3,0,15,0,15,0,,,,,,jaguar,target,q,upper,,,,,,,1,target,HiDemTar,h,0,0.7093428809894249,1,1,,,,,,,,,,,,,,,,,354,2023-11-21_09h17.07.259,leap3,2022.2.5,59.997500844092336,
,,,,,,,,,,,,,,,,,,,,3,0,3,0,16,0,16,0,,,,,,daylight,w,g,upper,,,,,,,1,aftertar1,HiDemTar,g,1,0.9122636368265375,,,,,,,,,,,,,,,,,,,354,2023-11-21_09h17.07.259,leap3,2022.2.5,59.997500844092336,
,,,,,,,,,,,,,,,,,,,,3,0,3,0,17,0,17,0,,,,,,oalis,nw,h,upper,,,,,,,1,aftertar2,HiDemTar,h,1,1.1547198196640238,,,,,,,,,,,,,,,,,,,354,2023-11-21_09h17.07.259,leap3,2022.2.5,59.997500844092336,
,,,,,,,,,,,,,,,,,,,,3,0,3,0,18,0,18,0,,,,,,whirlpool,w,g,upper,,,,,,,1,aftertar3,HiDemTar,g,1,1.194505173014477,,,,,,,,,,,,,,,,,,,354,2023-11-21_09h17.07.259,leap3,2022.2.5,59.997500844092336,
,,,,,,,,,,,,,,,,,,,,3,0,3,0,19,0,19,0,,,,,,louches,nw,h,upper,,,,,,,1,w,HiDemTar,h,1,1.0897498743142933,,,,,,,,,,,,,,,,,,,354,2023-11-21_09h17.07.259,leap3,2022.2.5,59.997500844092336,
,,,,,,,,,,,,,,,,,,,,3,0,3,0,20,0,20,0,,,,,,coupling,w,g,upper,,,,,,,1,nw,HiDemTar,g,1,0.9010163542116061,,,,,,,,,,,,,,,,,,,354,2023-11-21_09h17.07.259,leap3,2022.2.5,59.997500844092336,
,,,,,,,,,,,,,,,,,,,,3,0,3,0,21,0,21,0,,,,,,shurk,nw,h,upper,,,,,,,1,w,HiDemTar,g,0,1.3755860615056008,,,,,,,,,,,,,,,,,,,354,2023-11-21_09h17.07.259,leap3,2022.2.5,59.997500844092336,
,,,,,,,,,,,,,,,,,,,,3,0,3,0,22,0,22,0,,,,,,lifetime,w,g,upper,,,,,,,1,nw,HiDemTar,g,1,0.8395794838434085,,,,,,,,,,,,,,,,,,,354,2023-11-21_09h17.07.259,leap3,2022.2.5,59.997500844092336,
,,,,,,,,,,,,,,,,,,,,3,0,3,0,23,0,23,0,,,,,,dealer,w,g,upper,,,,,,,1,w,HiDemTar,g,1,0.9809236158616841,,,,,,,,,,,,,,,,,,,354,2023-11-21_09h17.07.259,leap3,2022.2.5,59.997500844092336,
,,,,,,,,,,,,,,,,,,,,3,0,3,0,24,0,24,0,,,,,,distrust,w,g,upper,,,,,,,1,w,HiDemTar,g,1,0.7160247846040875,,,,,,,,,,,,,,,,,,,354,2023-11-21_09h17.07.259,leap3,2022.2.5,59.997500844092336,
,,,,,,,,,,,,,,,,,,,,3,0,3,0,25,0,25,0,,,,,,greakable,nw,h,upper,,,,,,,1,w,HiDemTar,h,1,1.1507412240607664,,,,,,,,,,,,,,,,,,,354,2023-11-21_09h17.07.259,leap3,2022.2.5,59.997500844092336,
,,,,,,,,,,,,,,,,,,,,3,0,3,0,26,0,26,0,,,,,,tuckel,nw,h,upper,,,,,,,1,nw,HiDemTar,h,1,1.8151169006014243,,,,,,,,,,,,,,,,,,,354,2023-11-21_09h17.07.259,leap3,2022.2.5,59.997500844092336,
,,,,,,,,,,,,,,,,,,,,3,0,3,0,27,0,27,0,,,,,,eyesight,w,g,upper,,,,,,,1,nw,HiDemTar,g,1,0.5817670262185857,,,,,,,,,,,,,,,,,,,354,2023-11-21_09h17.07.259,leap3,2022.2.5,59.997500844092336,
,,,,,,,,,,,,,,,,,,,,3,0,3,0,28,0,28,0,,,,,,dorte,nw,h,upper,,,,,,,1,w,HiDemTar,h,1,0.6777788319159299,,,,,,,,,,,,,,,,,,,354,2023-11-21_09h17.07.259,leap3,2022.2.5,59.997500844092336,
,,,,,,,,,,,,,,,,,,,,3,0,3,0,29,0,29,0,,,,,,volume,w,g,upper,,,,,,,1,nw,HiDemTar,g,1,0.553745107492432,,,,,,,,,,,,,,,,,,,354,2023-11-21_09h17.07.259,leap3,2022.2.5,59.997500844092336,
,,,,,,,,,,,,,,,,,,,,3,0,3,0,,,,,,,,,,,,,,,,,,,,,,,,,,,,1,,,,,,,,,,,,,,,,354,2023-11-21_09h17.07.259,leap3,2022.2.5,59.997500844092336,
,,,,,,,,,,,,,,,,,,,,4,0,4,0,0,0,0,0,,,,,,otiates,nw,h,lower,,,,,,,3,nw,LoDemNoTar,h,1,0.7842301877681166,,,,,,,,,,,,,,,,,,,354,2023-11-21_09h17.07.259,leap3,2022.2.5,59.997500844092336,
,,,,,,,,,,,,,,,,,,,,4,0,4,0,1,0,1,0,,,,,,primal,w,g,lower,,,,,,,3,w,LoDemNoTar,h,0,1.6235237176297233,,,,,,,,,,,,,,,,,,,354,2023-11-21_09h17.07.259,leap3,2022.2.5,59.997500844092336,
,,,,,,,,,,,,,,,,,,,,4,0,4,0,2,0,2,0,,,,,,frader,nw,h,lower,,,,,,,3,nw,LoDemNoTar,h,1,1.1585390422260389,,,,,,,,,,,,,,,,,,,354,2023-11-21_09h17.07.259,leap3,2022.2.5,59.997500844092336,
,,,,,,,,,,,,,,,,,,,,4,0,4,0,3,0,3,0,,,,,,single,w,g,lower,,,,,,,3,w,LoDemNoTar,g,1,0.5751551501452923,,,,,,,,,,,,,,,,,,,354,2023-11-21_09h17.07.259,leap3,2022.2.5,59.997500844092336,
,,,,,,,,,,,,,,,,,,,,4,0,4,0,4,0,4,0,,,,,,correct,w,g,lower,,,,,,,3,w,LoDemNoTar,g,1,0.5431377325439826,,,,,,,,,,,,,,,,,,,354,2023-11-21_09h17.07.259,leap3,2022.2.5,59.997500844092336,
,,,,,,,,,,,,,,,,,,,,4,0,4,0,5,0,5,0,,,,,,butcher,w,g,lower,,,,,,,3,w,LoDemNoTar,g,1,0.7044448708184063,,,,,,,,,,,,,,,,,,,354,2023-11-21_09h17.07.259,leap3,2022.2.5,59.997500844092336,
,,,,,,,,,,,,,,,,,,,,4,0,4,0,6,0,6,0,,,,,,footstep,w,g,lower,,,,,,,3,w,LoDemNoTar,g,1,0.5150478992145509,,,,,,,,,,,,,,,,,,,354,2023-11-21_09h17.07.259,leap3,2022.2.5,59.997500844092336,
,,,,,,,,,,,,,,,,,,,,4,0,4,0,7,0,7,0,,,,,,unwose,nw,h,lower,,,,,,,3,nw,LoDemNoTar,g,0,0.8048053319798782,,,,,,,,,,,,,,,,,,,354,2023-11-21_09h17.07.259,leap3,2022.2.5,59.997500844092336,
,,,,,,,,,,,,,,,,,,,,4,0,4,0,8,0,8,0,,,,,,curricula,w,g,lower,,,,,,,3,w,LoDemNoTar,g,1,1.6833888902328908,,,,,,,,,,,,,,,,,,,354,2023-11-21_09h17.07.259,leap3,2022.2.5,59.997500844092336,
,,,,,,,,,,,,,,,,,,,,4,0,4,0,9,0,9,0,,,,,,ireology,nw,h,lower,,,,,,,3,nw,LoDemNoTar,h,1,1.8552958574146032,,,,,,,,,,,,,,,,,,,354,2023-11-21_09h17.07.259,leap3,2022.2.5,59.997500844092336,
,,,,,,,,,,,,,,,,,,,,4,0,4,0,10,0,10,0,,,,,,wrestle,w,g,lower,,,,,,,3,w,LoDemNoTar,g,1,1.003905356163159,,,,,,,,,,,,,,,,,,,354,2023-11-21_09h17.07.259,leap3,2022.2.5,59.997500844092336,
,,,,,,,,,,,,,,,,,,,,4,0,4,0,11,0,11,0,,,,,,awful,w,g,lower,,,,,,,3,w,LoDemNoTar,g,1,0.5625009761424735,,,,,,,,,,,,,,,,,,,354,2023-11-21_09h17.07.259,leap3,2022.2.5,59.997500844092336,
,,,,,,,,,,,,,,,,,,,,4,0,4,0,12,0,12,0,,,,,,bettled,nw,h,lower,,,,,,,3,nw,LoDemNoTar,g,0,0.5391126530012116,,,,,,,,,,,,,,,,,,,354,2023-11-21_09h17.07.259,leap3,2022.2.5,59.997500844092336,
,,,,,,,,,,,,,,,,,,,,4,0,4,0,13,0,13,0,,,,,,preight,nw,h,lower,,,,,,,3,nw,LoDemNoTar,h,1,1.0124888722784817,,,,,,,,,,,,,,,,,,,354,2023-11-21_09h17.07.259,leap3,2022.2.5,59.997500844092336,
,,,,,,,,,,,,,,,,,,,,4,0,4,0,14,0,14,0,,,,,,miteous,nw,h,lower,,,,,,,3,nw,LoDemNoTar,h,1,1.2031031775986776,,,,,,,,,,,,,,,,,,,354,2023-11-21_09h17.07.259,leap3,2022.2.5,59.997500844092336,
,,,,,,,,,,,,,,,,,,,,4,0,4,0,15,0,15,0,,,,,,army,w,g,lower,,,,,,,3,w,LoDemNoTar,g,1,0.5217110886005685,,,,,,,,,,,,,,,,,,,354,2023-11-21_09h17.07.259,leap3,2022.2.5,59.997500844092336,
,,,,,,,,,,,,,,,,,,,,4,0,4,0,16,0,16,0,,,,,,bengths,nw,h,lower,,,,,,,3,nw,LoDemNoTar,h,1,0.9547426390927285,,,,,,,,,,,,,,,,,,,354,2023-11-21_09h17.07.259,leap3,2022.2.5,59.997500844092336,
,,,,,,,,,,,,,,,,,,,,4,0,4,0,17,0,17,0,,,,,,pepperoni,w,g,lower,,,,,,,3,w,LoDemNoTar,g,1,0.7953986893408,,,,,,,,,,,,,,,,,,,354,2023-11-21_09h17.07.259,leap3,2022.2.5,59.997500844092336,
,,,,,,,,,,,,,,,,,,,,4,0,4,0,18,0,18,0,,,,,,afford,w,g,lower,,,,,,,3,w,LoDemNoTar,g,1,0.7147350084269419,,,,,,,,,,,,,,,,,,,354,2023-11-21_09h17.07.259,leap3,2022.2.5,59.997500844092336,
,,,,,,,,,,,,,,,,,,,,4,0,4,0,19,0,19,0,,,,,,huffle,nw,h,lower,,,,,,,3,nw,LoDemNoTar,h,1,1.5492920143296942,,,,,,,,,,,,,,,,,,,354,2023-11-21_09h17.07.259,leap3,2022.2.5,59.997500844092336,
,,,,,,,,,,,,,,,,,,,,4,0,4,0,20,0,20,0,,,,,,contact,w,g,lower,,,,,,,3,w,LoDemNoTar,g,1,0.670616997522302,,,,,,,,,,,,,,,,,,,354,2023-11-21_09h17.07.259,leap3,2022.2.5,59.997500844092336,
,,,,,,,,,,,,,,,,,,,,4,0,4,0,21,0,21,0,,,,,,natch,nw,h,lower,,,,,,,3,nw,LoDemNoTar,h,1,0.7053404396865517,,,,,,,,,,,,,,,,,,,354,2023-11-21_09h17.07.259,leap3,2022.2.5,59.997500844092336,
,,,,,,,,,,,,,,,,,,,,4,0,4,0,22,0,22,0,,,,,,companion,w,g,lower,,,,,,,3,w,LoDemNoTar,g,1,0.6039147736737505,,,,,,,,,,,,,,,,,,,354,2023-11-21_09h17.07.259,leap3,2022.2.5,59.997500844092336,
,,,,,,,,,,,,,,,,,,,,4,0,4,0,23,0,23,0,,,,,,glattery,nw,h,lower,,,,,,,3,nw,LoDemNoTar,h,1,1.2437671965453774,,,,,,,,,,,,,,,,,,,354,2023-11-21_09h17.07.259,leap3,2022.2.5,59.997500844092336,
,,,,,,,,,,,,,,,,,,,,4,0,4,0,24,0,24,0,,,,,,misobeyed,nw,h,lower,,,,,,,3,nw,LoDemNoTar,g,0,0.6961541424971074,,,,,,,,,,,,,,,,,,,354,2023-11-21_09h17.07.259,leap3,2022.2.5,59.997500844092336,
,,,,,,,,,,,,,,,,,,,,4,0,4,0,25,0,25,0,,,,,,undue,w,g,lower,,,,,,,3,w,LoDemNoTar,g,1,0.9314321915153414,,,,,,,,,,,,,,,,,,,354,2023-11-21_09h17.07.259,leap3,2022.2.5,59.997500844092336,
,,,,,,,,,,,,,,,,,,,,4,0,4,0,26,0,26,0,,,,,,gablus,nw,h,lower,,,,,,,3,nw,LoDemNoTar,h,1,0.8533812657697126,,,,,,,,,,,,,,,,,,,354,2023-11-21_09h17.07.259,leap3,2022.2.5,59.997500844092336,
,,,,,,,,,,,,,,,,,,,,4,0,4,0,27,0,27,0,,,,,,befin,nw,h,lower,,,,,,,3,nw,LoDemNoTar,h,1,1.330034596961923,,,,,,,,,,,,,,,,,,,354,2023-11-21_09h17.07.259,leap3,2022.2.5,59.997500844092336,
,,,,,,,,,,,,,,,,,,,,4,0,4,0,28,0,28,0,,,,,,hackal,nw,h,lower,,,,,,,3,nw,LoDemNoTar,h,1,1.004013717873022,,,,,,,,,,,,,,,,,,,354,2023-11-21_09h17.07.259,leap3,2022.2.5,59.997500844092336,
,,,,,,,,,,,,,,,,,,,,4,0,4,0,29,0,29,0,,,,,,obviously,w,g,lower,,,,,,,3,w,LoDemNoTar,g,1,0.5946922554867342,,,,,,,,,,,,,,,,,,,354,2023-11-21_09h17.07.259,leap3,2022.2.5,59.997500844092336,
,,,,,,,,,,,,,,,,,,,,4,0,4,0,,,,,,,,,,,,,,,,,,,,,,,,,,,,NA,,,,,,,,,,,,,,,,354,2023-11-21_09h17.07.259,leap3,2022.2.5,59.997500844092336,
,,,,,,,,,,,,,,,,,,,,5,0,5,0,0,0,0,0,,,,,,ronic,nw,h,upper,,,,,,,1,nw,HiDemTar,h,1,0.6728512410772964,,,,,,,,,,,,,,,,,,,354,2023-11-21_09h17.07.259,leap3,2022.2.5,59.997500844092336,
,,,,,,,,,,,,,,,,,,,,5,0,5,0,1,0,1,0,,,,,,gerby,nw,h,upper,,,,,,,1,nw,HiDemTar,h,1,0.6608487466583028,,,,,,,,,,,,,,,,,,,354,2023-11-21_09h17.07.259,leap3,2022.2.5,59.997500844092336,
,,,,,,,,,,,,,,,,,,,,5,0,5,0,2,0,2,0,,,,,,dreaded,w,g,upper,,,,,,,1,w,HiDemTar,g,1,0.8254514093277976,,,,,,,,,,,,,,,,,,,354,2023-11-21_09h17.07.259,leap3,2022.2.5,59.997500844092336,
,,,,,,,,,,,,,,,,,,,,5,0,5,0,3,0,3,0,,,,,,hardest,w,g,upper,,,,,,,1,w,HiDemTar,g,1,0.5914196710800752,,,,,,,,,,,,,,,,,,,354,2023-11-21_09h17.07.259,leap3,2022.2.5,59.997500844092336,
,,,,,,,,,,,,,,,,,,,,5,0,5,0,4,0,4,0,,,,,,newstrint,nw,h,upper,,,,,,,1,nw,HiDemTar,g,0,1.1907602038700134,,,,,,,,,,,,,,,,,,,354,2023-11-21_09h17.07.259,leap3,2022.2.5,59.997500844092336,
,,,,,,,,,,,,,,,,,,,,5,0,5,0,5,0,5,0,,,,,,rewrite,w,g,upper,,,,,,,1,w,HiDemTar,g,1,0.5980596186127514,,,,,,,,,,,,,,,,,,,354,2023-11-21_09h17.07.259,leap3,2022.2.5,59.997500844092336,
,,,,,,,,,,,,,,,,,,,,5,0,5,0,6,0,6,0,,,,,,hasks,nw,h,upper,,,,,,,1,nw,HiDemTar,h,1,0.8614323304500431,,,,,,,,,,,,,,,,,,,354,2023-11-21_09h17.07.259,leap3,2022.2.5,59.997500844092336,
,,,,,,,,,,,,,,,,,,,,5,0,5,0,7,0,7,0,,,,,,rowel,nw,h,upper,,,,,,,1,nw,HiDemTar,h,1,0.5770335205597803,,,,,,,,,,,,,,,,,,,354,2023-11-21_09h17.07.259,leap3,2022.2.5,59.997500844092336,
,,,,,,,,,,,,,,,,,,,,5,0,5,0,8,0,8,0,,,,,,epic,w,g,upper,,,,,,,1,w,HiDemTar,g,1,0.6409901783335954,,,,,,,,,,,,,,,,,,,354,2023-11-21_09h17.07.259,leap3,2022.2.5,59.997500844092336,
,,,,,,,,,,,,,,,,,,,,5,0,5,0,9,0,9,0,,,,,,laser,w,g,upper,,,,,,,1,w,HiDemTar,g,1,0.7010744891595095,,,,,,,,,,,,,,,,,,,354,2023-11-21_09h17.07.259,leap3,2022.2.5,59.997500844092336,
,,,,,,,,,,,,,,,,,,,,5,0,5,0,10,0,10,0,,,,,,amplifier,w,g,upper,,,,,,,1,w,HiDemTar,g,1,0.9997691982425749,,,,,,,,,,,,,,,,,,,354,2023-11-21_09h17.07.259,leap3,2022.2.5,59.997500844092336,
,,,,,,,,,,,,,,,,,,,,5,0,5,0,11,0,11,0,,,,,,frigs,nw,h,upper,,,,,,,1,nw,HiDemTar,h,1,0.7199212790001184,,,,,,,,,,,,,,,,,,,354,2023-11-21_09h17.07.259,leap3,2022.2.5,59.997500844092336,
,,,,,,,,,,,,,,,,,,,,5,0,5,0,12,0,12,0,,,,,,smolvers,nw,h,upper,,,,,,,1,nw,HiDemTar,h,1,1.1863234102493152,,,,,,,,,,,,,,,,,,,354,2023-11-21_09h17.07.259,leap3,2022.2.5,59.997500844092336,
,,,,,,,,,,,,,,,,,,,,5,0,5,0,13,0,13,0,,,,,,buaint,nw,h,upper,,,,,,,1,nw,HiDemTar,h,1,0.7694036480970681,,,,,,,,,,,,,,,,,,,354,2023-11-21_09h17.07.259,leap3,2022.2.5,59.997500844092336,
,,,,,,,,,,,,,,,,,,,,5,0,5,0,14,0,14,0,,,,,,minimum,w,g,upper,,,,,,,1,w,HiDemTar,g,1,0.5774766263784841,,,,,,,,,,,,,,,,,,,354,2023-11-21_09h17.07.259,leap3,2022.2.5,59.997500844092336,
,,,,,,,,,,,,,,,,,,,,5,0,5,0,15,0,15,0,,,,,,aqueduct,w,g,upper,,,,,,,1,w,HiDemTar,h,0,1.6484079759102315,,,,,,,,,,,,,,,,,,,354,2023-11-21_09h17.07.259,leap3,2022.2.5,59.997500844092336,
,,,,,,,,,,,,,,,,,,,,5,0,5,0,16,0,16,0,,,,,,gorilla,target,q,upper,,,,,,,1,target,HiDemTar,g,0,0.7186595742823556,1,1,,,,,,,,,,,,,,,,,354,2023-11-21_09h17.07.259,leap3,2022.2.5,59.997500844092336,
,,,,,,,,,,,,,,,,,,,,5,0,5,0,17,0,17,0,,,,,,mennel,nw,h,upper,,,,,,,1,aftertar1,HiDemTar,h,1,1.3356549181044102,,,,,,,,,,,,,,,,,,,354,2023-11-21_09h17.07.259,leap3,2022.2.5,59.997500844092336,
,,,,,,,,,,,,,,,,,,,,5,0,5,0,18,0,18,0,,,,,,slutches,nw,h,upper,,,,,,,1,aftertar2,HiDemTar,g,0,1.6249713577562943,,,,,,,,,,,,,,,,,,,354,2023-11-21_09h17.07.259,leap3,2022.2.5,59.997500844092336,
,,,,,,,,,,,,,,,,,,,,5,0,5,0,19,0,19,0,,,,,,venturous,w,g,upper,,,,,,,1,aftertar3,HiDemTar,g,1,0.7269892402691767,,,,,,,,,,,,,,,,,,,354,2023-11-21_09h17.07.259,leap3,2022.2.5,59.997500844092336,
,,,,,,,,,,,,,,,,,,,,5,0,5,0,20,0,20,0,,,,,,burrowing,w,g,upper,,,,,,,1,w,HiDemTar,h,0,2.0169045368675143,,,,,,,,,,,,,,,,,,,354,2023-11-21_09h17.07.259,leap3,2022.2.5,59.997500844092336,
,,,,,,,,,,,,,,,,,,,,5,0,5,0,21,0,21,0,,,,,,lutton,nw,h,upper,,,,,,,1,w,HiDemTar,h,1,1.4315251592779532,,,,,,,,,,,,,,,,,,,354,2023-11-21_09h17.07.259,leap3,2022.2.5,59.997500844092336,
,,,,,,,,,,,,,,,,,,,,5,0,5,0,22,0,22,0,,,,,,uncarled,nw,h,upper,,,,,,,1,nw,HiDemTar,h,1,1.9645951041020453,,,,,,,,,,,,,,,,,,,354,2023-11-21_09h17.07.259,leap3,2022.2.5,59.997500844092336,
,,,,,,,,,,,,,,,,,,,,5,0,5,0,23,0,23,0,,,,,,trooper,w,g,upper,,,,,,,1,nw,HiDemTar,g,1,1.077145806280896,,,,,,,,,,,,,,,,,,,354,2023-11-21_09h17.07.259,leap3,2022.2.5,59.997500844092336,
,,,,,,,,,,,,,,,,,,,,5,0,5,0,24,0,24,0,,,,,,dileting,nw,h,upper,,,,,,,1,w,HiDemTar,h,1,2.0411712238565087,,,,,,,,,,,,,,,,,,,354,2023-11-21_09h17.07.259,leap3,2022.2.5,59.997500844092336,
,,,,,,,,,,,,,,,,,,,,5,0,5,0,25,0,25,0,,,,,,ufionize,nw,h,upper,,,,,,,1,nw,HiDemTar,h,1,1.9505485274130479,,,,,,,,,,,,,,,,,,,354,2023-11-21_09h17.07.259,leap3,2022.2.5,59.997500844092336,
,,,,,,,,,,,,,,,,,,,,5,0,5,0,26,0,26,0,,,,,,teamwork,w,g,upper,,,,,,,1,nw,HiDemTar,g,1,0.5750594658311456,,,,,,,,,,,,,,,,,,,354,2023-11-21_09h17.07.259,leap3,2022.2.5,59.997500844092336,
,,,,,,,,,,,,,,,,,,,,5,0,5,0,27,0,27,0,,,,,,warmer,w,g,upper,,,,,,,1,w,HiDemTar,g,1,0.47704734501894563,,,,,,,,,,,,,,,,,,,354,2023-11-21_09h17.07.259,leap3,2022.2.5,59.997500844092336,
,,,,,,,,,,,,,,,,,,,,5,0,5,0,28,0,28,0,,,,,,sonkers,nw,h,upper,,,,,,,1,w,HiDemTar,h,1,0.7847747129853815,,,,,,,,,,,,,,,,,,,354,2023-11-21_09h17.07.259,leap3,2022.2.5,59.997500844092336,
,,,,,,,,,,,,,,,,,,,,5,0,5,0,29,0,29,0,,,,,,cutout,w,g,upper,,,,,,,1,nw,HiDemTar,g,1,0.45663821464404464,,,,,,,,,,,,,,,,,,,354,2023-11-21_09h17.07.259,leap3,2022.2.5,59.997500844092336,
,,,,,,,,,,,,,,,,,,,,5,0,5,0,,,,,,,,,,,,,,,,,,,,,,,,,,,,1,,,,,,,,,,,,,,,,354,2023-11-21_09h17.07.259,leap3,2022.2.5,59.997500844092336,
,,,,,,,,,,,,,,,,,,,,6,0,6,0,0,0,0,0,,,,,,micron,w,g,lower,,,,,,,3,w,LoDemNoTar,g,1,1.317806022008881,,,,,,,,,,,,,,,,,,,354,2023-11-21_09h17.07.259,leap3,2022.2.5,59.997500844092336,
,,,,,,,,,,,,,,,,,,,,6,0,6,0,1,0,1,0,,,,,,abhorrent,w,g,lower,,,,,,,3,w,LoDemNoTar,h,0,1.4079536172794178,,,,,,,,,,,,,,,,,,,354,2023-11-21_09h17.07.259,leap3,2022.2.5,59.997500844092336,
,,,,,,,,,,,,,,,,,,,,6,0,6,0,2,0,2,0,,,,,,hotplate,w,g,lower,,,,,,,3,w,LoDemNoTar,g,1,0.6544529903912917,,,,,,,,,,,,,,,,,,,354,2023-11-21_09h17.07.259,leap3,2022.2.5,59.997500844092336,
,,,,,,,,,,,,,,,,,,,,6,0,6,0,3,0,3,0,,,,,,dumult,nw,h,lower,,,,,,,3,nw,LoDemNoTar,h,1,0.7940367726841941,,,,,,,,,,,,,,,,,,,354,2023-11-21_09h17.07.259,leap3,2022.2.5,59.997500844092336,
,,,,,,,,,,,,,,,,,,,,6,0,6,0,4,0,4,0,,,,,,outset,w,g,lower,,,,,,,3,w,LoDemNoTar,g,1,1.1533579031238332,,,,,,,,,,,,,,,,,,,354,2023-11-21_09h17.07.259,leap3,2022.2.5,59.997500844092336,
,,,,,,,,,,,,,,,,,,,,6,0,6,0,5,0,5,0,,,,,,outflow,w,g,lower,,,,,,,3,w,LoDemNoTar,g,1,0.6660694272723049,,,,,,,,,,,,,,,,,,,354,2023-11-21_09h17.07.259,leap3,2022.2.5,59.997500844092336,
,,,,,,,,,,,,,,,,,,,,6,0,6,0,6,0,6,0,,,,,,record,w,g,lower,,,,,,,3,w,LoDemNoTar,g,1,0.5427133409539238,,,,,,,,,,,,,,,,,,,354,2023-11-21_09h17.07.259,leap3,2022.2.5,59.997500844092336,
,,,,,,,,,,,,,,,,,,,,6,0,6,0,7,0,7,0,,,,,,other,w,g,lower,,,,,,,3,w,LoDemNoTar,g,1,0.5599811888532713,,,,,,,,,,,,,,,,,,,354,2023-11-21_09h17.07.259,leap3,2022.2.5,59.997500844092336,
,,,,,,,,,,,,,,,,,,,,6,0,6,0,8,0,8,0,,,,,,ifkling,nw,h,lower,,,,,,,3,nw,LoDemNoTar,h,1,0.5605619351845235,,,,,,,,,,,,,,,,,,,354,2023-11-21_09h17.07.259,leap3,2022.2.5,59.997500844092336,
,,,,,,,,,,,,,,,,,,,,6,0,6,0,9,0,9,0,,,,,,glamorous,w,g,lower,,,,,,,3,w,LoDemNoTar,g,1,0.8093688997905701,,,,,,,,,,,,,,,,,,,354,2023-11-21_09h17.07.259,leap3,2022.2.5,59.997500844092336,
,,,,,,,,,,,,,,,,,,,,6,0,6,0,10,0,10,0,,,,,,otoist,nw,h,lower,,,,,,,3,nw,LoDemNoTar,h,1,0.7039359629852697,,,,,,,,,,,,,,,,,,,354,2023-11-21_09h17.07.259,leap3,2022.2.5,59.997500844092336,
,,,,,,,,,,,,,,,,,,,,6,0,6,0,11,0,11,0,,,,,,lofty,w,g,lower,,,,,,,3,w,LoDemNoTar,g,1,1.0985181184951216,,,,,,,,,,,,,,,,,,,354,2023-11-21_09h17.07.259,leap3,2022.2.5,59.997500844092336,
,,,,,,,,,,,,,,,,,,,,6,0,6,0,12,0,12,0,,,,,,alomalous,nw,h,lower,,,,,,,3,nw,LoDemNoTar,g,0,0.6209046238800511,,,,,,,,,,,,,,,,,,,354,2023-11-21_09h17.07.259,leap3,2022.2.5,59.997500844092336,
,,,,,,,,,,,,,,,,,,,,6,0,6,0,13,0,13,0,,,,,,ascending,w,g,lower,,,,,,,3,w,LoDemNoTar,g,1,0.6668563325656578,,,,,,,,,,,,,,,,,,,354,2023-11-21_09h17.07.259,leap3,2022.2.5,59.997500844092336,
,,,,,,,,,,,,,,,,,,,,6,0,6,0,14,0,14,0,,,,,,frose,nw,h,lower,,,,,,,3,nw,LoDemNoTar,g,0,1.1034807231044397,,,,,,,,,,,,,,,,,,,354,2023-11-21_09h17.07.259,leap3,2022.2.5,59.997500844092336,
,,,,,,,,,,,,,,,,,,,,6,0,6,0,15,0,15,0,,,,,,medium,w,g,lower,,,,,,,3,w,LoDemNoTar,g,1,0.5941190550802276,,,,,,,,,,,,,,,,,,,354,2023-11-21_09h17.07.259,leap3,2022.2.5,59.997500844092336,
,,,,,,,,,,,,,,,,,,,,6,0,6,0,16,0,16,0,,,,,,guivers,nw,h,lower,,,,,,,3,nw,LoDemNoTar,h,1,0.5435225827386603,,,,,,,,,,,,,,,,,,,354,2023-11-21_09h17.07.259,leap3,2022.2.5,59.997500844092336,
,,,,,,,,,,,,,,,,,,,,6,0,6,0,17,0,17,0,,,,,,mamps,nw,h,lower,,,,,,,3,nw,LoDemNoTar,h,1,0.6963319282513112,,,,,,,,,,,,,,,,,,,354,2023-11-21_09h17.07.259,leap3,2022.2.5,59.997500844092336,
,,,,,,,,,,,,,,,,,,,,6,0,6,0,18,0,18,0,,,,,,trecious,nw,h,lower,,,,,,,3,nw,LoDemNoTar,g,0,1.1076017888262868,,,,,,,,,,,,,,,,,,,354,2023-11-21_09h17.07.259,leap3,2022.2.5,59.997500844092336,
,,,,,,,,,,,,,,,,,,,,6,0,6,0,19,0,19,0,,,,,,moral,w,g,lower,,,,,,,3,w,LoDemNoTar,g,1,0.8220366567838937,,,,,,,,,,,,,,,,,,,354,2023-11-21_09h17.07.259,leap3,2022.2.5,59.997500844092336,
,,,,,,,,,,,,,,,,,,,,6,0,6,0,20,0,20,0,,,,,,apop,nw,h,lower,,,,,,,3,nw,LoDemNoTar,g,0,0.5223349985899404,,,,,,,,,,,,,,,,,,,354,2023-11-21_09h17.07.259,leap3,2022.2.5,59.997500844092336,
,,,,,,,,,,,,,,,,,,,,6,0,6,0,21,0,21,0,,,,,,hindsight,w,g,lower,,,,,,,3,w,LoDemNoTar,g,1,1.6196903084637597,,,,,,,,,,,,,,,,,,,354,2023-11-21_09h17.07.259,leap3,2022.2.5,59.997500844092336,
,,,,,,,,,,,,,,,,,,,,6,0,6,0,22,0,22,0,,,,,,season,w,g,lower,,,,,,,3,w,LoDemNoTar,g,1,0.5608622692525387,,,,,,,,,,,,,,,,,,,354,2023-11-21_09h17.07.259,leap3,2022.2.5,59.997500844092336,
,,,,,,,,,,,,,,,,,,,,6,0,6,0,23,0,23,0,,,,,,refebs,nw,h,lower,,,,,,,3,nw,LoDemNoTar,h,1,0.7369388988008723,,,,,,,,,,,,,,,,,,,354,2023-11-21_09h17.07.259,leap3,2022.2.5,59.997500844092336,
,,,,,,,,,,,,,,,,,,,,6,0,6,0,24,0,24,0,,,,,,drobate,nw,h,lower,,,,,,,3,nw,LoDemNoTar,h,1,1.4101821258664131,,,,,,,,,,,,,,,,,,,354,2023-11-21_09h17.07.259,leap3,2022.2.5,59.997500844092336,
,,,,,,,,,,,,,,,,,,,,6,0,6,0,25,0,25,0,,,,,,tining,nw,h,lower,,,,,,,3,nw,LoDemNoTar,g,0,0.12082886113785207,,,,,,,,,,,,,,,,,,,354,2023-11-21_09h17.07.259,leap3,2022.2.5,59.997500844092336,
,,,,,,,,,,,,,,,,,,,,6,0,6,0,26,0,26,0,,,,,,aefated,nw,h,lower,,,,,,,3,nw,LoDemNoTar,h,1,2.090739014558494,,,,,,,,,,,,,,,,,,,354,2023-11-21_09h17.07.259,leap3,2022.2.5,59.997500844092336,
,,,,,,,,,,,,,,,,,,,,6,0,6,0,27,0,27,0,,,,,,sputter,w,g,lower,,,,,,,3,w,LoDemNoTar,g,1,1.069000868475996,,,,,,,,,,,,,,,,,,,354,2023-11-21_09h17.07.259,leap3,2022.2.5,59.997500844092336,
,,,,,,,,,,,,,,,,,,,,6,0,6,0,28,0,28,0,,,,,,fallint,nw,h,lower,,,,,,,3,nw,LoDemNoTar,g,0,1.7450753850862384,,,,,,,,,,,,,,,,,,,354,2023-11-21_09h17.07.259,leap3,2022.2.5,59.997500844092336,
,,,,,,,,,,,,,,,,,,,,6,0,6,0,29,0,29,0,,,,,,gensions,nw,h,lower,,,,,,,3,nw,LoDemNoTar,h,1,0.9303383115911856,,,,,,,,,,,,,,,,,,,354,2023-11-21_09h17.07.259,leap3,2022.2.5,59.997500844092336,
,,,,,,,,,,,,,,,,,,,,6,0,6,0,,,,,,,,,,,,,,,,,,,,,,,,,,,,NA,,,,,,,,,,,,,,,,354,2023-11-21_09h17.07.259,leap3,2022.2.5,59.997500844092336,
,,,,,,,,,,,,,,,,,,,,7,0,7,0,0,0,0,0,,,,,,lignpost,nw,h,lower,,,,,,,3,nw,LoDemNoTar,h,1,0.8593375383643433,,,,,,,,,,,,,,,,,,,354,2023-11-21_09h17.07.259,leap3,2022.2.5,59.997500844092336,
,,,,,,,,,,,,,,,,,,,,7,0,7,0,1,0,1,0,,,,,,bullet,w,g,lower,,,,,,,3,w,LoDemNoTar,g,1,0.8319099489599466,,,,,,,,,,,,,,,,,,,354,2023-11-21_09h17.07.259,leap3,2022.2.5,59.997500844092336,
,,,,,,,,,,,,,,,,,,,,7,0,7,0,2,0,2,0,,,,,,carnival,w,g,lower,,,,,,,3,w,LoDemNoTar,g,1,0.7337559618754312,,,,,,,,,,,,,,,,,,,354,2023-11-21_09h17.07.259,leap3,2022.2.5,59.997500844092336,
,,,,,,,,,,,,,,,,,,,,7,0,7,0,3,0,3,0,,,,,,digar,nw,h,lower,,,,,,,3,nw,LoDemNoTar,h,1,0.6939531017560512,,,,,,,,,,,,,,,,,,,354,2023-11-21_09h17.07.259,leap3,2022.2.5,59.997500844092336,
,,,,,,,,,,,,,,,,,,,,7,0,7,0,4,0,4,0,,,,,,puyer,nw,h,lower,,,,,,,3,nw,LoDemNoTar,h,1,0.7207872673170641,,,,,,,,,,,,,,,,,,,354,2023-11-21_09h17.07.259,leap3,2022.2.5,59.997500844092336,
,,,,,,,,,,,,,,,,,,,,7,0,7,0,5,0,5,0,,,,,,probable,w,g,lower,,,,,,,3,w,LoDemNoTar,g,1,0.8909378084354103,,,,,,,,,,,,,,,,,,,354,2023-11-21_09h17.07.259,leap3,2022.2.5,59.997500844092336,
,,,,,,,,,,,,,,,,,,,,7,0,7,0,6,0,6,0,,,,,,razelle,nw,h,lower,,,,,,,3,nw,LoDemNoTar,h,1,1.1097083527129143,,,,,,,,,,,,,,,,,,,354,2023-11-21_09h17.07.259,leap3,2022.2.5,59.997500844092336,
,,,,,,,,,,,,,,,,,,,,7,0,7,0,7,0,7,0,,,,,,digested,w,g,lower,,,,,,,3,w,LoDemNoTar,g,1,0.7196713527664542,,,,,,,,,,,,,,,,,,,354,2023-11-21_09h17.07.259,leap3,2022.2.5,59.997500844092336,
,,,,,,,,,,,,,,,,,,,,7,0,7,0,8,0,8,0,,,,,,skiing,w,g,lower,,,,,,,3,w,LoDemNoTar,g,1,0.9209247265243903,,,,,,,,,,,,,,,,,,,354,2023-11-21_09h17.07.259,leap3,2022.2.5,59.997500844092336,
,,,,,,,,,,,,,,,,,,,,7,0,7,0,9,0,9,0,,,,,,paranoid,w,g,lower,,,,,,,3,w,LoDemNoTar,g,1,0.729370481451042,,,,,,,,,,,,,,,,,,,354,2023-11-21_09h17.07.259,leap3,2022.2.5,59.997500844092336,
,,,,,,,,,,,,,,,,,,,,7,0,7,0,10,0,10,0,,,,,,brimitive,nw,h,lower,,,,,,,3,nw,LoDemNoTar,g,0,0.4666168501134962,,,,,,,,,,,,,,,,,,,354,2023-11-21_09h17.07.259,leap3,2022.2.5,59.997500844092336,
,,,,,,,,,,,,,,,,,,,,7,0,7,0,11,0,11,0,,,,,,sooled,nw,h,lower,,,,,,,3,nw,LoDemNoTar,h,1,0.8871231137309223,,,,,,,,,,,,,,,,,,,354,2023-11-21_09h17.07.259,leap3,2022.2.5,59.997500844092336,
,,,,,,,,,,,,,,,,,,,,7,0,7,0,12,0,12,0,,,,,,reloant,nw,h,lower,,,,,,,3,nw,LoDemNoTar,h,1,1.7537304379511625,,,,,,,,,,,,,,,,,,,354,2023-11-21_09h17.07.259,leap3,2022.2.5,59.997500844092336,
,,,,,,,,,,,,,,,,,,,,7,0,7,0,13,0,13,0,,,,,,movie,w,g,lower,,,,,,,3,w,LoDemNoTar,g,1,0.5143563763704151,,,,,,,,,,,,,,,,,,,354,2023-11-21_09h17.07.259,leap3,2022.2.5,59.997500844092336,
,,,,,,,,,,,,,,,,,,,,7,0,7,0,14,0,14,0,,,,,,pallir,nw,h,lower,,,,,,,3,nw,LoDemNoTar,h,1,1.348311506677419,,,,,,,,,,,,,,,,,,,354,2023-11-21_09h17.07.259,leap3,2022.2.5,59.997500844092336,
,,,,,,,,,,,,,,,,,,,,7,0,7,0,15,0,15,0,,,,,,corduroy,w,g,lower,,,,,,,3,w,LoDemNoTar,g,1,1.6290211885934696,,,,,,,,,,,,,,,,,,,354,2023-11-21_09h17.07.259,leap3,2022.2.5,59.997500844092336,
,,,,,,,,,,,,,,,,,,,,7,0,7,0,16,0,16,0,,,,,,handle,w,g,lower,,,,,,,3,w,LoDemNoTar,g,1,0.6583030007313937,,,,,,,,,,,,,,,,,,,354,2023-11-21_09h17.07.259,leap3,2022.2.5,59.997500844092336,
,,,,,,,,,,,,,,,,,,,,7,0,7,0,17,0,17,0,,,,,,ipiocy,nw,h,lower,,,,,,,3,nw,LoDemNoTar,h,1,0.6299813518999144,,,,,,,,,,,,,,,,,,,354,2023-11-21_09h17.07.259,leap3,2022.2.5,59.997500844092336,
,,,,,,,,,,,,,,,,,,,,7,0,7,0,18,0,18,0,,,,,,finish,w,g,lower,,,,,,,3,w,LoDemNoTar,g,1,0.6592224152991548,,,,,,,,,,,,,,,,,,,354,2023-11-21_09h17.07.259,leap3,2022.2.5,59.997500844092336,
,,,,,,,,,,,,,,,,,,,,7,0,7,0,19,0,19,0,,,,,,selongs,nw,h,lower,,,,,,,3,nw,LoDemNoTar,h,1,0.7033054125495255,,,,,,,,,,,,,,,,,,,354,2023-11-21_09h17.07.259,leap3,2022.2.5,59.997500844092336,
,,,,,,,,,,,,,,,,,,,,7,0,7,0,20,0,20,0,,,,,,sengry,nw,h,lower,,,,,,,3,nw,LoDemNoTar,g,0,1.6571463374421,,,,,,,,,,,,,,,,,,,354,2023-11-21_09h17.07.259,leap3,2022.2.5,59.997500844092336,
,,,,,,,,,,,,,,,,,,,,7,0,7,0,21,0,21,0,,,,,,relaying,w,g,lower,,,,,,,3,w,LoDemNoTar,g,1,0.669119251309894,,,,,,,,,,,,,,,,,,,354,2023-11-21_09h17.07.259,leap3,2022.2.5,59.997500844092336,
,,,,,,,,,,,,,,,,,,,,7,0,7,0,22,0,22,0,,,,,,begut,nw,h,lower,,,,,,,3,nw,LoDemNoTar,h,1,0.7684003211325034,,,,,,,,,,,,,,,,,,,354,2023-11-21_09h17.07.259,leap3,2022.2.5,59.997500844092336,
,,,,,,,,,,,,,,,,,,,,7,0,7,0,23,0,23,0,,,,,,enacted,w,g,lower,,,,,,,3,w,LoDemNoTar,g,1,1.392434649169445,,,,,,,,,,,,,,,,,,,354,2023-11-21_09h17.07.259,leap3,2022.2.5,59.997500844092336,
,,,,,,,,,,,,,,,,,,,,7,0,7,0,24,0,24,0,,,,,,submit,w,g,lower,,,,,,,3,w,LoDemNoTar,g,1,0.6449772255728021,,,,,,,,,,,,,,,,,,,354,2023-11-21_09h17.07.259,leap3,2022.2.5,59.997500844092336,
,,,,,,,,,,,,,,,,,,,,7,0,7,0,25,0,25,0,,,,,,aviation,w,g,lower,,,,,,,3,w,LoDemNoTar,g,1,1.0591565530048683,,,,,,,,,,,,,,,,,,,354,2023-11-21_09h17.07.259,leap3,2022.2.5,59.997500844092336,
,,,,,,,,,,,,,,,,,,,,7,0,7,0,26,0,26,0,,,,,,chone,nw,h,lower,,,,,,,3,nw,LoDemNoTar,h,1,1.078816810506396,,,,,,,,,,,,,,,,,,,354,2023-11-21_09h17.07.259,leap3,2022.2.5,59.997500844092336,
,,,,,,,,,,,,,,,,,,,,7,0,7,0,27,0,27,0,,,,,,sopes,nw,h,lower,,,,,,,3,nw,LoDemNoTar,h,1,0.9139098898740485,,,,,,,,,,,,,,,,,,,354,2023-11-21_09h17.07.259,leap3,2022.2.5,59.997500844092336,
,,,,,,,,,,,,,,,,,,,,7,0,7,0,28,0,28,0,,,,,,deeper,w,g,lower,,,,,,,3,w,LoDemNoTar,g,1,0.5719033930217847,,,,,,,,,,,,,,,,,,,354,2023-11-21_09h17.07.259,leap3,2022.2.5,59.997500844092336,
,,,,,,,,,,,,,,,,,,,,7,0,7,0,29,0,29,0,,,,,,rantho,nw,h,lower,,,,,,,3,nw,LoDemNoTar,h,1,0.6912150817224756,,,,,,,,,,,,,,,,,,,354,2023-11-21_09h17.07.259,leap3,2022.2.5,59.997500844092336,
,,,,,,,,,,,,,,,,,,,,7,0,7,0,,,,,,,,,,,,,,,,,,,,,,,,,,,,NA,,,,,,,,,,,,,,,,354,2023-11-21_09h17.07.259,leap3,2022.2.5,59.997500844092336,
,,,,,,,,,,,,,,,,,,,,8,0,8,0,0,0,0,0,,,,,,phraining,nw,h,upper,,,,,,,1,nw,HiDemTar,h,1,1.1574738373747095,,,,,,,,,,,,,,,,,,,354,2023-11-21_09h17.07.259,leap3,2022.2.5,59.997500844092336,
,,,,,,,,,,,,,,,,,,,,8,0,8,0,1,0,1,0,,,,,,amms,nw,h,upper,,,,,,,1,nw,HiDemTar,h,1,0.8852882087230682,,,,,,,,,,,,,,,,,,,354,2023-11-21_09h17.07.259,leap3,2022.2.5,59.997500844092336,
,,,,,,,,,,,,,,,,,,,,8,0,8,0,2,0,2,0,,,,,,dusmy,nw,h,upper,,,,,,,1,nw,HiDemTar,g,0,0.7527029635384679,,,,,,,,,,,,,,,,,,,354,2023-11-21_09h17.07.259,leap3,2022.2.5,59.997500844092336,
,,,,,,,,,,,,,,,,,,,,8,0,8,0,3,0,3,0,,,,,,huests,nw,h,upper,,,,,,,1,nw,HiDemTar,h,1,1.856593481497839,,,,,,,,,,,,,,,,,,,354,2023-11-21_09h17.07.259,leap3,2022.2.5,59.997500844092336,
,,,,,,,,,,,,,,,,,,,,8,0,8,0,4,0,4,0,,,,,,duplex,w,g,upper,,,,,,,1,w,HiDemTar,g,1,0.9805927956476808,,,,,,,,,,,,,,,,,,,354,2023-11-21_09h17.07.259,leap3,2022.2.5,59.997500844092336,
,,,,,,,,,,,,,,,,,,,,8,0,8,0,5,0,5,0,,,,,,country,w,g,upper,,,,,,,1,w,HiDemTar,g,1,0.547916212817654,,,,,,,,,,,,,,,,,,,354,2023-11-21_09h17.07.259,leap3,2022.2.5,59.997500844092336,
,,,,,,,,,,,,,,,,,,,,8,0,8,0,6,0,6,0,,,,,,praiged,nw,h,upper,,,,,,,1,nw,HiDemTar,h,1,0.7565297321416438,,,,,,,,,,,,,,,,,,,354,2023-11-21_09h17.07.259,leap3,2022.2.5,59.997500844092336,
,,,,,,,,,,,,,,,,,,,,8,0,8,0,7,0,7,0,,,,,,dentures,w,g,upper,,,,,,,1,w,HiDemTar,g,1,1.364539504633285,,,,,,,,,,,,,,,,,,,354,2023-11-21_09h17.07.259,leap3,2022.2.5,59.997500844092336,
,,,,,,,,,,,,,,,,,,,,8,0,8,0,8,0,8,0,,,,,,practice,w,g,upper,,,,,,,1,w,HiDemTar,g,1,0.611421313136816,,,,,,,,,,,,,,,,,,,354,2023-11-21_09h17.07.259,leap3,2022.2.5,59.997500844092336,
,,,,,,,,,,,,,,,,,,,,8,0,8,0,9,0,9,0,,,,,,trophy,w,g,upper,,,,,,,1,w,HiDemTar,g,1,0.6574868166353554,,,,,,,,,,,,,,,,,,,354,2023-11-21_09h17.07.259,leap3,2022.2.5,59.997500844092336,
,,,,,,,,,,,,,,,,,,,,8,0,8,0,10,0,10,0,,,,,,asclibed,nw,h,upper,,,,,,,1,nw,HiDemTar,h,1,0.6934330258518457,,,,,,,,,,,,,,,,,,,354,2023-11-21_09h17.07.259,leap3,2022.2.5,59.997500844092336,
,,,,,,,,,,,,,,,,,,,,8,0,8,0,11,0,11,0,,,,,,computer,w,g,upper,,,,,,,1,w,HiDemTar,g,1,0.6469265292398632,,,,,,,,,,,,,,,,,,,354,2023-11-21_09h17.07.259,leap3,2022.2.5,59.997500844092336,
,,,,,,,,,,,,,,,,,,,,8,0,8,0,12,0,12,0,,,,,,emotion,w,g,upper,,,,,,,1,w,HiDemTar,g,1,0.6037892069434747,,,,,,,,,,,,,,,,,,,354,2023-11-21_09h17.07.259,leap3,2022.2.5,59.997500844092336,
,,,,,,,,,,,,,,,,,,,,8,0,8,0,13,0,13,0,,,,,,throttle,w,g,upper,,,,,,,1,w,HiDemTar,h,0,1.0423970092087984,,,,,,,,,,,,,,,,,,,354,2023-11-21_09h17.07.259,leap3,2022.2.5,59.997500844092336,
,,,,,,,,,,,,,,,,,,,,8,0,8,0,14,0,14,0,,,,,,fuestion,nw,h,upper,,,,,,,1,nw,HiDemTar,h,1,1.1993521717377007,,,,,,,,,,,,,,,,,,,354,2023-11-21_09h17.07.259,leap3,2022.2.5,59.997500844092336,
,,,,,,,,,,,,,,,,,,,,8,0,8,0,15,0,15,0,,,,,,fomes,nw,h,upper,,,,,,,1,nw,HiDemTar,g,0,0.8539496364537627,,,,,,,,,,,,,,,,,,,354,2023-11-21_09h17.07.259,leap3,2022.2.5,59.997500844092336,
,,,,,,,,,,,,,,,,,,,,8,0,8,0,16,0,16,0,,,,,,apticle,nw,h,upper,,,,,,,1,nw,HiDemTar,g,0,1.6408839294454083,,,,,,,,,,,,,,,,,,,354,2023-11-21_09h17.07.259,leap3,2022.2.5,59.997500844092336,
,,,,,,,,,,,,,,,,,,,,8,0,8,0,17,0,17,0,,,,,,inside,w,g,upper,,,,,,,1,w,HiDemTar,g,1,0.5495150764472783,,,,,,,,,,,,,,,,,,,354,2023-11-21_09h17.07.259,leap3,2022.2.5,59.997500844092336,
,,,,,,,,,,,,,,,,,,,,8,0,8,0,18,0,18,0,,,,,,flamingo,target,q,upper,,,,,,,1,target,HiDemTar,g,0,0.7821906330063939,1,1,,,,,,,,,,,,,,,,,354,2023-11-21_09h17.07.259,leap3,2022.2.5,59.997500844092336,
,,,,,,,,,,,,,,,,,,,,8,0,8,0,19,0,19,0,,,,,,incidonts,nw,h,upper,,,,,,,1,aftertar1,HiDemTar,h,1,2.3254991004941985,,,,,,,,,,,,,,,,,,,354,2023-11-21_09h17.07.259,leap3,2022.2.5,59.997500844092336,
,,,,,,,,,,,,,,,,,,,,8,0,8,0,20,0,20,0,,,,,,twenties,w,g,upper,,,,,,,1,aftertar2,HiDemTar,g,1,0.5987013372359797,,,,,,,,,,,,,,,,,,,354,2023-11-21_09h17.07.259,leap3,2022.2.5,59.997500844092336,
,,,,,,,,,,,,,,,,,,,,8,0,8,0,21,0,21,0,,,,,,vinegar,w,g,upper,,,,,,,1,aftertar3,HiDemTar,g,1,0.6693869861774147,,,,,,,,,,,,,,,,,,,354,2023-11-21_09h17.07.259,leap3,2022.2.5,59.997500844092336,
,,,,,,,,,,,,,,,,,,,,8,0,8,0,22,0,22,0,,,,,,bedding,w,g,upper,,,,,,,1,w,HiDemTar,g,1,0.552664810558781,,,,,,,,,,,,,,,,,,,354,2023-11-21_09h17.07.259,leap3,2022.2.5,59.997500844092336,
,,,,,,,,,,,,,,,,,,,,8,0,8,0,23,0,23,0,,,,,,splinging,nw,h,upper,,,,,,,1,w,HiDemTar,g,0,1.648668768350035,,,,,,,,,,,,,,,,,,,354,2023-11-21_09h17.07.259,leap3,2022.2.5,59.997500844092336,
,,,,,,,,,,,,,,,,,,,,8,0,8,0,24,0,24,0,,,,,,rander,nw,h,upper,,,,,,,1,nw,HiDemTar,g,0,0.9723274223506451,,,,,,,,,,,,,,,,,,,354,2023-11-21_09h17.07.259,leap3,2022.2.5,59.997500844092336,
,,,,,,,,,,,,,,,,,,,,8,0,8,0,25,0,25,0,,,,,,matter,w,g,upper,,,,,,,1,nw,HiDemTar,g,1,0.4996427259175107,,,,,,,,,,,,,,,,,,,354,2023-11-21_09h17.07.259,leap3,2022.2.5,59.997500844092336,
,,,,,,,,,,,,,,,,,,,,8,0,8,0,26,0,26,0,,,,,,geissue,nw,h,upper,,,,,,,1,w,HiDemTar,h,1,1.3982306428952143,,,,,,,,,,,,,,,,,,,354,2023-11-21_09h17.07.259,leap3,2022.2.5,59.997500844092336,
,,,,,,,,,,,,,,,,,,,,8,0,8,0,27,0,27,0,,,,,,ghists,nw,h,upper,,,,,,,1,nw,HiDemTar,h,1,0.660915152169764,,,,,,,,,,,,,,,,,,,354,2023-11-21_09h17.07.259,leap3,2022.2.5,59.997500844092336,
,,,,,,,,,,,,,,,,,,,,8,0,8,0,28,0,28,0,,,,,,emergence,w,g,upper,,,,,,,1,nw,HiDemTar,g,1,0.8648884354624897,,,,,,,,,,,,,,,,,,,354,2023-11-21_09h17.07.259,leap3,2022.2.5,59.997500844092336,
,,,,,,,,,,,,,,,,,,,,8,0,8,0,29,0,29,0,,,,,,chrik,nw,h,upper,,,,,,,1,w,HiDemTar,h,1,0.6608200715854764,,,,,,,,,,,,,,,,,,,354,2023-11-21_09h17.07.259,leap3,2022.2.5,59.997500844092336,
,,,,,,,,,,,,,,,,,,,,8,0,8,0,,,,,,,,,,,,,,,,,,,,,,,,,,,,1,,,,,,,,,,,,,,,,354,2023-11-21_09h17.07.259,leap3,2022.2.5,59.997500844092336,
,,,,,,,,,,,,,,,,,,,,9,0,9,0,0,0,0,0,,,,,,bulmed,nw,h,upper,,,,,,,1,nw,HiDemTar,h,1,0.8644154471112415,,,,,,,,,,,,,,,,,,,354,2023-11-21_09h17.07.259,leap3,2022.2.5,59.997500844092336,
,,,,,,,,,,,,,,,,,,,,9,0,9,0,1,0,1,0,,,,,,nogwhell,nw,h,upper,,,,,,,1,nw,HiDemTar,h,1,0.7163181762443855,,,,,,,,,,,,,,,,,,,354,2023-11-21_09h17.07.259,leap3,2022.2.5,59.997500844092336,
,,,,,,,,,,,,,,,,,,,,9,0,9,0,2,0,2,0,,,,,,clypaper,nw,h,upper,,,,,,,1,nw,HiDemTar,g,0,1.6703531864332035,,,,,,,,,,,,,,,,,,,354,2023-11-21_09h17.07.259,leap3,2022.2.5,59.997500844092336,
,,,,,,,,,,,,,,,,,,,,9,0,9,0,3,0,3,0,,,,,,parody,w,g,upper,,,,,,,1,w,HiDemTar,g,1,0.6735059390775859,,,,,,,,,,,,,,,,,,,354,2023-11-21_09h17.07.259,leap3,2022.2.5,59.997500844092336,
,,,,,,,,,,,,,,,,,,,,9,0,9,0,4,0,4,0,,,,,,achieve,w,g,upper,,,,,,,1,w,HiDemTar,g,1,0.7160588928963989,,,,,,,,,,,,,,,,,,,354,2023-11-21_09h17.07.259,leap3,2022.2.5,59.997500844092336,
,,,,,,,,,,,,,,,,,,,,9,0,9,0,5,0,5,0,,,,,,cooray,nw,h,upper,,,,,,,1,nw,HiDemTar,h,1,0.7499392869649455,,,,,,,,,,,,,,,,,,,354,2023-11-21_09h17.07.259,leap3,2022.2.5,59.997500844092336,
,,,,,,,,,,,,,,,,,,,,9,0,9,0,6,0,6,0,,,,,,racile,nw,h,upper,,,,,,,1,nw,HiDemTar,g,0,1.2944777655648068,,,,,,,,,,,,,,,,,,,354,2023-11-21_09h17.07.259,leap3,2022.2.5,59.997500844092336,
,,,,,,,,,,,,,,,,,,,,9,0,9,0,7,0,7,0,,,,,,ready,w,g,upper,,,,,,,1,w,HiDemTar,g,1,0.5291403562296182,,,,,,,,,,,,,,,,,,,354,2023-11-21_09h17.07.259,leap3,2022.2.5,59.997500844092336,
,,,,,,,,,,,,,,,,,,,,9,0,9,0,8,0,8,0,,,,,,undimmec,nw,h,upper,,,,,,,1,nw,HiDemTar,h,1,0.8904225621372461,,,,,,,,,,,,,,,,,,,354,2023-11-21_09h17.07.259,leap3,2022.2.5,59.997500844092336,
,,,,,,,,,,,,,,,,,,,,9,0,9,0,9,0,9,0,,,,,,equitable,w,g,upper,,,,,,,1,w,HiDemTar,g,1,0.7651011745911092,,,,,,,,,,,,,,,,,,,354,2023-11-21_09h17.07.259,leap3,2022.2.5,59.997500844092336,
,,,,,,,,,,,,,,,,,,,,9,0,9,0,10,0,10,0,,,,,,gigoho,nw,h,upper,,,,,,,1,nw,HiDemTar,h,1,0.652967317844741,,,,,,,,,,,,,,,,,,,354,2023-11-21_09h17.07.259,leap3,2022.2.5,59.997500844092336,
,,,,,,,,,,,,,,,,,,,,9,0,9,0,11,0,11,0,,,,,,robbery,w,g,upper,,,,,,,1,w,HiDemTar,g,1,0.825008001527749,,,,,,,,,,,,,,,,,,,354,2023-11-21_09h17.07.259,leap3,2022.2.5,59.997500844092336,
,,,,,,,,,,,,,,,,,,,,9,0,9,0,12,0,12,0,,,,,,capobly,nw,h,upper,,,,,,,1,nw,HiDemTar,h,1,1.0062941435026005,,,,,,,,,,,,,,,,,,,354,2023-11-21_09h17.07.259,leap3,2022.2.5,59.997500844092336,
,,,,,,,,,,,,,,,,,,,,9,0,9,0,13,0,13,0,,,,,,usage,w,g,upper,,,,,,,1,w,HiDemTar,g,1,0.7482734142104164,,,,,,,,,,,,,,,,,,,354,2023-11-21_09h17.07.259,leap3,2022.2.5,59.997500844092336,
,,,,,,,,,,,,,,,,,,,,9,0,9,0,14,0,14,0,,,,,,widely,w,g,upper,,,,,,,1,w,HiDemTar,g,1,0.580947823706083,,,,,,,,,,,,,,,,,,,354,2023-11-21_09h17.07.259,leap3,2022.2.5,59.997500844092336,
,,,,,,,,,,,,,,,,,,,,9,0,9,0,15,0,15,0,,,,,,athcan,nw,h,upper,,,,,,,1,nw,HiDemTar,h,1,0.8192455123644322,,,,,,,,,,,,,,,,,,,354,2023-11-21_09h17.07.259,leap3,2022.2.5,59.997500844092336,
,,,,,,,,,,,,,,,,,,,,9,0,9,0,16,0,16,0,,,,,,calming,w,g,upper,,,,,,,1,w,HiDemTar,g,1,1.4005457805469632,,,,,,,,,,,,,,,,,,,354,2023-11-21_09h17.07.259,leap3,2022.2.5,59.997500844092336,
,,,,,,,,,,,,,,,,,,,,9,0,9,0,17,0,17,0,,,,,,churnad,nw,h,upper,,,,,,,1,nw,HiDemTar,h,1,0.7271890604170039,,,,,,,,,,,,,,,,,,,354,2023-11-21_09h17.07.259,leap3,2022.2.5,59.997500844092336,
,,,,,,,,,,,,,,,,,,,,9,0,9,0,18,0,18,0,,,,,,observer,w,g,upper,,,,,,,1,w,HiDemTar,g,1,0.632473973208107,,,,,,,,,,,,,,,,,,,354,2023-11-21_09h17.07.259,leap3,2022.2.5,59.997500844092336,
,,,,,,,,,,,,,,,,,,,,9,0,9,0,19,0,19,0,,,,,,seeming,w,g,upper,,,,,,,1,w,HiDemTar,g,1,0.7326457824092358,,,,,,,,,,,,,,,,,,,354,2023-11-21_09h17.07.259,leap3,2022.2.5,59.997500844092336,
,,,,,,,,,,,,,,,,,,,,9,0,9,0,20,0,20,0,,,,,,plymie,nw,h,upper,,,,,,,1,nw,HiDemTar,h,1,0.7017774820560589,,,,,,,,,,,,,,,,,,,354,2023-11-21_09h17.07.259,leap3,2022.2.5,59.997500844092336,
,,,,,,,,,,,,,,,,,,,,9,0,9,0,21,0,21,0,,,,,,arrested,w,g,upper,,,,,,,1,w,HiDemTar,g,1,0.5613509534159675,,,,,,,,,,,,,,,,,,,354,2023-11-21_09h17.07.259,leap3,2022.2.5,59.997500844092336,
,,,,,,,,,,,,,,,,,,,,9,0,9,0,22,0,22,0,,,,,,accessory,w,g,upper,,,,,,,1,w,HiDemTar,g,1,0.6658801715821028,,,,,,,,,,,,,,,,,,,354,2023-11-21_09h17.07.259,leap3,2022.2.5,59.997500844092336,
,,,,,,,,,,,,,,,,,,,,9,0,9,0,23,0,23,0,,,,,,restock,w,g,upper,,,,,,,1,w,HiDemTar,g,1,0.5646787751466036,,,,,,,,,,,,,,,,,,,354,2023-11-21_09h17.07.259,leap3,2022.2.5,59.997500844092336,
,,,,,,,,,,,,,,,,,,,,9,0,9,0,24,0,24,0,,,,,,arranged,w,g,upper,,,,,,,1,w,HiDemTar,g,1,0.4606738587608561,,,,,,,,,,,,,,,,,,,354,2023-11-21_09h17.07.259,leap3,2022.2.5,59.997500844092336,
,,,,,,,,,,,,,,,,,,,,9,0,9,0,25,0,25,0,,,,,,etcess,nw,h,upper,,,,,,,1,nw,HiDemTar,h,1,0.6806858840864152,,,,,,,,,,,,,,,,,,,354,2023-11-21_09h17.07.259,leap3,2022.2.5,59.997500844092336,
,,,,,,,,,,,,,,,,,,,,9,0,9,0,26,0,26,0,,,,,,egpended,nw,h,upper,,,,,,,1,nw,HiDemTar,h,1,0.6359481889521703,,,,,,,,,,,,,,,,,,,354,2023-11-21_09h17.07.259,leap3,2022.2.5,59.997500844092336,
,,,,,,,,,,,,,,,,,,,,9,0,9,0,27,0,27,0,,,,,,ladybug,target,q,upper,,,,,,,1,target,HiDemTar,g,0,0.9527287411037832,,,,,,,,,,,,,,,,,,,354,2023-11-21_09h17.07.259,leap3,2022.2.5,59.997500844092336,
,,,,,,,,,,,,,,,,,,,,9,0,9,0,28,0,28,0,,,,,,kraums,nw,h,upper,,,,,,,1,aftertar1,HiDemTar,h,1,1.0323761156760156,,,,,,,,,,,,,,,,,,,354,2023-11-21_09h17.07.259,leap3,2022.2.5,59.997500844092336,
,,,,,,,,,,,,,,,,,,,,9,0,9,0,29,0,29,0,,,,,,graciap,nw,h,upper,,,,,,,1,aftertar2,HiDemTar,h,1,0.5258668662281707,,,,,,,,,,,,,,,,,,,354,2023-11-21_09h17.07.259,leap3,2022.2.5,59.997500844092336,
,,,,,,,,,,,,,,,,,,,,9,0,9,0,,,,,,,,,,,,,,,,,,,,,,,,,,,,0,,,,,,,,,,,,,,,,354,2023-11-21_09h17.07.259,leap3,2022.2.5,59.997500844092336,
,,,,,,,,,,,,,,,,,,,,10,0,10,0,0,0,0,0,,,,,,tredits,nw,h,lower,,,,,,,4,nw,LoDemTar,h,1,0.7666810221271589,,,,,,,,,,,,,,,,,,,354,2023-11-21_09h17.07.259,leap3,2022.2.5,59.997500844092336,
,,,,,,,,,,,,,,,,,,,,10,0,10,0,1,0,1,0,,,,,,thesis,w,g,lower,,,,,,,4,w,LoDemTar,g,1,0.6306478217011318,,,,,,,,,,,,,,,,,,,354,2023-11-21_09h17.07.259,leap3,2022.2.5,59.997500844092336,
,,,,,,,,,,,,,,,,,,,,10,0,10,0,2,0,2,0,,,,,,posing,w,g,lower,,,,,,,4,w,LoDemTar,g,1,0.5399991666199639,,,,,,,,,,,,,,,,,,,354,2023-11-21_09h17.07.259,leap3,2022.2.5,59.997500844092336,
,,,,,,,,,,,,,,,,,,,,10,0,10,0,3,0,3,0,,,,,,overcoat,w,g,lower,,,,,,,4,w,LoDemTar,g,1,0.5166890209075063,,,,,,,,,,,,,,,,,,,354,2023-11-21_09h17.07.259,leap3,2022.2.5,59.997500844092336,
,,,,,,,,,,,,,,,,,,,,10,0,10,0,4,0,4,0,,,,,,opert,nw,h,lower,,,,,,,4,nw,LoDemTar,h,1,1.2946138969855383,,,,,,,,,,,,,,,,,,,354,2023-11-21_09h17.07.259,leap3,2022.2.5,59.997500844092336,
,,,,,,,,,,,,,,,,,,,,10,0,10,0,5,0,5,0,,,,,,lovud,nw,h,lower,,,,,,,4,nw,LoDemTar,h,1,0.5443589903879911,,,,,,,,,,,,,,,,,,,354,2023-11-21_09h17.07.259,leap3,2022.2.5,59.997500844092336,
,,,,,,,,,,,,,,,,,,,,10,0,10,0,6,0,6,0,,,,,,guffy,nw,h,lower,,,,,,,4,nw,LoDemTar,h,1,0.5619108726968989,,,,,,,,,,,,,,,,,,,354,2023-11-21_09h17.07.259,leap3,2022.2.5,59.997500844092336,
,,,,,,,,,,,,,,,,,,,,10,0,10,0,7,0,7,0,,,,,,rodeo,w,g,lower,,,,,,,4,w,LoDemTar,h,0,0.7289258664241061,,,,,,,,,,,,,,,,,,,354,2023-11-21_09h17.07.259,leap3,2022.2.5,59.997500844092336,
,,,,,,,,,,,,,,,,,,,,10,0,10,0,8,0,8,0,,,,,,permute,w,g,lower,,,,,,,4,w,LoDemTar,g,1,1.274151642108336,,,,,,,,,,,,,,,,,,,354,2023-11-21_09h17.07.259,leap3,2022.2.5,59.997500844092336,
,,,,,,,,,,,,,,,,,,,,10,0,10,0,9,0,9,0,,,,,,mortgage,w,g,lower,,,,,,,4,w,LoDemTar,g,1,0.7081457705935463,,,,,,,,,,,,,,,,,,,354,2023-11-21_09h17.07.259,leap3,2022.2.5,59.997500844092336,
,,,,,,,,,,,,,,,,,,,,10,0,10,0,10,0,10,0,,,,,,peahem,nw,h,lower,,,,,,,4,nw,LoDemTar,h,1,0.7587413375731558,,,,,,,,,,,,,,,,,,,354,2023-11-21_09h17.07.259,leap3,2022.2.5,59.997500844092336,
,,,,,,,,,,,,,,,,,,,,10,0,10,0,11,0,11,0,,,,,,loneliest,w,g,lower,,,,,,,4,w,LoDemTar,g,1,1.6873871058924124,,,,,,,,,,,,,,,,,,,354,2023-11-21_09h17.07.259,leap3,2022.2.5,59.997500844092336,
,,,,,,,,,,,,,,,,,,,,10,0,10,0,12,0,12,0,,,,,,prominent,w,g,lower,,,,,,,4,w,LoDemTar,g,1,0.7780173483770341,,,,,,,,,,,,,,,,,,,354,2023-11-21_09h17.07.259,leap3,2022.2.5,59.997500844092336,
,,,,,,,,,,,,,,,,,,,,10,0,10,0,13,0,13,0,,,,,,target,w,g,lower,,,,,,,4,w,LoDemTar,g,1,0.6011541154002771,,,,,,,,,,,,,,,,,,,354,2023-11-21_09h17.07.259,leap3,2022.2.5,59.997500844092336,
,,,,,,,,,,,,,,,,,,,,10,0,10,0,14,0,14,0,,,,,,swatches,w,g,lower,,,,,,,4,w,LoDemTar,g,1,0.582995226373896,,,,,,,,,,,,,,,,,,,354,2023-11-21_09h17.07.259,leap3,2022.2.5,59.997500844092336,
,,,,,,,,,,,,,,,,,,,,10,0,10,0,15,0,15,0,,,,,,nauling,nw,h,lower,,,,,,,4,nw,LoDemTar,h,1,0.6302536143921316,,,,,,,,,,,,,,,,,,,354,2023-11-21_09h17.07.259,leap3,2022.2.5,59.997500844092336,
,,,,,,,,,,,,,,,,,,,,10,0,10,0,16,0,16,0,,,,,,drauns,nw,h,lower,,,,,,,4,nw,LoDemTar,h,1,0.70746541605331,,,,,,,,,,,,,,,,,,,354,2023-11-21_09h17.07.259,leap3,2022.2.5,59.997500844092336,
,,,,,,,,,,,,,,,,,,,,10,0,10,0,17,0,17,0,,,,,,unsmilung,nw,h,lower,,,,,,,4,nw,LoDemTar,h,1,0.8934723861748353,,,,,,,,,,,,,,,,,,,354,2023-11-21_09h17.07.259,leap3,2022.2.5,59.997500844092336,
,,,,,,,,,,,,,,,,,,,,10,0,10,0,18,0,18,0,,,,,,greft,nw,h,lower,,,,,,,4,nw,LoDemTar,h,1,0.6080551573541015,,,,,,,,,,,,,,,,,,,354,2023-11-21_09h17.07.259,leap3,2022.2.5,59.997500844092336,
,,,,,,,,,,,,,,,,,,,,10,0,10,0,19,0,19,0,,,,,,yellep,nw,h,lower,,,,,,,4,nw,LoDemTar,h,1,0.5820607197238132,,,,,,,,,,,,,,,,,,,354,2023-11-21_09h17.07.259,leap3,2022.2.5,59.997500844092336,
,,,,,,,,,,,,,,,,,,,,10,0,10,0,20,0,20,0,,,,,,planar,w,g,lower,,,,,,,4,w,LoDemTar,h,0,0.7413533561630175,,,,,,,,,,,,,,,,,,,354,2023-11-21_09h17.07.259,leap3,2022.2.5,59.997500844092336,
,,,,,,,,,,,,,,,,,,,,10,0,10,0,21,0,21,0,,,,,,jinds,nw,h,lower,,,,,,,4,nw,LoDemTar,h,1,0.4940039925277233,,,,,,,,,,,,,,,,,,,354,2023-11-21_09h17.07.259,leap3,2022.2.5,59.997500844092336,
,,,,,,,,,,,,,,,,,,,,10,0,10,0,22,0,22,0,,,,,,visible,w,g,lower,,,,,,,4,w,LoDemTar,g,1,0.600599629455246,,,,,,,,,,,,,,,,,,,354,2023-11-21_09h17.07.259,leap3,2022.2.5,59.997500844092336,
,,,,,,,,,,,,,,,,,,,,10,0,10,0,23,0,23,0,,,,,,octopus,target,q,lower,,,,,,,4,target,LoDemTar,g,0,0.7583872753893957,,,,,,,,,,,,,,,,,,,354,2023-11-21_09h17.07.259,leap3,2022.2.5,59.997500844092336,
,,,,,,,,,,,,,,,,,,,,10,0,10,0,24,0,24,0,,,,,,holdup,w,g,lower,,,,,,,4,aftertar1,LoDemTar,g,1,1.3822414031019434,,,,,,,,,,,,,,,,,,,354,2023-11-21_09h17.07.259,leap3,2022.2.5,59.997500844092336,
,,,,,,,,,,,,,,,,,,,,10,0,10,0,25,0,25,0,,,,,,penalize,w,g,lower,,,,,,,4,aftertar2,LoDemTar,h,0,1.2455698043340817,,,,,,,,,,,,,,,,,,,354,2023-11-21_09h17.07.259,leap3,2022.2.5,59.997500844092336,
,,,,,,,,,,,,,,,,,,,,10,0,10,0,26,0,26,0,,,,,,crundle,nw,h,lower,,,,,,,4,aftertar3,LoDemTar,g,0,1.146190635394305,,,,,,,,,,,,,,,,,,,354,2023-11-21_09h17.07.259,leap3,2022.2.5,59.997500844092336,
,,,,,,,,,,,,,,,,,,,,10,0,10,0,27,0,27,0,,,,,,kiner,nw,h,lower,,,,,,,4,nw,LoDemTar,g,0,1.3788426482351497,,,,,,,,,,,,,,,,,,,354,2023-11-21_09h17.07.259,leap3,2022.2.5,59.997500844092336,
,,,,,,,,,,,,,,,,,,,,10,0,10,0,28,0,28,0,,,,,,arpired,nw,h,lower,,,,,,,4,nw,LoDemTar,h,1,0.9621251209173352,,,,,,,,,,,,,,,,,,,354,2023-11-21_09h17.07.259,leap3,2022.2.5,59.997500844092336,
,,,,,,,,,,,,,,,,,,,,10,0,10,0,29,0,29,0,,,,,,explosion,w,g,lower,,,,,,,4,nw,LoDemTar,g,1,0.7141880685230717,,,,,,,,,,,,,,,,,,,354,2023-11-21_09h17.07.259,leap3,2022.2.5,59.997500844092336,
,,,,,,,,,,,,,,,,,,,,10,0,10,0,,,,,,,,,,,,,,,,,,,,,,,,,,,,0,,,,,,,,,,,,,,,,354,2023-11-21_09h17.07.259,leap3,2022.2.5,59.997500844092336,
,,,,,,,,,,,,,,,,,,,,11,0,11,0,0,0,0,0,,,,,,dricked,nw,h,lower,,,,,,,3,nw,LoDemNoTar,h,1,1.8589575176592916,,,,,,,,,,,,,,,,,,,354,2023-11-21_09h17.07.259,leap3,2022.2.5,59.997500844092336,
,,,,,,,,,,,,,,,,,,,,11,0,11,0,1,0,1,0,,,,,,chraps,nw,h,lower,,,,,,,3,nw,LoDemNoTar,h,1,1.0148272517835721,,,,,,,,,,,,,,,,,,,354,2023-11-21_09h17.07.259,leap3,2022.2.5,59.997500844092336,
,,,,,,,,,,,,,,,,,,,,11,0,11,0,2,0,2,0,,,,,,iflaid,nw,h,lower,,,,,,,3,nw,LoDemNoTar,h,1,0.7167464918456972,,,,,,,,,,,,,,,,,,,354,2023-11-21_09h17.07.259,leap3,2022.2.5,59.997500844092336,
,,,,,,,,,,,,,,,,,,,,11,0,11,0,3,0,3,0,,,,,,couple,w,g,lower,,,,,,,3,w,LoDemNoTar,g,1,0.5186989950016141,,,,,,,,,,,,,,,,,,,354,2023-11-21_09h17.07.259,leap3,2022.2.5,59.997500844092336,
,,,,,,,,,,,,,,,,,,,,11,0,11,0,4,0,4,0,,,,,,railway,w,g,lower,,,,,,,3,w,LoDemNoTar,g,1,0.7767607750138268,,,,,,,,,,,,,,,,,,,354,2023-11-21_09h17.07.259,leap3,2022.2.5,59.997500844092336,
,,,,,,,,,,,,,,,,,,,,11,0,11,0,5,0,5,0,,,,,,reprint,w,g,lower,,,,,,,3,w,LoDemNoTar,g,1,0.600053595029749,,,,,,,,,,,,,,,,,,,354,2023-11-21_09h17.07.259,leap3,2022.2.5,59.997500844092336,
,,,,,,,,,,,,,,,,,,,,11,0,11,0,6,0,6,0,,,,,,roughly,w,g,lower,,,,,,,3,w,LoDemNoTar,g,1,0.5097076887032017,,,,,,,,,,,,,,,,,,,354,2023-11-21_09h17.07.259,leap3,2022.2.5,59.997500844092336,
,,,,,,,,,,,,,,,,,,,,11,0,11,0,7,0,7,0,,,,,,apology,w,g,lower,,,,,,,3,w,LoDemNoTar,g,1,0.5036798792425543,,,,,,,,,,,,,,,,,,,354,2023-11-21_09h17.07.259,leap3,2022.2.5,59.997500844092336,
,,,,,,,,,,,,,,,,,,,,11,0,11,0,8,0,8,0,,,,,,alarm,w,g,lower,,,,,,,3,w,LoDemNoTar,g,1,0.4416215135715902,,,,,,,,,,,,,,,,,,,354,2023-11-21_09h17.07.259,leap3,2022.2.5,59.997500844092336,
,,,,,,,,,,,,,,,,,,,,11,0,11,0,9,0,9,0,,,,,,rebool,nw,h,lower,,,,,,,3,nw,LoDemNoTar,h,1,1.142323721665889,,,,,,,,,,,,,,,,,,,354,2023-11-21_09h17.07.259,leap3,2022.2.5,59.997500844092336,
,,,,,,,,,,,,,,,,,,,,11,0,11,0,10,0,10,0,,,,,,audience,w,g,lower,,,,,,,3,w,LoDemNoTar,g,1,0.6146972177084535,,,,,,,,,,,,,,,,,,,354,2023-11-21_09h17.07.259,leap3,2022.2.5,59.997500844092336,
,,,,,,,,,,,,,,,,,,,,11,0,11,0,11,0,11,0,,,,,,shockwave,w,g,lower,,,,,,,3,w,LoDemNoTar,g,1,1.484477216261439,,,,,,,,,,,,,,,,,,,354,2023-11-21_09h17.07.259,leap3,2022.2.5,59.997500844092336,
,,,,,,,,,,,,,,,,,,,,11,0,11,0,12,0,12,0,,,,,,intended,w,g,lower,,,,,,,3,w,LoDemNoTar,g,1,0.6078100606100634,,,,,,,,,,,,,,,,,,,354,2023-11-21_09h17.07.259,leap3,2022.2.5,59.997500844092336,
,,,,,,,,,,,,,,,,,,,,11,0,11,0,13,0,13,0,,,,,,frogmy,nw,h,lower,,,,,,,3,nw,LoDemNoTar,h,1,0.9727985996287316,,,,,,,,,,,,,,,,,,,354,2023-11-21_09h17.07.259,leap3,2022.2.5,59.997500844092336,
,,,,,,,,,,,,,,,,,,,,11,0,11,0,14,0,14,0,,,,,,miurnal,nw,h,lower,,,,,,,3,nw,LoDemNoTar,h,1,0.8359081645030528,,,,,,,,,,,,,,,,,,,354,2023-11-21_09h17.07.259,leap3,2022.2.5,59.997500844092336,
,,,,,,,,,,,,,,,,,,,,11,0,11,0,15,0,15,0,,,,,,huzzles,nw,h,lower,,,,,,,3,nw,LoDemNoTar,g,0,0.8563507995568216,,,,,,,,,,,,,,,,,,,354,2023-11-21_09h17.07.259,leap3,2022.2.5,59.997500844092336,
,,,,,,,,,,,,,,,,,,,,11,0,11,0,16,0,16,0,,,,,,ausht,nw,h,lower,,,,,,,3,nw,LoDemNoTar,h,1,0.6511484105139971,,,,,,,,,,,,,,,,,,,354,2023-11-21_09h17.07.259,leap3,2022.2.5,59.997500844092336,
,,,,,,,,,,,,,,,,,,,,11,0,11,0,17,0,17,0,,,,,,finstrel,nw,h,lower,,,,,,,3,nw,LoDemNoTar,h,1,0.7757013052469119,,,,,,,,,,,,,,,,,,,354,2023-11-21_09h17.07.259,leap3,2022.2.5,59.997500844092336,
,,,,,,,,,,,,,,,,,,,,11,0,11,0,18,0,18,0,,,,,,draze,nw,h,lower,,,,,,,3,nw,LoDemNoTar,g,0,0.8073839786229655,,,,,,,,,,,,,,,,,,,354,2023-11-21_09h17.07.259,leap3,2022.2.5,59.997500844092336,
,,,,,,,,,,,,,,,,,,,,11,0,11,0,19,0,19,0,,,,,,igiom,nw,h,lower,,,,,,,3,nw,LoDemNoTar,h,1,0.6540844397386536,,,,,,,,,,,,,,,,,,,354,2023-11-21_09h17.07.259,leap3,2022.2.5,59.997500844092336,
,,,,,,,,,,,,,,,,,,,,11,0,11,0,20,0,20,0,,,,,,hecture,nw,h,lower,,,,,,,3,nw,LoDemNoTar,h,1,1.393939639441669,,,,,,,,,,,,,,,,,,,354,2023-11-21_09h17.07.259,leap3,2022.2.5,59.997500844092336,
,,,,,,,,,,,,,,,,,,,,11,0,11,0,21,0,21,0,,,,,,perform,w,g,lower,,,,,,,3,w,LoDemNoTar,g,1,0.5913200627546757,,,,,,,,,,,,,,,,,,,354,2023-11-21_09h17.07.259,leap3,2022.2.5,59.997500844092336,
,,,,,,,,,,,,,,,,,,,,11,0,11,0,22,0,22,0,,,,,,scarlet,w,g,lower,,,,,,,3,w,LoDemNoTar,g,1,0.9906269704224542,,,,,,,,,,,,,,,,,,,354,2023-11-21_09h17.07.259,leap3,2022.2.5,59.997500844092336,
,,,,,,,,,,,,,,,,,,,,11,0,11,0,23,0,23,0,,,,,,criminal,w,g,lower,,,,,,,3,w,LoDemNoTar,g,1,1.0602733731502667,,,,,,,,,,,,,,,,,,,354,2023-11-21_09h17.07.259,leap3,2022.2.5,59.997500844092336,
,,,,,,,,,,,,,,,,,,,,11,0,11,0,24,0,24,0,,,,,,hubris,w,g,lower,,,,,,,3,w,LoDemNoTar,h,0,0.656265257159248,,,,,,,,,,,,,,,,,,,354,2023-11-21_09h17.07.259,leap3,2022.2.5,59.997500844092336,
,,,,,,,,,,,,,,,,,,,,11,0,11,0,25,0,25,0,,,,,,scrobby,nw,h,lower,,,,,,,3,nw,LoDemNoTar,g,0,0.7242252617143095,,,,,,,,,,,,,,,,,,,354,2023-11-21_09h17.07.259,leap3,2022.2.5,59.997500844092336,
,,,,,,,,,,,,,,,,,,,,11,0,11,0,26,0,26,0,,,,,,culinary,w,g,lower,,,,,,,3,w,LoDemNoTar,h,0,0.5732046391349286,,,,,,,,,,,,,,,,,,,354,2023-11-21_09h17.07.259,leap3,2022.2.5,59.997500844092336,
,,,,,,,,,,,,,,,,,,,,11,0,11,0,27,0,27,0,,,,,,outlaved,nw,h,lower,,,,,,,3,nw,LoDemNoTar,g,0,0.7724380780709907,,,,,,,,,,,,,,,,,,,354,2023-11-21_09h17.07.259,leap3,2022.2.5,59.997500844092336,
,,,,,,,,,,,,,,,,,,,,11,0,11,0,28,0,28,0,,,,,,encounter,w,g,lower,,,,,,,3,w,LoDemNoTar,g,1,0.5797676165821031,,,,,,,,,,,,,,,,,,,354,2023-11-21_09h17.07.259,leap3,2022.2.5,59.997500844092336,
,,,,,,,,,,,,,,,,,,,,11,0,11,0,29,0,29,0,,,,,,sludding,nw,h,lower,,,,,,,3,nw,LoDemNoTar,g,0,0.6271222926443443,,,,,,,,,,,,,,,,,,,354,2023-11-21_09h17.07.259,leap3,2022.2.5,59.997500844092336,
,,,,,,,,,,,,,,,,,,,,11,0,11,0,,,,,,,,,,,,,,,,,,,,,,,,,,,,NA,,,,,,,,,,,,,,,,354,2023-11-21_09h17.07.259,leap3,2022.2.5,59.997500844092336,
,,,,,,,,,,,,,,,,,,,,12,0,12,0,0,0,0,0,,,,,,permeable,w,g,upper,,,,,,,2,w,HiDemNoTar,g,1,1.0320253738900647,,,,,,,,,,,,,,,,,,,354,2023-11-21_09h17.07.259,leap3,2022.2.5,59.997500844092336,
,,,,,,,,,,,,,,,,,,,,12,0,12,0,1,0,1,0,,,,,,deakers,nw,h,upper,,,,,,,2,nw,HiDemNoTar,h,1,0.6772844126680866,,,,,,,,,,,,,,,,,,,354,2023-11-21_09h17.07.259,leap3,2022.2.5,59.997500844092336,
,,,,,,,,,,,,,,,,,,,,12,0,12,0,2,0,2,0,,,,,,shillac,nw,h,upper,,,,,,,2,nw,HiDemNoTar,h,1,0.8646110414993018,,,,,,,,,,,,,,,,,,,354,2023-11-21_09h17.07.259,leap3,2022.2.5,59.997500844092336,
,,,,,,,,,,,,,,,,,,,,12,0,12,0,3,0,3,0,,,,,,pexts,nw,h,upper,,,,,,,2,nw,HiDemNoTar,h,1,0.6525981635786593,,,,,,,,,,,,,,,,,,,354,2023-11-21_09h17.07.259,leap3,2022.2.5,59.997500844092336,
,,,,,,,,,,,,,,,,,,,,12,0,12,0,4,0,4,0,,,,,,antique,w,g,upper,,,,,,,2,w,HiDemNoTar,h,0,0.5834498023614287,,,,,,,,,,,,,,,,,,,354,2023-11-21_09h17.07.259,leap3,2022.2.5,59.997500844092336,
,,,,,,,,,,,,,,,,,,,,12,0,12,0,5,0,5,0,,,,,,schinter,nw,h,upper,,,,,,,2,nw,HiDemNoTar,g,0,0.934991828748025,,,,,,,,,,,,,,,,,,,354,2023-11-21_09h17.07.259,leap3,2022.2.5,59.997500844092336,
,,,,,,,,,,,,,,,,,,,,12,0,12,0,6,0,6,0,,,,,,orange,w,g,upper,,,,,,,2,w,HiDemNoTar,g,1,0.5360329465474933,,,,,,,,,,,,,,,,,,,354,2023-11-21_09h17.07.259,leap3,2022.2.5,59.997500844092336,
,,,,,,,,,,,,,,,,,,,,12,0,12,0,7,0,7,0,,,,,,inducing,w,g,upper,,,,,,,2,w,HiDemNoTar,g,1,0.8885435879928991,,,,,,,,,,,,,,,,,,,354,2023-11-21_09h17.07.259,leap3,2022.2.5,59.997500844092336,
,,,,,,,,,,,,,,,,,,,,12,0,12,0,8,0,8,0,,,,,,mandlers,nw,h,upper,,,,,,,2,nw,HiDemNoTar,h,1,1.0191481376532465,,,,,,,,,,,,,,,,,,,354,2023-11-21_09h17.07.259,leap3,2022.2.5,59.997500844092336,
,,,,,,,,,,,,,,,,,,,,12,0,12,0,9,0,9,0,,,,,,integral,w,g,upper,,,,,,,2,w,HiDemNoTar,g,1,0.8324399857083336,,,,,,,,,,,,,,,,,,,354,2023-11-21_09h17.07.259,leap3,2022.2.5,59.997500844092336,
,,,,,,,,,,,,,,,,,,,,12,0,12,0,10,0,10,0,,,,,,axis,w,g,upper,,,,,,,2,w,HiDemNoTar,g,1,0.5817024317802861,,,,,,,,,,,,,,,,,,,354,2023-11-21_09h17.07.259,leap3,2022.2.5,59.997500844092336,
,,,,,,,,,,,,,,,,,,,,12,0,12,0,11,0,11,0,,,,,,erony,nw,h,upper,,,,,,,2,nw,HiDemNoTar,g,0,0.7491517779417336,,,,,,,,,,,,,,,,,,,354,2023-11-21_09h17.07.259,leap3,2022.2.5,59.997500844092336,
,,,,,,,,,,,,,,,,,,,,12,0,12,0,12,0,12,0,,,,,,riosk,nw,h,upper,,,,,,,2,nw,HiDemNoTar,h,1,0.5656718394020572,,,,,,,,,,,,,,,,,,,354,2023-11-21_09h17.07.259,leap3,2022.2.5,59.997500844092336,
,,,,,,,,,,,,,,,,,,,,12,0,12,0,13,0,13,0,,,,,,presently,w,g,upper,,,,,,,2,w,HiDemNoTar,g,1,1.28480489726644,,,,,,,,,,,,,,,,,,,354,2023-11-21_09h17.07.259,leap3,2022.2.5,59.997500844092336,
,,,,,,,,,,,,,,,,,,,,12,0,12,0,14,0,14,0,,,,,,infested,w,g,upper,,,,,,,2,w,HiDemNoTar,g,1,0.5290223354240879,,,,,,,,,,,,,,,,,,,354,2023-11-21_09h17.07.259,leap3,2022.2.5,59.997500844092336,
,,,,,,,,,,,,,,,,,,,,12,0,12,0,15,0,15,0,,,,,,acoustic,w,g,upper,,,,,,,2,w,HiDemNoTar,g,1,0.5692791679175571,,,,,,,,,,,,,,,,,,,354,2023-11-21_09h17.07.259,leap3,2022.2.5,59.997500844092336,
,,,,,,,,,,,,,,,,,,,,12,0,12,0,16,0,16,0,,,,,,arrive,w,g,upper,,,,,,,2,w,HiDemNoTar,g,1,0.5045866162981838,,,,,,,,,,,,,,,,,,,354,2023-11-21_09h17.07.259,leap3,2022.2.5,59.997500844092336,
,,,,,,,,,,,,,,,,,,,,12,0,12,0,17,0,17,0,,,,,,cegalia,nw,h,upper,,,,,,,2,nw,HiDemNoTar,h,1,0.8265594758559018,,,,,,,,,,,,,,,,,,,354,2023-11-21_09h17.07.259,leap3,2022.2.5,59.997500844092336,
,,,,,,,,,,,,,,,,,,,,12,0,12,0,18,0,18,0,,,,,,splum,nw,h,upper,,,,,,,2,nw,HiDemNoTar,h,1,0.9758861541049555,,,,,,,,,,,,,,,,,,,354,2023-11-21_09h17.07.259,leap3,2022.2.5,59.997500844092336,
,,,,,,,,,,,,,,,,,,,,12,0,12,0,19,0,19,0,,,,,,slears,nw,h,upper,,,,,,,2,nw,HiDemNoTar,h,1,1.263266269583255,,,,,,,,,,,,,,,,,,,354,2023-11-21_09h17.07.259,leap3,2022.2.5,59.997500844092336,
,,,,,,,,,,,,,,,,,,,,12,0,12,0,20,0,20,0,,,,,,retain,w,g,upper,,,,,,,2,w,HiDemNoTar,g,1,0.739131789887324,,,,,,,,,,,,,,,,,,,354,2023-11-21_09h17.07.259,leap3,2022.2.5,59.997500844092336,
,,,,,,,,,,,,,,,,,,,,12,0,12,0,21,0,21,0,,,,,,retona,nw,h,upper,,,,,,,2,nw,HiDemNoTar,h,1,0.8357859179377556,,,,,,,,,,,,,,,,,,,354,2023-11-21_09h17.07.259,leap3,2022.2.5,59.997500844092336,
,,,,,,,,,,,,,,,,,,,,12,0,12,0,22,0,22,0,,,,,,pressures,w,g,upper,,,,,,,2,w,HiDemNoTar,g,1,0.6395434436853975,,,,,,,,,,,,,,,,,,,354,2023-11-21_09h17.07.259,leap3,2022.2.5,59.997500844092336,
,,,,,,,,,,,,,,,,,,,,12,0,12,0,23,0,23,0,,,,,,collision,w,g,upper,,,,,,,2,w,HiDemNoTar,g,1,0.7561424672603607,,,,,,,,,,,,,,,,,,,354,2023-11-21_09h17.07.259,leap3,2022.2.5,59.997500844092336,
,,,,,,,,,,,,,,,,,,,,12,0,12,0,24,0,24,0,,,,,,felevance,nw,h,upper,,,,,,,2,nw,HiDemNoTar,h,1,0.804112299811095,,,,,,,,,,,,,,,,,,,354,2023-11-21_09h17.07.259,leap3,2022.2.5,59.997500844092336,
,,,,,,,,,,,,,,,,,,,,12,0,12,0,25,0,25,0,,,,,,thorifies,nw,h,upper,,,,,,,2,nw,HiDemNoTar,h,1,1.1700335344066843,,,,,,,,,,,,,,,,,,,354,2023-11-21_09h17.07.259,leap3,2022.2.5,59.997500844092336,
,,,,,,,,,,,,,,,,,,,,12,0,12,0,26,0,26,0,,,,,,acidic,w,g,upper,,,,,,,2,w,HiDemNoTar,g,1,0.6561816465109587,,,,,,,,,,,,,,,,,,,354,2023-11-21_09h17.07.259,leap3,2022.2.5,59.997500844092336,
,,,,,,,,,,,,,,,,,,,,12,0,12,0,27,0,27,0,,,,,,satisfies,w,g,upper,,,,,,,2,w,HiDemNoTar,g,1,0.6366333730984479,,,,,,,,,,,,,,,,,,,354,2023-11-21_09h17.07.259,leap3,2022.2.5,59.997500844092336,
,,,,,,,,,,,,,,,,,,,,12,0,12,0,28,0,28,0,,,,,,cripet,nw,h,upper,,,,,,,2,nw,HiDemNoTar,g,0,1.009854384465143,,,,,,,,,,,,,,,,,,,354,2023-11-21_09h17.07.259,leap3,2022.2.5,59.997500844092336,
,,,,,,,,,,,,,,,,,,,,12,0,12,0,29,0,29,0,,,,,,dazid,nw,h,upper,,,,,,,2,nw,HiDemNoTar,h,1,0.9679008912062272,,,,,,,,,,,,,,,,,,,354,2023-11-21_09h17.07.259,leap3,2022.2.5,59.997500844092336,
,,,,,,,,,,,,,,,,,,,,12,0,12,0,,,,,,,,,,,,,,,,,,,,,,,,,,,,NA,,,,,,,,,,,,,,,,354,2023-11-21_09h17.07.259,leap3,2022.2.5,59.997500844092336,
,,,,,,,,,,,,,,,,,,,,13,0,13,0,0,0,0,0,,,,,,noblin,nw,h,upper,,,,,,,1,nw,HiDemTar,h,1,0.6546691100811586,,,,,,,,,,,,,,,,,,,354,2023-11-21_09h17.07.259,leap3,2022.2.5,59.997500844092336,
,,,,,,,,,,,,,,,,,,,,13,0,13,0,1,0,1,0,,,,,,hinsome,nw,h,upper,,,,,,,1,nw,HiDemTar,h,1,1.338676368817687,,,,,,,,,,,,,,,,,,,354,2023-11-21_09h17.07.259,leap3,2022.2.5,59.997500844092336,
,,,,,,,,,,,,,,,,,,,,13,0,13,0,2,0,2,0,,,,,,arcients,nw,h,upper,,,,,,,1,nw,HiDemTar,h,1,0.8434264757670462,,,,,,,,,,,,,,,,,,,354,2023-11-21_09h17.07.259,leap3,2022.2.5,59.997500844092336,
,,,,,,,,,,,,,,,,,,,,13,0,13,0,3,0,3,0,,,,,,metrol,nw,h,upper,,,,,,,1,nw,HiDemTar,g,0,0.6400164320366457,,,,,,,,,,,,,,,,,,,354,2023-11-21_09h17.07.259,leap3,2022.2.5,59.997500844092336,
,,,,,,,,,,,,,,,,,,,,13,0,13,0,4,0,4,0,,,,,,rainfall,w,g,upper,,,,,,,1,w,HiDemTar,g,1,0.5166368019999936,,,,,,,,,,,,,,,,,,,354,2023-11-21_09h17.07.259,leap3,2022.2.5,59.997500844092336,
,,,,,,,,,,,,,,,,,,,,13,0,13,0,5,0,5,0,,,,,,pariah,w,g,upper,,,,,,,1,w,HiDemTar,h,0,1.1905187292722985,,,,,,,,,,,,,,,,,,,354,2023-11-21_09h17.07.259,leap3,2022.2.5,59.997500844092336,
,,,,,,,,,,,,,,,,,,,,13,0,13,0,6,0,6,0,,,,,,rational,w,g,upper,,,,,,,1,w,HiDemTar,g,1,0.836247738217935,,,,,,,,,,,,,,,,,,,354,2023-11-21_09h17.07.259,leap3,2022.2.5,59.997500844092336,
,,,,,,,,,,,,,,,,,,,,13,0,13,0,7,0,7,0,,,,,,hustle,w,g,upper,,,,,,,1,w,HiDemTar,g,1,0.6568309112917632,,,,,,,,,,,,,,,,,,,354,2023-11-21_09h17.07.259,leap3,2022.2.5,59.997500844092336,
,,,,,,,,,,,,,,,,,,,,13,0,13,0,8,0,8,0,,,,,,roodies,nw,h,upper,,,,,,,1,nw,HiDemTar,h,1,0.932861419278197,,,,,,,,,,,,,,,,,,,354,2023-11-21_09h17.07.259,leap3,2022.2.5,59.997500844092336,
,,,,,,,,,,,,,,,,,,,,13,0,13,0,9,0,9,0,,,,,,tycoon,w,g,upper,,,,,,,1,w,HiDemTar,h,0,0.7581228606868535,,,,,,,,,,,,,,,,,,,354,2023-11-21_09h17.07.259,leap3,2022.2.5,59.997500844092336,
,,,,,,,,,,,,,,,,,,,,13,0,13,0,10,0,10,0,,,,,,gures,nw,h,upper,,,,,,,1,nw,HiDemTar,h,1,2.2621165486052632,,,,,,,,,,,,,,,,,,,354,2023-11-21_09h17.07.259,leap3,2022.2.5,59.997500844092336,
,,,,,,,,,,,,,,,,,,,,13,0,13,0,11,0,11,0,,,,,,leuter,nw,h,upper,,,,,,,1,nw,HiDemTar,h,1,0.9860703448066488,,,,,,,,,,,,,,,,,,,354,2023-11-21_09h17.07.259,leap3,2022.2.5,59.997500844092336,
,,,,,,,,,,,,,,,,,,,,13,0,13,0,12,0,12,0,,,,,,flougy,nw,h,upper,,,,,,,1,nw,HiDemTar,h,1,0.8797847009263933,,,,,,,,,,,,,,,,,,,354,2023-11-21_09h17.07.259,leap3,2022.2.5,59.997500844092336,
,,,,,,,,,,,,,,,,,,,,13,0,13,0,13,0,13,0,,,,,,grested,nw,h,upper,,,,,,,1,nw,HiDemTar,h,1,1.0258514723973349,,,,,,,,,,,,,,,,,,,354,2023-11-21_09h17.07.259,leap3,2022.2.5,59.997500844092336,
,,,,,,,,,,,,,,,,,,,,13,0,13,0,14,0,14,0,,,,,,digest,w,g,upper,,,,,,,1,w,HiDemTar,g,1,0.695704999845475,,,,,,,,,,,,,,,,,,,354,2023-11-21_09h17.07.259,leap3,2022.2.5,59.997500844092336,
,,,,,,,,,,,,,,,,,,,,13,0,13,0,15,0,15,0,,,,,,actual,w,g,upper,,,,,,,1,w,HiDemTar,g,1,0.5469732546480373,,,,,,,,,,,,,,,,,,,354,2023-11-21_09h17.07.259,leap3,2022.2.5,59.997500844092336,
,,,,,,,,,,,,,,,,,,,,13,0,13,0,16,0,16,0,,,,,,hemoter,nw,h,upper,,,,,,,1,nw,HiDemTar,h,1,1.395532768103294,,,,,,,,,,,,,,,,,,,354,2023-11-21_09h17.07.259,leap3,2022.2.5,59.997500844092336,
,,,,,,,,,,,,,,,,,,,,13,0,13,0,17,0,17,0,,,,,,snays,nw,h,upper,,,,,,,1,nw,HiDemTar,h,1,0.8102200976572931,,,,,,,,,,,,,,,,,,,354,2023-11-21_09h17.07.259,leap3,2022.2.5,59.997500844092336,
,,,,,,,,,,,,,,,,,,,,13,0,13,0,18,0,18,0,,,,,,peags,nw,h,upper,,,,,,,1,nw,HiDemTar,h,1,0.8962454199790955,,,,,,,,,,,,,,,,,,,354,2023-11-21_09h17.07.259,leap3,2022.2.5,59.997500844092336,
,,,,,,,,,,,,,,,,,,,,13,0,13,0,19,0,19,0,,,,,,moisture,w,g,upper,,,,,,,1,w,HiDemTar,g,1,0.5948142000706866,,,,,,,,,,,,,,,,,,,354,2023-11-21_09h17.07.259,leap3,2022.2.5,59.997500844092336,
,,,,,,,,,,,,,,,,,,,,13,0,13,0,20,0,20,0,,,,,,maximized,w,g,upper,,,,,,,1,w,HiDemTar,g,1,0.6000949474982917,,,,,,,,,,,,,,,,,,,354,2023-11-21_09h17.07.259,leap3,2022.2.5,59.997500844092336,
,,,,,,,,,,,,,,,,,,,,13,0,13,0,21,0,21,0,,,,,,slogan,w,g,upper,,,,,,,1,w,HiDemTar,g,1,0.6234041877323762,,,,,,,,,,,,,,,,,,,354,2023-11-21_09h17.07.259,leap3,2022.2.5,59.997500844092336,
,,,,,,,,,,,,,,,,,,,,13,0,13,0,22,0,22,0,,,,,,dolphin,target,q,upper,,,,,,,1,target,HiDemTar,g,0,0.5557270102435723,1,1,,,,,,,,,,,,,,,,,354,2023-11-21_09h17.07.259,leap3,2022.2.5,59.997500844092336,
,,,,,,,,,,,,,,,,,,,,13,0,13,0,23,0,23,0,,,,,,listless,w,g,upper,,,,,,,1,aftertar1,HiDemTar,g,1,1.6356698893941939,,,,,,,,,,,,,,,,,,,354,2023-11-21_09h17.07.259,leap3,2022.2.5,59.997500844092336,
,,,,,,,,,,,,,,,,,,,,13,0,13,0,24,0,24,0,,,,,,bloves,nw,h,upper,,,,,,,1,aftertar2,HiDemTar,h,1,0.7763759249355644,,,,,,,,,,,,,,,,,,,354,2023-11-21_09h17.07.259,leap3,2022.2.5,59.997500844092336,
,,,,,,,,,,,,,,,,,,,,13,0,13,0,25,0,25,0,,,,,,standard,w,g,upper,,,,,,,1,aftertar3,HiDemTar,g,1,0.5916182838845998,,,,,,,,,,,,,,,,,,,354,2023-11-21_09h17.07.259,leap3,2022.2.5,59.997500844092336,
,,,,,,,,,,,,,,,,,,,,13,0,13,0,26,0,26,0,,,,,,arrigns,nw,h,upper,,,,,,,1,w,HiDemTar,g,0,0.6463466883869842,,,,,,,,,,,,,,,,,,,354,2023-11-21_09h17.07.259,leap3,2022.2.5,59.997500844092336,
,,,,,,,,,,,,,,,,,,,,13,0,13,0,27,0,27,0,,,,,,eugenifs,nw,h,upper,,,,,,,1,nw,HiDemTar,h,1,0.7869516063947231,,,,,,,,,,,,,,,,,,,354,2023-11-21_09h17.07.259,leap3,2022.2.5,59.997500844092336,
,,,,,,,,,,,,,,,,,,,,13,0,13,0,28,0,28,0,,,,,,rarely,w,g,upper,,,,,,,1,nw,HiDemTar,g,1,0.8255818055476993,,,,,,,,,,,,,,,,,,,354,2023-11-21_09h17.07.259,leap3,2022.2.5,59.997500844092336,
,,,,,,,,,,,,,,,,,,,,13,0,13,0,29,0,29,0,,,,,,sampling,w,g,upper,,,,,,,1,w,HiDemTar,g,1,0.5339988248888403,,,,,,,,,,,,,,,,,,,354,2023-11-21_09h17.07.259,leap3,2022.2.5,59.997500844092336,
,,,,,,,,,,,,,,,,,,,,13,0,13,0,,,,,,,,,,,,,,,,,,,,,,,,,,,,1,,,,,,,,,,,,,,,,354,2023-11-21_09h17.07.259,leap3,2022.2.5,59.997500844092336,
,,,,,,,,,,,,,,,,,,,,14,0,14,0,0,0,0,0,,,,,,kickoff,w,g,lower,,,,,,,3,w,LoDemNoTar,g,1,0.6463611768558621,,,,,,,,,,,,,,,,,,,354,2023-11-21_09h17.07.259,leap3,2022.2.5,59.997500844092336,
,,,,,,,,,,,,,,,,,,,,14,0,14,0,1,0,1,0,,,,,,alchemist,w,g,lower,,,,,,,3,w,LoDemNoTar,h,0,0.8979269886622205,,,,,,,,,,,,,,,,,,,354,2023-11-21_09h17.07.259,leap3,2022.2.5,59.997500844092336,
,,,,,,,,,,,,,,,,,,,,14,0,14,0,2,0,2,0,,,,,,halms,nw,h,lower,,,,,,,3,nw,LoDemNoTar,h,1,0.8526474847458303,,,,,,,,,,,,,,,,,,,354,2023-11-21_09h17.07.259,leap3,2022.2.5,59.997500844092336,
,,,,,,,,,,,,,,,,,,,,14,0,14,0,3,0,3,0,,,,,,alticles,nw,h,lower,,,,,,,3,nw,LoDemNoTar,h,1,0.7853817197028548,,,,,,,,,,,,,,,,,,,354,2023-11-21_09h17.07.259,leap3,2022.2.5,59.997500844092336,
,,,,,,,,,,,,,,,,,,,,14,0,14,0,4,0,4,0,,,,,,beartiset,nw,h,lower,,,,,,,3,nw,LoDemNoTar,h,1,1.1042905685026199,,,,,,,,,,,,,,,,,,,354,2023-11-21_09h17.07.259,leap3,2022.2.5,59.997500844092336,
,,,,,,,,,,,,,,,,,,,,14,0,14,0,5,0,5,0,,,,,,veirs,nw,h,lower,,,,,,,3,nw,LoDemNoTar,h,1,1.0173382856883109,,,,,,,,,,,,,,,,,,,354,2023-11-21_09h17.07.259,leap3,2022.2.5,59.997500844092336,
,,,,,,,,,,,,,,,,,,,,14,0,14,0,6,0,6,0,,,,,,ragtam,nw,h,lower,,,,,,,3,nw,LoDemNoTar,h,1,0.6145236579468474,,,,,,,,,,,,,,,,,,,354,2023-11-21_09h17.07.259,leap3,2022.2.5,59.997500844092336,
,,,,,,,,,,,,,,,,,,,,14,0,14,0,7,0,7,0,,,,,,preclude,w,g,lower,,,,,,,3,w,LoDemNoTar,g,1,1.5884619092103094,,,,,,,,,,,,,,,,,,,354,2023-11-21_09h17.07.259,leap3,2022.2.5,59.997500844092336,
,,,,,,,,,,,,,,,,,,,,14,0,14,0,8,0,8,0,,,,,,failure,w,g,lower,,,,,,,3,w,LoDemNoTar,g,1,0.5950988382101059,,,,,,,,,,,,,,,,,,,354,2023-11-21_09h17.07.259,leap3,2022.2.5,59.997500844092336,
,,,,,,,,,,,,,,,,,,,,14,0,14,0,9,0,9,0,,,,,,coverall,w,g,lower,,,,,,,3,w,LoDemNoTar,g,1,0.6577759825158864,,,,,,,,,,,,,,,,,,,354,2023-11-21_09h17.07.259,leap3,2022.2.5,59.997500844092336,
,,,,,,,,,,,,,,,,,,,,14,0,14,0,10,0,10,0,,,,,,latirizes,nw,h,lower,,,,,,,3,nw,LoDemNoTar,h,1,0.9016927848570049,,,,,,,,,,,,,,,,,,,354,2023-11-21_09h17.07.259,leap3,2022.2.5,59.997500844092336,
,,,,,,,,,,,,,,,,,,,,14,0,14,0,11,0,11,0,,,,,,postal,w,g,lower,,,,,,,3,w,LoDemNoTar,g,1,0.7036793963052332,,,,,,,,,,,,,,,,,,,354,2023-11-21_09h17.07.259,leap3,2022.2.5,59.997500844092336,
,,,,,,,,,,,,,,,,,,,,14,0,14,0,12,0,12,0,,,,,,recollect,w,g,lower,,,,,,,3,w,LoDemNoTar,g,1,0.5456472572404891,,,,,,,,,,,,,,,,,,,354,2023-11-21_09h17.07.259,leap3,2022.2.5,59.997500844092336,
,,,,,,,,,,,,,,,,,,,,14,0,14,0,13,0,13,0,,,,,,detrabe,nw,h,lower,,,,,,,3,nw,LoDemNoTar,h,1,0.9374388719443232,,,,,,,,,,,,,,,,,,,354,2023-11-21_09h17.07.259,leap3,2022.2.5,59.997500844092336,
,,,,,,,,,,,,,,,,,,,,14,0,14,0,14,0,14,0,,,,,,enabled,w,g,lower,,,,,,,3,w,LoDemNoTar,g,1,0.8419474440161139,,,,,,,,,,,,,,,,,,,354,2023-11-21_09h17.07.259,leap3,2022.2.5,59.997500844092336,
,,,,,,,,,,,,,,,,,,,,14,0,14,0,15,0,15,0,,,,,,marinate,w,g,lower,,,,,,,3,w,LoDemNoTar,g,1,0.7425851783482358,,,,,,,,,,,,,,,,,,,354,2023-11-21_09h17.07.259,leap3,2022.2.5,59.997500844092336,
,,,,,,,,,,,,,,,,,,,,14,0,14,0,16,0,16,0,,,,,,wrecber,nw,h,lower,,,,,,,3,nw,LoDemNoTar,h,1,0.6792192278662696,,,,,,,,,,,,,,,,,,,354,2023-11-21_09h17.07.259,leap3,2022.2.5,59.997500844092336,
,,,,,,,,,,,,,,,,,,,,14,0,14,0,17,0,17,0,,,,,,insole,w,g,lower,,,,,,,3,w,LoDemNoTar,g,1,0.9945382550358772,,,,,,,,,,,,,,,,,,,354,2023-11-21_09h17.07.259,leap3,2022.2.5,59.997500844092336,
,,,,,,,,,,,,,,,,,,,,14,0,14,0,18,0,18,0,,,,,,peadgear,nw,h,lower,,,,,,,3,nw,LoDemNoTar,h,1,0.7851269639795646,,,,,,,,,,,,,,,,,,,354,2023-11-21_09h17.07.259,leap3,2022.2.5,59.997500844092336,
,,,,,,,,,,,,,,,,,,,,14,0,14,0,19,0,19,0,,,,,,hostade,nw,h,lower,,,,,,,3,nw,LoDemNoTar,h,1,0.7757094551343471,,,,,,,,,,,,,,,,,,,354,2023-11-21_09h17.07.259,leap3,2022.2.5,59.997500844092336,
,,,,,,,,,,,,,,,,,,,,14,0,14,0,20,0,20,0,,,,,,lasprey,nw,h,lower,,,,,,,3,nw,LoDemNoTar,h,1,0.9511307828361169,,,,,,,,,,,,,,,,,,,354,2023-11-21_09h17.07.259,leap3,2022.2.5,59.997500844092336,
,,,,,,,,,,,,,,,,,,,,14,0,14,0,21,0,21,0,,,,,,monopoly,w,g,lower,,,,,,,3,w,LoDemNoTar,g,1,0.5510970369214192,,,,,,,,,,,,,,,,,,,354,2023-11-21_09h17.07.259,leap3,2022.2.5,59.997500844092336,
,,,,,,,,,,,,,,,,,,,,14,0,14,0,22,0,22,0,,,,,,lancos,nw,h,lower,,,,,,,3,nw,LoDemNoTar,h,1,1.2060494694160298,,,,,,,,,,,,,,,,,,,354,2023-11-21_09h17.07.259,leap3,2022.2.5,59.997500844092336,
,,,,,,,,,,,,,,,,,,,,14,0,14,0,23,0,23,0,,,,,,exclusion,w,g,lower,,,,,,,3,w,LoDemNoTar,g,1,0.5308071345789358,,,,,,,,,,,,,,,,,,,354,2023-11-21_09h17.07.259,leap3,2022.2.5,59.997500844092336,
,,,,,,,,,,,,,,,,,,,,14,0,14,0,24,0,24,0,,,,,,boulder,w,g,lower,,,,,,,3,w,LoDemNoTar,g,1,1.1167606180533767,,,,,,,,,,,,,,,,,,,354,2023-11-21_09h17.07.259,leap3,2022.2.5,59.997500844092336,
,,,,,,,,,,,,,,,,,,,,14,0,14,0,25,0,25,0,,,,,,guitar,w,g,lower,,,,,,,3,w,LoDemNoTar,g,1,0.7586749320616946,,,,,,,,,,,,,,,,,,,354,2023-11-21_09h17.07.259,leap3,2022.2.5,59.997500844092336,
,,,,,,,,,,,,,,,,,,,,14,0,14,0,26,0,26,0,,,,,,profats,nw,h,lower,,,,,,,3,nw,LoDemNoTar,h,1,0.6785802256781608,,,,,,,,,,,,,,,,,,,354,2023-11-21_09h17.07.259,leap3,2022.2.5,59.997500844092336,
,,,,,,,,,,,,,,,,,,,,14,0,14,0,27,0,27,0,,,,,,hivinity,nw,h,lower,,,,,,,3,nw,LoDemNoTar,h,1,0.569938393542543,,,,,,,,,,,,,,,,,,,354,2023-11-21_09h17.07.259,leap3,2022.2.5,59.997500844092336,
,,,,,,,,,,,,,,,,,,,,14,0,14,0,28,0,28,0,,,,,,balign,nw,h,lower,,,,,,,3,nw,LoDemNoTar,h,1,0.7692107701441273,,,,,,,,,,,,,,,,,,,354,2023-11-21_09h17.07.259,leap3,2022.2.5,59.997500844092336,
,,,,,,,,,,,,,,,,,,,,14,0,14,0,29,0,29,0,,,,,,managed,w,g,lower,,,,,,,3,w,LoDemNoTar,g,1,0.7925761532969773,,,,,,,,,,,,,,,,,,,354,2023-11-21_09h17.07.259,leap3,2022.2.5,59.997500844092336,
,,,,,,,,,,,,,,,,,,,,14,0,14,0,,,,,,,,,,,,,,,,,,,,,,,,,,,,NA,,,,,,,,,,,,,,,,354,2023-11-21_09h17.07.259,leap3,2022.2.5,59.997500844092336,
,,,,,,,,,,,,,,,,,,,,15,0,15,0,0,0,0,0,,,,,,bumbo,nw,h,upper,,,,,,,1,nw,HiDemTar,h,1,0.9346607067855075,,,,,,,,,,,,,,,,,,,354,2023-11-21_09h17.07.259,leap3,2022.2.5,59.997500844092336,
,,,,,,,,,,,,,,,,,,,,15,0,15,0,1,0,1,0,,,,,,arrow,w,g,upper,,,,,,,1,w,HiDemTar,g,1,0.5113162113120779,,,,,,,,,,,,,,,,,,,354,2023-11-21_09h17.07.259,leap3,2022.2.5,59.997500844092336,
,,,,,,,,,,,,,,,,,,,,15,0,15,0,2,0,2,0,,,,,,migmarole,nw,h,upper,,,,,,,1,nw,HiDemTar,h,1,0.7933651715284213,,,,,,,,,,,,,,,,,,,354,2023-11-21_09h17.07.259,leap3,2022.2.5,59.997500844092336,
,,,,,,,,,,,,,,,,,,,,15,0,15,0,3,0,3,0,,,,,,joadbed,nw,h,upper,,,,,,,1,nw,HiDemTar,h,1,0.7110416546929628,,,,,,,,,,,,,,,,,,,354,2023-11-21_09h17.07.259,leap3,2022.2.5,59.997500844092336,
,,,,,,,,,,,,,,,,,,,,15,0,15,0,4,0,4,0,,,,,,series,w,g,upper,,,,,,,1,w,HiDemTar,g,1,0.6009512768359855,,,,,,,,,,,,,,,,,,,354,2023-11-21_09h17.07.259,leap3,2022.2.5,59.997500844092336,
,,,,,,,,,,,,,,,,,,,,15,0,15,0,5,0,5,0,,,,,,moozy,nw,h,upper,,,,,,,1,nw,HiDemTar,h,1,0.7828661581734195,,,,,,,,,,,,,,,,,,,354,2023-11-21_09h17.07.259,leap3,2022.2.5,59.997500844092336,
,,,,,,,,,,,,,,,,,,,,15,0,15,0,6,0,6,0,,,,,,surround,w,g,upper,,,,,,,1,w,HiDemTar,g,1,0.5182232900988311,,,,,,,,,,,,,,,,,,,354,2023-11-21_09h17.07.259,leap3,2022.2.5,59.997500844092336,
,,,,,,,,,,,,,,,,,,,,15,0,15,0,7,0,7,0,,,,,,eggays,nw,h,upper,,,,,,,1,nw,HiDemTar,h,1,0.8315371725475416,,,,,,,,,,,,,,,,,,,354,2023-11-21_09h17.07.259,leap3,2022.2.5,59.997500844092336,
,,,,,,,,,,,,,,,,,,,,15,0,15,0,8,0,8,0,,,,,,phambled,nw,h,upper,,,,,,,1,nw,HiDemTar,g,0,0.9808363831834868,,,,,,,,,,,,,,,,,,,354,2023-11-21_09h17.07.259,leap3,2022.2.5,59.997500844092336,
,,,,,,,,,,,,,,,,,,,,15,0,15,0,9,0,9,0,,,,,,oppose,w,g,upper,,,,,,,1,w,HiDemTar,g,1,0.72413651982788,,,,,,,,,,,,,,,,,,,354,2023-11-21_09h17.07.259,leap3,2022.2.5,59.997500844092336,
,,,,,,,,,,,,,,,,,,,,15,0,15,0,10,0,10,0,,,,,,icepick,w,g,upper,,,,,,,1,w,HiDemTar,g,1,0.7494104576762766,,,,,,,,,,,,,,,,,,,354,2023-11-21_09h17.07.259,leap3,2022.2.5,59.997500844092336,
,,,,,,,,,,,,,,,,,,,,15,0,15,0,11,0,11,0,,,,,,resonant,w,g,upper,,,,,,,1,w,HiDemTar,g,1,0.5810673536034301,,,,,,,,,,,,,,,,,,,354,2023-11-21_09h17.07.259,leap3,2022.2.5,59.997500844092336,
,,,,,,,,,,,,,,,,,,,,15,0,15,0,12,0,12,0,,,,,,fonducts,nw,h,upper,,,,,,,1,nw,HiDemTar,h,1,0.9873966440791264,,,,,,,,,,,,,,,,,,,354,2023-11-21_09h17.07.259,leap3,2022.2.5,59.997500844092336,
,,,,,,,,,,,,,,,,,,,,15,0,15,0,13,0,13,0,,,,,,protest,w,g,upper,,,,,,,1,w,HiDemTar,g,1,0.5874084762763232,,,,,,,,,,,,,,,,,,,354,2023-11-21_09h17.07.259,leap3,2022.2.5,59.997500844092336,
,,,,,,,,,,,,,,,,,,,,15,0,15,0,14,0,14,0,,,,,,forfeit,w,g,upper,,,,,,,1,w,HiDemTar,g,1,0.8416274901246652,,,,,,,,,,,,,,,,,,,354,2023-11-21_09h17.07.259,leap3,2022.2.5,59.997500844092336,
,,,,,,,,,,,,,,,,,,,,15,0,15,0,15,0,15,0,,,,,,nameplate,w,g,upper,,,,,,,1,w,HiDemTar,h,0,0.7902954256860539,,,,,,,,,,,,,,,,,,,354,2023-11-21_09h17.07.259,leap3,2022.2.5,59.997500844092336,
,,,,,,,,,,,,,,,,,,,,15,0,15,0,16,0,16,0,,,,,,amkles,nw,h,upper,,,,,,,1,nw,HiDemTar,h,1,0.8609620586503297,,,,,,,,,,,,,,,,,,,354,2023-11-21_09h17.07.259,leap3,2022.2.5,59.997500844092336,
,,,,,,,,,,,,,,,,,,,,15,0,15,0,17,0,17,0,,,,,,vorm,nw,h,upper,,,,,,,1,nw,HiDemTar,h,1,0.6808917411835864,,,,,,,,,,,,,,,,,,,354,2023-11-21_09h17.07.259,leap3,2022.2.5,59.997500844092336,
,,,,,,,,,,,,,,,,,,,,15,0,15,0,18,0,18,0,,,,,,rawhide,w,g,upper,,,,,,,1,w,HiDemTar,h,0,0.6202580756507814,,,,,,,,,,,,,,,,,,,354,2023-11-21_09h17.07.259,leap3,2022.2.5,59.997500844092336,
,,,,,,,,,,,,,,,,,,,,15,0,15,0,19,0,19,0,,,,,,thaken,nw,h,upper,,,,,,,1,nw,HiDemTar,h,1,0.5135706784203649,,,,,,,,,,,,,,,,,,,354,2023-11-21_09h17.07.259,leap3,2022.2.5,59.997500844092336,
,,,,,,,,,,,,,,,,,,,,15,0,15,0,20,0,20,0,,,,,,wimpid,nw,h,upper,,,,,,,1,nw,HiDemTar,h,1,0.6035697668557987,,,,,,,,,,,,,,,,,,,354,2023-11-21_09h17.07.259,leap3,2022.2.5,59.997500844092336,
,,,,,,,,,,,,,,,,,,,,15,0,15,0,21,0,21,0,,,,,,omners,nw,h,upper,,,,,,,1,nw,HiDemTar,h,1,0.5045854089548811,,,,,,,,,,,,,,,,,,,354,2023-11-21_09h17.07.259,leap3,2022.2.5,59.997500844092336,
,,,,,,,,,,,,,,,,,,,,15,0,15,0,22,0,22,0,,,,,,ucility,nw,h,upper,,,,,,,1,nw,HiDemTar,h,1,0.6274380206596106,,,,,,,,,,,,,,,,,,,354,2023-11-21_09h17.07.259,leap3,2022.2.5,59.997500844092336,
,,,,,,,,,,,,,,,,,,,,15,0,15,0,23,0,23,0,,,,,,ethical,w,g,upper,,,,,,,1,w,HiDemTar,g,1,0.5757657790090889,,,,,,,,,,,,,,,,,,,354,2023-11-21_09h17.07.259,leap3,2022.2.5,59.997500844092336,
,,,,,,,,,,,,,,,,,,,,15,0,15,0,24,0,24,0,,,,,,booster,w,g,upper,,,,,,,1,w,HiDemTar,g,1,0.5590318918693811,,,,,,,,,,,,,,,,,,,354,2023-11-21_09h17.07.259,leap3,2022.2.5,59.997500844092336,
,,,,,,,,,,,,,,,,,,,,15,0,15,0,25,0,25,0,,,,,,pripend,nw,h,upper,,,,,,,1,nw,HiDemTar,g,0,1.1190253479871899,,,,,,,,,,,,,,,,,,,354,2023-11-21_09h17.07.259,leap3,2022.2.5,59.997500844092336,
,,,,,,,,,,,,,,,,,,,,15,0,15,0,26,0,26,0,,,,,,reborn,w,g,upper,,,,,,,1,w,HiDemTar,g,1,0.7203589517157525,,,,,,,,,,,,,,,,,,,354,2023-11-21_09h17.07.259,leap3,2022.2.5,59.997500844092336,
,,,,,,,,,,,,,,,,,,,,15,0,15,0,27,0,27,0,,,,,,happen,w,g,upper,,,,,,,1,w,HiDemTar,g,1,0.4815909912576899,,,,,,,,,,,,,,,,,,,354,2023-11-21_09h17.07.259,leap3,2022.2.5,59.997500844092336,
,,,,,,,,,,,,,,,,,,,,15,0,15,0,28,0,28,0,,,,,,rabbit,target,q,upper,,,,,,,1,target,HiDemTar,g,0,0.5169298917753622,,,,,,,,,,,,,,,,,,,354,2023-11-21_09h17.07.259,leap3,2022.2.5,59.997500844092336,
,,,,,,,,,,,,,,,,,,,,15,0,15,0,29,0,29,0,,,,,,actively,w,g,upper,,,,,,,1,aftertar1,HiDemTar,g,1,0.8543178853578866,,,,,,,,,,,,,,,,,,,354,2023-11-21_09h17.07.259,leap3,2022.2.5,59.997500844092336,
,,,,,,,,,,,,,,,,,,,,15,0,15,0,,,,,,,,,,,,,,,,,,,,,,,,,,,,0,,,,,,,,,,,,,,,,354,2023-11-21_09h17.07.259,leap3,2022.2.5,59.997500844092336,
,,,,,,,,,,,,,,,,,,,,16,0,16,0,0,0,0,0,,,,,,resent,w,g,lower,,,,,,,3,w,LoDemNoTar,g,1,1.2737574349157512,,,,,,,,,,,,,,,,,,,354,2023-11-21_09h17.07.259,leap3,2022.2.5,59.997500844092336,
,,,,,,,,,,,,,,,,,,,,16,0,16,0,1,0,1,0,,,,,,snife,nw,h,lower,,,,,,,3,nw,LoDemNoTar,g,0,1.219901055446826,,,,,,,,,,,,,,,,,,,354,2023-11-21_09h17.07.259,leap3,2022.2.5,59.997500844092336,
,,,,,,,,,,,,,,,,,,,,16,0,16,0,2,0,2,0,,,,,,turntable,w,g,lower,,,,,,,3,w,LoDemNoTar,g,1,1.4098005959531292,,,,,,,,,,,,,,,,,,,354,2023-11-21_09h17.07.259,leap3,2022.2.5,59.997500844092336,
,,,,,,,,,,,,,,,,,,,,16,0,16,0,3,0,3,0,,,,,,olgies,nw,h,lower,,,,,,,3,nw,LoDemNoTar,h,1,0.6723362965276465,,,,,,,,,,,,,,,,,,,354,2023-11-21_09h17.07.259,leap3,2022.2.5,59.997500844092336,
,,,,,,,,,,,,,,,,,,,,16,0,16,0,4,0,4,0,,,,,,contusiok,nw,h,lower,,,,,,,3,nw,LoDemNoTar,h,1,0.9067646566545591,,,,,,,,,,,,,,,,,,,354,2023-11-21_09h17.07.259,leap3,2022.2.5,59.997500844092336,
,,,,,,,,,,,,,,,,,,,,16,0,16,0,5,0,5,0,,,,,,landing,w,g,lower,,,,,,,3,w,LoDemNoTar,h,0,0.5566760054789484,,,,,,,,,,,,,,,,,,,354,2023-11-21_09h17.07.259,leap3,2022.2.5,59.997500844092336,
