demoRace_loop.thisRepN,demoRace_loop.thisTrialN,demoRace_loop.thisN,demoRace_loop.thisIndex,LDTunderstand.thisRepN,LDTunderstand.thisTrialN,LDTunderstand.thisN,LDTunderstand.thisIndex,pracBlocks.thisRepN,pracBlocks.thisTrialN,pracBlocks.thisN,pracBlocks.thisIndex,pracTrial.thisRepN,pracTrial.thisTrialN,pracTrial.thisN,pracTrial.thisIndex,PMunderstand.thisRepN,PMunderstand.thisTrialN,PMunderstand.thisN,PMunderstand.thisIndex,LDT_block.thisRepN,LDT_block.thisTrialN,LDT_block.thisN,LDT_block.thisIndex,LDT_trial.thisRepN,LDT_trial.thisTrialN,LDT_trial.thisN,LDT_trial.thisIndex,ageTextbox.text,genderTextbox.text,race,raceResp,LDTunderstand,stim,word_type,corr_key,stim_location,LDTpracKey.keys,LDTpracKey.corr,LDTpracKey.rt,PMunderstand,cueTextbox.text,intentionTextbox.text,block_type,role,block_desc,LDTResp.keys,LDTResp.corr,LDTResp.rt,pressedQ,PM_accuracy,postQ1,Q2Textbox.text,Q3Textbox.text,Q4,Q5,Q6Key.keys,Q6Key.rt,postQ7_correct,postQ7,Q8Textbox.text,education,medTextbox.text,health,healthLimit,psych,participant,date,expName,psychopyVersion,frameRate,
0,0,0,0,,,,,,,,,,,,,,,,,,,,,,,,,"
20", female ,American Indian or Alaska Native,n,,,,,,,,,,,,,,,,,,,,,,,,,,,,,,,,,,,355,2023-11-21_09h50.20.582,leap3,2022.2.5,59.96788815911237,
1,0,1,0,,,,,,,,,,,,,,,,,,,,,,,,,,,Asian,y,,,,,,,,,,,,,,,,,,,,,,,,,,,,,,,,,,,355,2023-11-21_09h50.20.582,leap3,2022.2.5,59.96788815911237,
2,0,2,0,,,,,,,,,,,,,,,,,,,,,,,,,,,Black or African American,n,,,,,,,,,,,,,,,,,,,,,,,,,,,,,,,,,,,355,2023-11-21_09h50.20.582,leap3,2022.2.5,59.96788815911237,
3,0,3,0,,,,,,,,,,,,,,,,,,,,,,,,,,,Native Hawaiian or other Pacific Islander,n,,,,,,,,,,,,,,,,,,,,,,,,,,,,,,,,,,,355,2023-11-21_09h50.20.582,leap3,2022.2.5,59.96788815911237,
4,0,4,0,,,,,,,,,,,,,,,,,,,,,,,,,,,White,n,,,,,,,,,,,,,,,,,,,,,,,,,,,,,,,,,,,355,2023-11-21_09h50.20.582,leap3,2022.2.5,59.96788815911237,
,,,,0,0,0,0,,,,,,,,,,,,,,,,,,,,,,,,,y,,,,,,,,,,,,,,,,,,,,,,,,,,,,,,,,,,355,2023-11-21_09h50.20.582,leap3,2022.2.5,59.96788815911237,
,,,,,,,,0,0,0,0,0,0,0,0,,,,,,,,,,,,,,,,,,julled,nw,h,lower,h,1,1.044656653655693,,,,,,,,,,,,,,,,,,,,,,,,,,,355,2023-11-21_09h50.20.582,leap3,2022.2.5,59.96788815911237,
,,,,,,,,0,0,0,0,1,0,1,0,,,,,,,,,,,,,,,,,,lumbigo,nw,h,lower,h,1,0.9036543868714944,,,,,,,,,,,,,,,,,,,,,,,,,,,355,2023-11-21_09h50.20.582,leap3,2022.2.5,59.96788815911237,
,,,,,,,,0,0,0,0,2,0,2,0,,,,,,,,,,,,,,,,,,sponsor,w,g,lower,g,1,0.5355510087683797,,,,,,,,,,,,,,,,,,,,,,,,,,,355,2023-11-21_09h50.20.582,leap3,2022.2.5,59.96788815911237,
,,,,,,,,0,0,0,0,3,0,3,0,,,,,,,,,,,,,,,,,,curlecs,nw,h,lower,h,1,0.611397776985541,,,,,,,,,,,,,,,,,,,,,,,,,,,355,2023-11-21_09h50.20.582,leap3,2022.2.5,59.96788815911237,
,,,,,,,,0,0,0,0,4,0,4,0,,,,,,,,,,,,,,,,,,slumber,w,g,lower,g,1,0.641311236191541,,,,,,,,,,,,,,,,,,,,,,,,,,,355,2023-11-21_09h50.20.582,leap3,2022.2.5,59.96788815911237,
,,,,,,,,0,0,0,0,5,0,5,0,,,,,,,,,,,,,,,,,,treeps,nw,h,lower,h,1,0.54199191078078,,,,,,,,,,,,,,,,,,,,,,,,,,,355,2023-11-21_09h50.20.582,leap3,2022.2.5,59.96788815911237,
,,,,,,,,0,0,0,0,6,0,6,0,,,,,,,,,,,,,,,,,,unscrew,w,g,lower,g,1,0.5821843107696623,,,,,,,,,,,,,,,,,,,,,,,,,,,355,2023-11-21_09h50.20.582,leap3,2022.2.5,59.96788815911237,
,,,,,,,,0,0,0,0,7,0,7,0,,,,,,,,,,,,,,,,,,hasking,nw,h,lower,h,1,0.732803558697924,,,,,,,,,,,,,,,,,,,,,,,,,,,355,2023-11-21_09h50.20.582,leap3,2022.2.5,59.96788815911237,
,,,,,,,,0,0,0,0,8,0,8,0,,,,,,,,,,,,,,,,,,grutch,nw,h,lower,h,1,0.6949112652800977,,,,,,,,,,,,,,,,,,,,,,,,,,,355,2023-11-21_09h50.20.582,leap3,2022.2.5,59.96788815911237,
,,,,,,,,0,0,0,0,9,0,9,0,,,,,,,,,,,,,,,,,,reputable,w,g,lower,g,1,0.6167257535271347,,,,,,,,,,,,,,,,,,,,,,,,,,,355,2023-11-21_09h50.20.582,leap3,2022.2.5,59.96788815911237,
,,,,,,,,0,0,0,0,10,0,10,0,,,,,,,,,,,,,,,,,,umpire,w,g,lower,h,0,0.6694579601753503,,,,,,,,,,,,,,,,,,,,,,,,,,,355,2023-11-21_09h50.20.582,leap3,2022.2.5,59.96788815911237,
,,,,,,,,0,0,0,0,11,0,11,0,,,,,,,,,,,,,,,,,,tricycle,w,g,lower,g,1,0.7047482957132161,,,,,,,,,,,,,,,,,,,,,,,,,,,355,2023-11-21_09h50.20.582,leap3,2022.2.5,59.96788815911237,
,,,,,,,,0,0,0,0,12,0,12,0,,,,,,,,,,,,,,,,,,raestro,nw,h,lower,h,1,0.5880839935271069,,,,,,,,,,,,,,,,,,,,,,,,,,,355,2023-11-21_09h50.20.582,leap3,2022.2.5,59.96788815911237,
,,,,,,,,0,0,0,0,13,0,13,0,,,,,,,,,,,,,,,,,,revival,w,g,lower,g,1,0.6182766652200371,,,,,,,,,,,,,,,,,,,,,,,,,,,355,2023-11-21_09h50.20.582,leap3,2022.2.5,59.96788815911237,
,,,,,,,,0,0,0,0,,,,,,,,,,,,,,,,,,,,,,,,,,,,,,,,,,,,,,,,,,,,,,,,,,,,,,,355,2023-11-21_09h50.20.582,leap3,2022.2.5,59.96788815911237,
,,,,,,,,1,0,1,0,0,0,0,0,,,,,,,,,,,,,,,,,,alolition,nw,h,upper,g,0,0.5119821609696373,,,,,,,,,,,,,,,,,,,,,,,,,,,355,2023-11-21_09h50.20.582,leap3,2022.2.5,59.96788815911237,
,,,,,,,,1,0,1,0,1,0,1,0,,,,,,,,,,,,,,,,,,crinklo,nw,h,upper,h,1,0.5460167954443023,,,,,,,,,,,,,,,,,,,,,,,,,,,355,2023-11-21_09h50.20.582,leap3,2022.2.5,59.96788815911237,
,,,,,,,,1,0,1,0,2,0,2,0,,,,,,,,,,,,,,,,,,summary,w,g,upper,g,1,0.5547581060091034,,,,,,,,,,,,,,,,,,,,,,,,,,,355,2023-11-21_09h50.20.582,leap3,2022.2.5,59.96788815911237,
,,,,,,,,1,0,1,0,3,0,3,0,,,,,,,,,,,,,,,,,,latador,nw,h,upper,h,1,0.4907858641818166,,,,,,,,,,,,,,,,,,,,,,,,,,,355,2023-11-21_09h50.20.582,leap3,2022.2.5,59.96788815911237,
,,,,,,,,1,0,1,0,4,0,4,0,,,,,,,,,,,,,,,,,,hiring,w,g,upper,g,1,0.532630899688229,,,,,,,,,,,,,,,,,,,,,,,,,,,355,2023-11-21_09h50.20.582,leap3,2022.2.5,59.96788815911237,
,,,,,,,,1,0,1,0,5,0,5,0,,,,,,,,,,,,,,,,,,trotch,nw,h,upper,h,1,0.5579731236211956,,,,,,,,,,,,,,,,,,,,,,,,,,,355,2023-11-21_09h50.20.582,leap3,2022.2.5,59.96788815911237,
,,,,,,,,1,0,1,0,6,0,6,0,,,,,,,,,,,,,,,,,,busted,w,g,upper,g,1,0.5259705518838018,,,,,,,,,,,,,,,,,,,,,,,,,,,355,2023-11-21_09h50.20.582,leap3,2022.2.5,59.96788815911237,
,,,,,,,,1,0,1,0,7,0,7,0,,,,,,,,,,,,,,,,,,turative,nw,h,upper,h,1,0.6073704776354134,,,,,,,,,,,,,,,,,,,,,,,,,,,355,2023-11-21_09h50.20.582,leap3,2022.2.5,59.96788815911237,
,,,,,,,,1,0,1,0,8,0,8,0,,,,,,,,,,,,,,,,,,lurshing,nw,h,upper,h,1,0.7014544948469847,,,,,,,,,,,,,,,,,,,,,,,,,,,355,2023-11-21_09h50.20.582,leap3,2022.2.5,59.96788815911237,
,,,,,,,,1,0,1,0,9,0,9,0,,,,,,,,,,,,,,,,,,overshoot,w,g,upper,g,1,0.49550047889351845,,,,,,,,,,,,,,,,,,,,,,,,,,,355,2023-11-21_09h50.20.582,leap3,2022.2.5,59.96788815911237,
,,,,,,,,1,0,1,0,10,0,10,0,,,,,,,,,,,,,,,,,,picture,w,g,upper,g,1,0.5041026358958334,,,,,,,,,,,,,,,,,,,,,,,,,,,355,2023-11-21_09h50.20.582,leap3,2022.2.5,59.96788815911237,
,,,,,,,,1,0,1,0,11,0,11,0,,,,,,,,,,,,,,,,,,grimace,w,g,upper,g,1,0.6105800620280206,,,,,,,,,,,,,,,,,,,,,,,,,,,355,2023-11-21_09h50.20.582,leap3,2022.2.5,59.96788815911237,
,,,,,,,,1,0,1,0,12,0,12,0,,,,,,,,,,,,,,,,,,grocus,nw,h,upper,h,1,0.5932767406338826,,,,,,,,,,,,,,,,,,,,,,,,,,,355,2023-11-21_09h50.20.582,leap3,2022.2.5,59.96788815911237,
,,,,,,,,1,0,1,0,13,0,13,0,,,,,,,,,,,,,,,,,,infinity,w,g,upper,g,1,0.5575327225960791,,,,,,,,,,,,,,,,,,,,,,,,,,,355,2023-11-21_09h50.20.582,leap3,2022.2.5,59.96788815911237,
,,,,,,,,1,0,1,0,,,,,,,,,,,,,,,,,,,,,,,,,,,,,,,,,,,,,,,,,,,,,,,,,,,,,,,355,2023-11-21_09h50.20.582,leap3,2022.2.5,59.96788815911237,
,,,,,,,,,,,,,,,,0,0,0,0,,,,,,,,,,,,,,,,,,,,,y,,,,,,,,,,,,,,,,,,,,,,,,,,355,2023-11-21_09h50.20.582,leap3,2022.2.5,59.96788815911237,
,,,,,,,,,,,,,,,,,,,,0,0,0,0,0,0,0,0,,,,,,wimpid,nw,h,upper,,,,,animal,"
q",4,nw,LoDemTar,h,1,0.906585966120474,,,,,,,,,,,,,,,,,,355,2023-11-21_09h50.20.582,leap3,2022.2.5,59.96788815911237,
,,,,,,,,,,,,,,,,,,,,0,0,0,0,1,0,1,0,,,,,,mopping,w,g,upper,,,,,,,4,w,LoDemTar,h,0,0.6372908793855458,,,,,,,,,,,,,,,,,,355,2023-11-21_09h50.20.582,leap3,2022.2.5,59.96788815911237,
,,,,,,,,,,,,,,,,,,,,0,0,0,0,2,0,2,0,,,,,,deceit,w,g,upper,,,,,,,4,w,LoDemTar,g,1,0.9937482323730364,,,,,,,,,,,,,,,,,,355,2023-11-21_09h50.20.582,leap3,2022.2.5,59.96788815911237,
,,,,,,,,,,,,,,,,,,,,0,0,0,0,3,0,3,0,,,,,,eightiech,nw,h,upper,,,,,,,4,nw,LoDemTar,h,1,0.7930720855947584,,,,,,,,,,,,,,,,,,355,2023-11-21_09h50.20.582,leap3,2022.2.5,59.96788815911237,
,,,,,,,,,,,,,,,,,,,,0,0,0,0,4,0,4,0,,,,,,happen,w,g,upper,,,,,,,4,w,LoDemTar,g,1,0.7684573231963441,,,,,,,,,,,,,,,,,,355,2023-11-21_09h50.20.582,leap3,2022.2.5,59.96788815911237,
,,,,,,,,,,,,,,,,,,,,0,0,0,0,5,0,5,0,,,,,,demise,w,g,upper,,,,,,,4,w,LoDemTar,g,1,0.6885295259999111,,,,,,,,,,,,,,,,,,355,2023-11-21_09h50.20.582,leap3,2022.2.5,59.96788815911237,
,,,,,,,,,,,,,,,,,,,,0,0,0,0,6,0,6,0,,,,,,passet,nw,h,upper,,,,,,,4,nw,LoDemTar,g,0,0.5798132693162188,,,,,,,,,,,,,,,,,,355,2023-11-21_09h50.20.582,leap3,2022.2.5,59.96788815911237,
,,,,,,,,,,,,,,,,,,,,0,0,0,0,7,0,7,0,,,,,,esdings,nw,h,upper,,,,,,,4,nw,LoDemTar,h,1,0.6437882276950404,,,,,,,,,,,,,,,,,,355,2023-11-21_09h50.20.582,leap3,2022.2.5,59.96788815911237,
,,,,,,,,,,,,,,,,,,,,0,0,0,0,8,0,8,0,,,,,,twarfs,nw,h,upper,,,,,,,4,nw,LoDemTar,h,1,0.816025760374032,,,,,,,,,,,,,,,,,,355,2023-11-21_09h50.20.582,leap3,2022.2.5,59.96788815911237,
,,,,,,,,,,,,,,,,,,,,0,0,0,0,9,0,9,0,,,,,,expired,w,g,upper,,,,,,,4,w,LoDemTar,g,1,0.6698612334439531,,,,,,,,,,,,,,,,,,355,2023-11-21_09h50.20.582,leap3,2022.2.5,59.96788815911237,
,,,,,,,,,,,,,,,,,,,,0,0,0,0,10,0,10,0,,,,,,whirlpool,w,g,upper,,,,,,,4,w,LoDemTar,h,0,0.523256607237272,,,,,,,,,,,,,,,,,,355,2023-11-21_09h50.20.582,leap3,2022.2.5,59.96788815911237,
,,,,,,,,,,,,,,,,,,,,0,0,0,0,11,0,11,0,,,,,,horks,nw,h,upper,,,,,,,4,nw,LoDemTar,h,1,0.7569999551633373,,,,,,,,,,,,,,,,,,355,2023-11-21_09h50.20.582,leap3,2022.2.5,59.96788815911237,
,,,,,,,,,,,,,,,,,,,,0,0,0,0,12,0,12,0,,,,,,frose,nw,h,upper,,,,,,,4,nw,LoDemTar,h,1,0.6855122209526598,,,,,,,,,,,,,,,,,,355,2023-11-21_09h50.20.582,leap3,2022.2.5,59.96788815911237,
,,,,,,,,,,,,,,,,,,,,0,0,0,0,13,0,13,0,,,,,,thorifies,nw,h,upper,,,,,,,4,nw,LoDemTar,h,1,0.7607465329347178,,,,,,,,,,,,,,,,,,355,2023-11-21_09h50.20.582,leap3,2022.2.5,59.96788815911237,
,,,,,,,,,,,,,,,,,,,,0,0,0,0,14,0,14,0,,,,,,recipus,nw,h,upper,,,,,,,4,nw,LoDemTar,h,1,0.737602993613109,,,,,,,,,,,,,,,,,,355,2023-11-21_09h50.20.582,leap3,2022.2.5,59.96788815911237,
,,,,,,,,,,,,,,,,,,,,0,0,0,0,15,0,15,0,,,,,,tycoon,w,g,upper,,,,,,,4,w,LoDemTar,g,1,0.8909787471638992,,,,,,,,,,,,,,,,,,355,2023-11-21_09h50.20.582,leap3,2022.2.5,59.96788815911237,
,,,,,,,,,,,,,,,,,,,,0,0,0,0,16,0,16,0,,,,,,pallir,nw,h,upper,,,,,,,4,nw,LoDemTar,h,1,0.6223187554860488,,,,,,,,,,,,,,,,,,355,2023-11-21_09h50.20.582,leap3,2022.2.5,59.96788815911237,
,,,,,,,,,,,,,,,,,,,,0,0,0,0,17,0,17,0,,,,,,pegend,nw,h,upper,,,,,,,4,nw,LoDemTar,h,1,0.604388187173754,,,,,,,,,,,,,,,,,,355,2023-11-21_09h50.20.582,leap3,2022.2.5,59.96788815911237,
,,,,,,,,,,,,,,,,,,,,0,0,0,0,18,0,18,0,,,,,,arcients,nw,h,upper,,,,,,,4,nw,LoDemTar,h,1,0.8511540018953383,,,,,,,,,,,,,,,,,,355,2023-11-21_09h50.20.582,leap3,2022.2.5,59.96788815911237,
,,,,,,,,,,,,,,,,,,,,0,0,0,0,19,0,19,0,,,,,,tracing,w,g,upper,,,,,,,4,w,LoDemTar,g,1,0.639828241080977,,,,,,,,,,,,,,,,,,355,2023-11-21_09h50.20.582,leap3,2022.2.5,59.96788815911237,
,,,,,,,,,,,,,,,,,,,,0,0,0,0,20,0,20,0,,,,,,crimb,nw,h,upper,,,,,,,4,nw,LoDemTar,h,1,0.6682095034047961,,,,,,,,,,,,,,,,,,355,2023-11-21_09h50.20.582,leap3,2022.2.5,59.96788815911237,
,,,,,,,,,,,,,,,,,,,,0,0,0,0,21,0,21,0,,,,,,deadly,w,g,upper,,,,,,,4,w,LoDemTar,g,1,0.5203328760107979,,,,,,,,,,,,,,,,,,355,2023-11-21_09h50.20.582,leap3,2022.2.5,59.96788815911237,
,,,,,,,,,,,,,,,,,,,,0,0,0,0,22,0,22,0,,,,,,doads,nw,h,upper,,,,,,,4,nw,LoDemTar,h,1,0.826169773703441,,,,,,,,,,,,,,,,,,355,2023-11-21_09h50.20.582,leap3,2022.2.5,59.96788815911237,
,,,,,,,,,,,,,,,,,,,,0,0,0,0,23,0,23,0,,,,,,deficit,w,g,upper,,,,,,,4,w,LoDemTar,g,1,0.8402170254848897,,,,,,,,,,,,,,,,,,355,2023-11-21_09h50.20.582,leap3,2022.2.5,59.96788815911237,
,,,,,,,,,,,,,,,,,,,,0,0,0,0,24,0,24,0,,,,,,finish,w,g,upper,,,,,,,4,w,LoDemTar,h,0,0.6696288079256192,,,,,,,,,,,,,,,,,,355,2023-11-21_09h50.20.582,leap3,2022.2.5,59.96788815911237,
,,,,,,,,,,,,,,,,,,,,0,0,0,0,25,0,25,0,,,,,,coyote,target,q,upper,,,,,,,4,target,LoDemTar,q,1,0.8417151132598519,1,,,,,,,,,,,,,,,,,355,2023-11-21_09h50.20.582,leap3,2022.2.5,59.96788815911237,
,,,,,,,,,,,,,,,,,,,,0,0,0,0,26,0,26,0,,,,,,outset,w,g,upper,,,,,,,4,aftertar1,LoDemTar,g,1,0.8710716569330543,,,,,,,,,,,,,,,,,,355,2023-11-21_09h50.20.582,leap3,2022.2.5,59.96788815911237,
,,,,,,,,,,,,,,,,,,,,0,0,0,0,27,0,27,0,,,,,,acidic,w,g,upper,,,,,,,4,aftertar2,LoDemTar,g,1,0.5470394674921408,,,,,,,,,,,,,,,,,,355,2023-11-21_09h50.20.582,leap3,2022.2.5,59.96788815911237,
,,,,,,,,,,,,,,,,,,,,0,0,0,0,28,0,28,0,,,,,,fuack,nw,h,upper,,,,,,,4,aftertar3,LoDemTar,h,1,0.6436339817009866,,,,,,,,,,,,,,,,,,355,2023-11-21_09h50.20.582,leap3,2022.2.5,59.96788815911237,
,,,,,,,,,,,,,,,,,,,,0,0,0,0,29,0,29,0,,,,,,anterior,w,g,upper,,,,,,,4,nw,LoDemTar,g,1,0.7449334512930363,,,,,,,,,,,,,,,,,,355,2023-11-21_09h50.20.582,leap3,2022.2.5,59.96788815911237,
,,,,,,,,,,,,,,,,,,,,0,0,0,0,,,,,,,,,,,,,,,,,,,,,,,,,,,1,,,,,,,,,,,,,,,,355,2023-11-21_09h50.20.582,leap3,2022.2.5,59.96788815911237,
,,,,,,,,,,,,,,,,,,,,1,0,1,0,0,0,0,0,,,,,,leuter,nw,h,upper,,,,,,,3,nw,LoDemNoTar,h,1,0.5939706967910752,,,,,,,,,,,,,,,,,,355,2023-11-21_09h50.20.582,leap3,2022.2.5,59.96788815911237,
,,,,,,,,,,,,,,,,,,,,1,0,1,0,1,0,1,0,,,,,,unlined,w,g,upper,,,,,,,3,w,LoDemNoTar,g,1,0.7373799255583435,,,,,,,,,,,,,,,,,,355,2023-11-21_09h50.20.582,leap3,2022.2.5,59.96788815911237,
,,,,,,,,,,,,,,,,,,,,1,0,1,0,2,0,2,0,,,,,,gallon,w,g,upper,,,,,,,3,w,LoDemNoTar,g,1,0.6593568098032847,,,,,,,,,,,,,,,,,,355,2023-11-21_09h50.20.582,leap3,2022.2.5,59.96788815911237,
,,,,,,,,,,,,,,,,,,,,1,0,1,0,3,0,3,0,,,,,,recount,w,g,upper,,,,,,,3,w,LoDemNoTar,g,1,0.6326245609670877,,,,,,,,,,,,,,,,,,355,2023-11-21_09h50.20.582,leap3,2022.2.5,59.96788815911237,
,,,,,,,,,,,,,,,,,,,,1,0,1,0,4,0,4,0,,,,,,booster,w,g,upper,,,,,,,3,w,LoDemNoTar,g,1,0.6376002769684419,,,,,,,,,,,,,,,,,,355,2023-11-21_09h50.20.582,leap3,2022.2.5,59.96788815911237,
,,,,,,,,,,,,,,,,,,,,1,0,1,0,5,0,5,0,,,,,,vopings,nw,h,upper,,,,,,,3,nw,LoDemNoTar,h,1,0.6750008546514437,,,,,,,,,,,,,,,,,,355,2023-11-21_09h50.20.582,leap3,2022.2.5,59.96788815911237,
,,,,,,,,,,,,,,,,,,,,1,0,1,0,6,0,6,0,,,,,,eggays,nw,h,upper,,,,,,,3,nw,LoDemNoTar,h,1,0.5509061821503565,,,,,,,,,,,,,,,,,,355,2023-11-21_09h50.20.582,leap3,2022.2.5,59.96788815911237,
,,,,,,,,,,,,,,,,,,,,1,0,1,0,7,0,7,0,,,,,,maunches,nw,h,upper,,,,,,,3,nw,LoDemNoTar,h,1,0.6875560557236895,,,,,,,,,,,,,,,,,,355,2023-11-21_09h50.20.582,leap3,2022.2.5,59.96788815911237,
,,,,,,,,,,,,,,,,,,,,1,0,1,0,8,0,8,0,,,,,,cassette,w,g,upper,,,,,,,3,w,LoDemNoTar,g,1,0.666912448592484,,,,,,,,,,,,,,,,,,355,2023-11-21_09h50.20.582,leap3,2022.2.5,59.96788815911237,
,,,,,,,,,,,,,,,,,,,,1,0,1,0,9,0,9,0,,,,,,serfume,nw,h,upper,,,,,,,3,nw,LoDemNoTar,h,1,0.5756724737584591,,,,,,,,,,,,,,,,,,355,2023-11-21_09h50.20.582,leap3,2022.2.5,59.96788815911237,
,,,,,,,,,,,,,,,,,,,,1,0,1,0,10,0,10,0,,,,,,despise,w,g,upper,,,,,,,3,w,LoDemNoTar,g,1,0.647694484796375,,,,,,,,,,,,,,,,,,355,2023-11-21_09h50.20.582,leap3,2022.2.5,59.96788815911237,
,,,,,,,,,,,,,,,,,,,,1,0,1,0,11,0,11,0,,,,,,strenuous,w,g,upper,,,,,,,3,w,LoDemNoTar,g,1,0.7172277321806177,,,,,,,,,,,,,,,,,,355,2023-11-21_09h50.20.582,leap3,2022.2.5,59.96788815911237,
,,,,,,,,,,,,,,,,,,,,1,0,1,0,12,0,12,0,,,,,,massacre,w,g,upper,,,,,,,3,w,LoDemNoTar,g,1,0.6710973142180592,,,,,,,,,,,,,,,,,,355,2023-11-21_09h50.20.582,leap3,2022.2.5,59.96788815911237,
,,,,,,,,,,,,,,,,,,,,1,0,1,0,13,0,13,0,,,,,,miteous,nw,h,upper,,,,,,,3,nw,LoDemNoTar,h,1,0.6022184804314747,,,,,,,,,,,,,,,,,,355,2023-11-21_09h50.20.582,leap3,2022.2.5,59.96788815911237,
,,,,,,,,,,,,,,,,,,,,1,0,1,0,14,0,14,0,,,,,,lindo,nw,h,upper,,,,,,,3,nw,LoDemNoTar,h,1,0.6329098102869466,,,,,,,,,,,,,,,,,,355,2023-11-21_09h50.20.582,leap3,2022.2.5,59.96788815911237,
,,,,,,,,,,,,,,,,,,,,1,0,1,0,15,0,15,0,,,,,,elormity,nw,h,upper,,,,,,,3,nw,LoDemNoTar,h,1,0.6708455703919753,,,,,,,,,,,,,,,,,,355,2023-11-21_09h50.20.582,leap3,2022.2.5,59.96788815911237,
,,,,,,,,,,,,,,,,,,,,1,0,1,0,16,0,16,0,,,,,,afternoon,w,g,upper,,,,,,,3,w,LoDemNoTar,g,1,0.6109093817649409,,,,,,,,,,,,,,,,,,355,2023-11-21_09h50.20.582,leap3,2022.2.5,59.96788815911237,
,,,,,,,,,,,,,,,,,,,,1,0,1,0,17,0,17,0,,,,,,rumblos,nw,h,upper,,,,,,,3,nw,LoDemNoTar,h,1,0.8416109746322036,,,,,,,,,,,,,,,,,,355,2023-11-21_09h50.20.582,leap3,2022.2.5,59.96788815911237,
,,,,,,,,,,,,,,,,,,,,1,0,1,0,18,0,18,0,,,,,,theery,nw,h,upper,,,,,,,3,nw,LoDemNoTar,h,1,0.806975354324095,,,,,,,,,,,,,,,,,,355,2023-11-21_09h50.20.582,leap3,2022.2.5,59.96788815911237,
,,,,,,,,,,,,,,,,,,,,1,0,1,0,19,0,19,0,,,,,,grenavier,nw,h,upper,,,,,,,3,nw,LoDemNoTar,h,1,0.7017044277163222,,,,,,,,,,,,,,,,,,355,2023-11-21_09h50.20.582,leap3,2022.2.5,59.96788815911237,
,,,,,,,,,,,,,,,,,,,,1,0,1,0,20,0,20,0,,,,,,punctual,w,g,upper,,,,,,,3,w,LoDemNoTar,g,1,0.6964039197191596,,,,,,,,,,,,,,,,,,355,2023-11-21_09h50.20.582,leap3,2022.2.5,59.96788815911237,
,,,,,,,,,,,,,,,,,,,,1,0,1,0,21,0,21,0,,,,,,removable,w,g,upper,,,,,,,3,w,LoDemNoTar,h,0,0.627768377889879,,,,,,,,,,,,,,,,,,355,2023-11-21_09h50.20.582,leap3,2022.2.5,59.96788815911237,
,,,,,,,,,,,,,,,,,,,,1,0,1,0,22,0,22,0,,,,,,butcher,w,g,upper,,,,,,,3,w,LoDemNoTar,g,1,0.7049351417226717,,,,,,,,,,,,,,,,,,355,2023-11-21_09h50.20.582,leap3,2022.2.5,59.96788815911237,
,,,,,,,,,,,,,,,,,,,,1,0,1,0,23,0,23,0,,,,,,sarlock,nw,h,upper,,,,,,,3,nw,LoDemNoTar,h,1,0.6355802884791046,,,,,,,,,,,,,,,,,,355,2023-11-21_09h50.20.582,leap3,2022.2.5,59.96788815911237,
,,,,,,,,,,,,,,,,,,,,1,0,1,0,24,0,24,0,,,,,,renown,w,g,upper,,,,,,,3,w,LoDemNoTar,g,1,0.696825907798484,,,,,,,,,,,,,,,,,,355,2023-11-21_09h50.20.582,leap3,2022.2.5,59.96788815911237,
,,,,,,,,,,,,,,,,,,,,1,0,1,0,25,0,25,0,,,,,,paying,w,g,upper,,,,,,,3,w,LoDemNoTar,g,1,0.5322230986785144,,,,,,,,,,,,,,,,,,355,2023-11-21_09h50.20.582,leap3,2022.2.5,59.96788815911237,
,,,,,,,,,,,,,,,,,,,,1,0,1,0,26,0,26,0,,,,,,apticle,nw,h,upper,,,,,,,3,nw,LoDemNoTar,h,1,0.8449886901071295,,,,,,,,,,,,,,,,,,355,2023-11-21_09h50.20.582,leap3,2022.2.5,59.96788815911237,
,,,,,,,,,,,,,,,,,,,,1,0,1,0,27,0,27,0,,,,,,clooped,nw,h,upper,,,,,,,3,nw,LoDemNoTar,h,1,1.0183491095667705,,,,,,,,,,,,,,,,,,355,2023-11-21_09h50.20.582,leap3,2022.2.5,59.96788815911237,
,,,,,,,,,,,,,,,,,,,,1,0,1,0,28,0,28,0,,,,,,godomy,nw,h,upper,,,,,,,3,nw,LoDemNoTar,h,1,0.6731517139123753,,,,,,,,,,,,,,,,,,355,2023-11-21_09h50.20.582,leap3,2022.2.5,59.96788815911237,
,,,,,,,,,,,,,,,,,,,,1,0,1,0,29,0,29,0,,,,,,pariah,w,g,upper,,,,,,,3,w,LoDemNoTar,q,0,1.2776909531094134,,,,,,,,,,,,,,,,,,355,2023-11-21_09h50.20.582,leap3,2022.2.5,59.96788815911237,
,,,,,,,,,,,,,,,,,,,,1,0,1,0,,,,,,,,,,,,,,,,,,,,,,,,,,,NA,,,,,,,,,,,,,,,,355,2023-11-21_09h50.20.582,leap3,2022.2.5,59.96788815911237,
,,,,,,,,,,,,,,,,,,,,2,0,2,0,0,0,0,0,,,,,,ufionize,nw,h,lower,,,,,,,2,nw,HiDemNoTar,h,1,1.101107064052485,,,,,,,,,,,,,,,,,,355,2023-11-21_09h50.20.582,leap3,2022.2.5,59.96788815911237,
,,,,,,,,,,,,,,,,,,,,2,0,2,0,1,0,1,0,,,,,,contusiok,nw,h,lower,,,,,,,2,nw,HiDemNoTar,h,1,0.5955219103489071,,,,,,,,,,,,,,,,,,355,2023-11-21_09h50.20.582,leap3,2022.2.5,59.96788815911237,
,,,,,,,,,,,,,,,,,,,,2,0,2,0,2,0,2,0,,,,,,castaway,w,g,lower,,,,,,,2,w,HiDemNoTar,g,1,0.7388179448898882,,,,,,,,,,,,,,,,,,355,2023-11-21_09h50.20.582,leap3,2022.2.5,59.96788815911237,
,,,,,,,,,,,,,,,,,,,,2,0,2,0,3,0,3,0,,,,,,alticles,nw,h,lower,,,,,,,2,nw,HiDemNoTar,h,1,0.9402019329136238,,,,,,,,,,,,,,,,,,355,2023-11-21_09h50.20.582,leap3,2022.2.5,59.96788815911237,
,,,,,,,,,,,,,,,,,,,,2,0,2,0,4,0,4,0,,,,,,retona,nw,h,lower,,,,,,,2,nw,HiDemNoTar,h,1,0.6695805117487907,,,,,,,,,,,,,,,,,,355,2023-11-21_09h50.20.582,leap3,2022.2.5,59.96788815911237,
,,,,,,,,,,,,,,,,,,,,2,0,2,0,5,0,5,0,,,,,,duries,nw,h,lower,,,,,,,2,nw,HiDemNoTar,h,1,0.632782730855979,,,,,,,,,,,,,,,,,,355,2023-11-21_09h50.20.582,leap3,2022.2.5,59.96788815911237,
,,,,,,,,,,,,,,,,,,,,2,0,2,0,6,0,6,0,,,,,,buzzer,w,g,lower,,,,,,,2,w,HiDemNoTar,h,0,0.798711572540924,,,,,,,,,,,,,,,,,,355,2023-11-21_09h50.20.582,leap3,2022.2.5,59.96788815911237,
,,,,,,,,,,,,,,,,,,,,2,0,2,0,7,0,7,0,,,,,,slightly,w,g,lower,,,,,,,2,w,HiDemNoTar,g,1,0.574016819591634,,,,,,,,,,,,,,,,,,355,2023-11-21_09h50.20.582,leap3,2022.2.5,59.96788815911237,
,,,,,,,,,,,,,,,,,,,,2,0,2,0,8,0,8,0,,,,,,potent,w,g,lower,,,,,,,2,w,HiDemNoTar,g,1,0.5661200889153406,,,,,,,,,,,,,,,,,,355,2023-11-21_09h50.20.582,leap3,2022.2.5,59.96788815911237,
,,,,,,,,,,,,,,,,,,,,2,0,2,0,9,0,9,0,,,,,,brimitar,nw,h,lower,,,,,,,2,nw,HiDemNoTar,h,1,0.6467518032295629,,,,,,,,,,,,,,,,,,355,2023-11-21_09h50.20.582,leap3,2022.2.5,59.96788815911237,
,,,,,,,,,,,,,,,,,,,,2,0,2,0,10,0,10,0,,,,,,rearrange,w,g,lower,,,,,,,2,w,HiDemNoTar,g,1,0.5881594563834369,,,,,,,,,,,,,,,,,,355,2023-11-21_09h50.20.582,leap3,2022.2.5,59.96788815911237,
,,,,,,,,,,,,,,,,,,,,2,0,2,0,11,0,11,0,,,,,,theles,nw,h,lower,,,,,,,2,nw,HiDemNoTar,h,1,0.6995075542945415,,,,,,,,,,,,,,,,,,355,2023-11-21_09h50.20.582,leap3,2022.2.5,59.96788815911237,
,,,,,,,,,,,,,,,,,,,,2,0,2,0,12,0,12,0,,,,,,resent,w,g,lower,,,,,,,2,w,HiDemNoTar,g,1,0.9109437926672399,,,,,,,,,,,,,,,,,,355,2023-11-21_09h50.20.582,leap3,2022.2.5,59.96788815911237,
,,,,,,,,,,,,,,,,,,,,2,0,2,0,13,0,13,0,,,,,,minimum,w,g,lower,,,,,,,2,w,HiDemNoTar,g,1,0.5935948919504881,,,,,,,,,,,,,,,,,,355,2023-11-21_09h50.20.582,leap3,2022.2.5,59.96788815911237,
,,,,,,,,,,,,,,,,,,,,2,0,2,0,14,0,14,0,,,,,,enunciate,w,g,lower,,,,,,,2,w,HiDemNoTar,g,1,0.752991974237375,,,,,,,,,,,,,,,,,,355,2023-11-21_09h50.20.582,leap3,2022.2.5,59.96788815911237,
,,,,,,,,,,,,,,,,,,,,2,0,2,0,15,0,15,0,,,,,,baults,nw,h,lower,,,,,,,2,nw,HiDemNoTar,h,1,0.8887978717684746,,,,,,,,,,,,,,,,,,355,2023-11-21_09h50.20.582,leap3,2022.2.5,59.96788815911237,
,,,,,,,,,,,,,,,,,,,,2,0,2,0,16,0,16,0,,,,,,bureaug,nw,h,lower,,,,,,,2,nw,HiDemNoTar,h,1,0.7002045287517831,,,,,,,,,,,,,,,,,,355,2023-11-21_09h50.20.582,leap3,2022.2.5,59.96788815911237,
,,,,,,,,,,,,,,,,,,,,2,0,2,0,17,0,17,0,,,,,,comply,w,g,lower,,,,,,,2,w,HiDemNoTar,g,1,0.6381834535859525,,,,,,,,,,,,,,,,,,355,2023-11-21_09h50.20.582,leap3,2022.2.5,59.96788815911237,
,,,,,,,,,,,,,,,,,,,,2,0,2,0,18,0,18,0,,,,,,recollect,w,g,lower,,,,,,,2,w,HiDemNoTar,g,1,0.6115547396475449,,,,,,,,,,,,,,,,,,355,2023-11-21_09h50.20.582,leap3,2022.2.5,59.96788815911237,
,,,,,,,,,,,,,,,,,,,,2,0,2,0,19,0,19,0,,,,,,schinter,nw,h,lower,,,,,,,2,nw,HiDemNoTar,h,1,0.794759132200852,,,,,,,,,,,,,,,,,,355,2023-11-21_09h50.20.582,leap3,2022.2.5,59.96788815911237,
,,,,,,,,,,,,,,,,,,,,2,0,2,0,20,0,20,0,,,,,,urique,nw,h,lower,,,,,,,2,nw,HiDemNoTar,h,1,0.6245400786865503,,,,,,,,,,,,,,,,,,355,2023-11-21_09h50.20.582,leap3,2022.2.5,59.96788815911237,
,,,,,,,,,,,,,,,,,,,,2,0,2,0,21,0,21,0,,,,,,borrent,nw,h,lower,,,,,,,2,nw,HiDemNoTar,h,1,0.5369359023170546,,,,,,,,,,,,,,,,,,355,2023-11-21_09h50.20.582,leap3,2022.2.5,59.96788815911237,
,,,,,,,,,,,,,,,,,,,,2,0,2,0,22,0,22,0,,,,,,infested,w,g,lower,,,,,,,2,w,HiDemNoTar,g,1,0.6902838855748996,,,,,,,,,,,,,,,,,,355,2023-11-21_09h50.20.582,leap3,2022.2.5,59.96788815911237,
,,,,,,,,,,,,,,,,,,,,2,0,2,0,23,0,23,0,,,,,,crudios,nw,h,lower,,,,,,,2,nw,HiDemNoTar,h,1,0.7176445887889713,,,,,,,,,,,,,,,,,,355,2023-11-21_09h50.20.582,leap3,2022.2.5,59.96788815911237,
,,,,,,,,,,,,,,,,,,,,2,0,2,0,24,0,24,0,,,,,,usually,w,g,lower,,,,,,,2,w,HiDemNoTar,g,1,0.6709162035258487,,,,,,,,,,,,,,,,,,355,2023-11-21_09h50.20.582,leap3,2022.2.5,59.96788815911237,
,,,,,,,,,,,,,,,,,,,,2,0,2,0,25,0,25,0,,,,,,burrowing,w,g,lower,,,,,,,2,w,HiDemNoTar,g,1,0.7468423586105928,,,,,,,,,,,,,,,,,,355,2023-11-21_09h50.20.582,leap3,2022.2.5,59.96788815911237,
,,,,,,,,,,,,,,,,,,,,2,0,2,0,26,0,26,0,,,,,,axis,w,g,lower,,,,,,,2,w,HiDemNoTar,g,1,0.7560361442156136,,,,,,,,,,,,,,,,,,355,2023-11-21_09h50.20.582,leap3,2022.2.5,59.96788815911237,
,,,,,,,,,,,,,,,,,,,,2,0,2,0,27,0,27,0,,,,,,carony,nw,h,lower,,,,,,,2,nw,HiDemNoTar,h,1,0.8768711250741035,,,,,,,,,,,,,,,,,,355,2023-11-21_09h50.20.582,leap3,2022.2.5,59.96788815911237,
,,,,,,,,,,,,,,,,,,,,2,0,2,0,28,0,28,0,,,,,,charcoal,w,g,lower,,,,,,,2,w,HiDemNoTar,g,1,0.7048307011136785,,,,,,,,,,,,,,,,,,355,2023-11-21_09h50.20.582,leap3,2022.2.5,59.96788815911237,
,,,,,,,,,,,,,,,,,,,,2,0,2,0,29,0,29,0,,,,,,slutches,nw,h,lower,,,,,,,2,nw,HiDemNoTar,h,1,0.7635054534766823,,,,,,,,,,,,,,,,,,355,2023-11-21_09h50.20.582,leap3,2022.2.5,59.96788815911237,
,,,,,,,,,,,,,,,,,,,,2,0,2,0,,,,,,,,,,,,,,,,,,,,,,,,,,,NA,,,,,,,,,,,,,,,,355,2023-11-21_09h50.20.582,leap3,2022.2.5,59.96788815911237,
,,,,,,,,,,,,,,,,,,,,3,0,3,0,0,0,0,0,,,,,,brank,nw,h,upper,,,,,,,3,nw,LoDemNoTar,h,1,0.7953586088260636,,,,,,,,,,,,,,,,,,355,2023-11-21_09h50.20.582,leap3,2022.2.5,59.96788815911237,
,,,,,,,,,,,,,,,,,,,,3,0,3,0,1,0,1,0,,,,,,batire,nw,h,upper,,,,,,,3,nw,LoDemNoTar,h,1,0.554725807858631,,,,,,,,,,,,,,,,,,355,2023-11-21_09h50.20.582,leap3,2022.2.5,59.96788815911237,
,,,,,,,,,,,,,,,,,,,,3,0,3,0,2,0,2,0,,,,,,gigglod,nw,h,upper,,,,,,,3,nw,LoDemNoTar,h,1,0.7634571572998539,,,,,,,,,,,,,,,,,,355,2023-11-21_09h50.20.582,leap3,2022.2.5,59.96788815911237,
,,,,,,,,,,,,,,,,,,,,3,0,3,0,3,0,3,0,,,,,,mubby,nw,h,upper,,,,,,,3,nw,LoDemNoTar,h,1,0.7001758529804647,,,,,,,,,,,,,,,,,,355,2023-11-21_09h50.20.582,leap3,2022.2.5,59.96788815911237,
,,,,,,,,,,,,,,,,,,,,3,0,3,0,4,0,4,0,,,,,,churnad,nw,h,upper,,,,,,,3,nw,LoDemNoTar,h,1,0.6795425086747855,,,,,,,,,,,,,,,,,,355,2023-11-21_09h50.20.582,leap3,2022.2.5,59.96788815911237,
,,,,,,,,,,,,,,,,,,,,3,0,3,0,5,0,5,0,,,,,,couple,w,g,upper,,,,,,,3,w,LoDemNoTar,g,1,0.6275441023753956,,,,,,,,,,,,,,,,,,355,2023-11-21_09h50.20.582,leap3,2022.2.5,59.96788815911237,
,,,,,,,,,,,,,,,,,,,,3,0,3,0,6,0,6,0,,,,,,staircase,w,g,upper,,,,,,,3,w,LoDemNoTar,g,1,0.7215212644077837,,,,,,,,,,,,,,,,,,355,2023-11-21_09h50.20.582,leap3,2022.2.5,59.96788815911237,
,,,,,,,,,,,,,,,,,,,,3,0,3,0,7,0,7,0,,,,,,huzzles,nw,h,upper,,,,,,,3,nw,LoDemNoTar,h,1,0.6354752441402525,,,,,,,,,,,,,,,,,,355,2023-11-21_09h50.20.582,leap3,2022.2.5,59.96788815911237,
,,,,,,,,,,,,,,,,,,,,3,0,3,0,8,0,8,0,,,,,,rebool,nw,h,upper,,,,,,,3,nw,LoDemNoTar,h,1,0.7198315010173246,,,,,,,,,,,,,,,,,,355,2023-11-21_09h50.20.582,leap3,2022.2.5,59.96788815911237,
,,,,,,,,,,,,,,,,,,,,3,0,3,0,9,0,9,0,,,,,,snife,nw,h,upper,,,,,,,3,nw,LoDemNoTar,h,1,0.6086180288111791,,,,,,,,,,,,,,,,,,355,2023-11-21_09h50.20.582,leap3,2022.2.5,59.96788815911237,
,,,,,,,,,,,,,,,,,,,,3,0,3,0,10,0,10,0,,,,,,bickering,w,g,upper,,,,,,,3,w,LoDemNoTar,g,1,0.7115601729601622,,,,,,,,,,,,,,,,,,355,2023-11-21_09h50.20.582,leap3,2022.2.5,59.96788815911237,
,,,,,,,,,,,,,,,,,,,,3,0,3,0,11,0,11,0,,,,,,amms,nw,h,upper,,,,,,,3,nw,LoDemNoTar,h,1,0.6988268797285855,,,,,,,,,,,,,,,,,,355,2023-11-21_09h50.20.582,leap3,2022.2.5,59.96788815911237,
,,,,,,,,,,,,,,,,,,,,3,0,3,0,12,0,12,0,,,,,,hotplate,w,g,upper,,,,,,,3,w,LoDemNoTar,g,1,0.8065980402752757,,,,,,,,,,,,,,,,,,355,2023-11-21_09h50.20.582,leap3,2022.2.5,59.96788815911237,
,,,,,,,,,,,,,,,,,,,,3,0,3,0,13,0,13,0,,,,,,ebince,nw,h,upper,,,,,,,3,nw,LoDemNoTar,h,1,0.7171896988293156,,,,,,,,,,,,,,,,,,355,2023-11-21_09h50.20.582,leap3,2022.2.5,59.96788815911237,
,,,,,,,,,,,,,,,,,,,,3,0,3,0,14,0,14,0,,,,,,turntable,w,g,upper,,,,,,,3,w,LoDemNoTar,g,1,0.8873154803877696,,,,,,,,,,,,,,,,,,355,2023-11-21_09h50.20.582,leap3,2022.2.5,59.96788815911237,
,,,,,,,,,,,,,,,,,,,,3,0,3,0,15,0,15,0,,,,,,suddenly,w,g,upper,,,,,,,3,w,LoDemNoTar,g,1,0.7306679610628635,,,,,,,,,,,,,,,,,,355,2023-11-21_09h50.20.582,leap3,2022.2.5,59.96788815911237,
,,,,,,,,,,,,,,,,,,,,3,0,3,0,16,0,16,0,,,,,,arrested,w,g,upper,,,,,,,3,w,LoDemNoTar,g,1,0.7326520293718204,,,,,,,,,,,,,,,,,,355,2023-11-21_09h50.20.582,leap3,2022.2.5,59.96788815911237,
,,,,,,,,,,,,,,,,,,,,3,0,3,0,17,0,17,0,,,,,,amidst,w,g,upper,,,,,,,3,w,LoDemNoTar,g,1,0.7898217511828989,,,,,,,,,,,,,,,,,,355,2023-11-21_09h50.20.582,leap3,2022.2.5,59.96788815911237,
,,,,,,,,,,,,,,,,,,,,3,0,3,0,18,0,18,0,,,,,,contain,w,g,upper,,,,,,,3,w,LoDemNoTar,g,1,0.581176731386222,,,,,,,,,,,,,,,,,,355,2023-11-21_09h50.20.582,leap3,2022.2.5,59.96788815911237,
,,,,,,,,,,,,,,,,,,,,3,0,3,0,19,0,19,0,,,,,,emotion,w,g,upper,,,,,,,3,w,LoDemNoTar,g,1,0.581159223918803,,,,,,,,,,,,,,,,,,355,2023-11-21_09h50.20.582,leap3,2022.2.5,59.96788815911237,
,,,,,,,,,,,,,,,,,,,,3,0,3,0,20,0,20,0,,,,,,alarm,w,g,upper,,,,,,,3,w,LoDemNoTar,g,1,0.5091338925994933,,,,,,,,,,,,,,,,,,355,2023-11-21_09h50.20.582,leap3,2022.2.5,59.96788815911237,
,,,,,,,,,,,,,,,,,,,,3,0,3,0,21,0,21,0,,,,,,slooping,nw,h,upper,,,,,,,3,nw,LoDemNoTar,h,1,0.8398237132932991,,,,,,,,,,,,,,,,,,355,2023-11-21_09h50.20.582,leap3,2022.2.5,59.96788815911237,
,,,,,,,,,,,,,,,,,,,,3,0,3,0,22,0,22,0,,,,,,handcuff,w,g,upper,,,,,,,3,w,LoDemNoTar,g,1,0.6691805587615818,,,,,,,,,,,,,,,,,,355,2023-11-21_09h50.20.582,leap3,2022.2.5,59.96788815911237,
,,,,,,,,,,,,,,,,,,,,3,0,3,0,23,0,23,0,,,,,,gaining,w,g,upper,,,,,,,3,w,LoDemNoTar,g,1,0.657287317677401,,,,,,,,,,,,,,,,,,355,2023-11-21_09h50.20.582,leap3,2022.2.5,59.96788815911237,
,,,,,,,,,,,,,,,,,,,,3,0,3,0,24,0,24,0,,,,,,cavern,w,g,upper,,,,,,,3,w,LoDemNoTar,g,1,0.637934124446474,,,,,,,,,,,,,,,,,,355,2023-11-21_09h50.20.582,leap3,2022.2.5,59.96788815911237,
,,,,,,,,,,,,,,,,,,,,3,0,3,0,25,0,25,0,,,,,,ciping,nw,h,upper,,,,,,,3,nw,LoDemNoTar,h,1,0.7473235095385462,,,,,,,,,,,,,,,,,,355,2023-11-21_09h50.20.582,leap3,2022.2.5,59.96788815911237,
,,,,,,,,,,,,,,,,,,,,3,0,3,0,26,0,26,0,,,,,,mamps,nw,h,upper,,,,,,,3,nw,LoDemNoTar,h,1,0.6997961240122095,,,,,,,,,,,,,,,,,,355,2023-11-21_09h50.20.582,leap3,2022.2.5,59.96788815911237,
,,,,,,,,,,,,,,,,,,,,3,0,3,0,27,0,27,0,,,,,,thamp,nw,h,upper,,,,,,,3,nw,LoDemNoTar,h,1,0.68726839160081,,,,,,,,,,,,,,,,,,355,2023-11-21_09h50.20.582,leap3,2022.2.5,59.96788815911237,
,,,,,,,,,,,,,,,,,,,,3,0,3,0,28,0,28,0,,,,,,sonnet,w,g,upper,,,,,,,3,w,LoDemNoTar,g,1,0.9544293899089098,,,,,,,,,,,,,,,,,,355,2023-11-21_09h50.20.582,leap3,2022.2.5,59.96788815911237,
,,,,,,,,,,,,,,,,,,,,3,0,3,0,29,0,29,0,,,,,,ebciting,nw,h,upper,,,,,,,3,nw,LoDemNoTar,h,1,0.9711715696612373,,,,,,,,,,,,,,,,,,355,2023-11-21_09h50.20.582,leap3,2022.2.5,59.96788815911237,
,,,,,,,,,,,,,,,,,,,,3,0,3,0,,,,,,,,,,,,,,,,,,,,,,,,,,,NA,,,,,,,,,,,,,,,,355,2023-11-21_09h50.20.582,leap3,2022.2.5,59.96788815911237,
,,,,,,,,,,,,,,,,,,,,4,0,4,0,0,0,0,0,,,,,,seeming,w,g,upper,,,,,,,3,w,LoDemNoTar,g,1,0.7932015798287466,,,,,,,,,,,,,,,,,,355,2023-11-21_09h50.20.582,leap3,2022.2.5,59.96788815911237,
,,,,,,,,,,,,,,,,,,,,4,0,4,0,1,0,1,0,,,,,,kettle,w,g,upper,,,,,,,3,w,LoDemNoTar,g,1,0.5845354301854968,,,,,,,,,,,,,,,,,,355,2023-11-21_09h50.20.582,leap3,2022.2.5,59.96788815911237,
,,,,,,,,,,,,,,,,,,,,4,0,4,0,2,0,2,0,,,,,,moral,w,g,upper,,,,,,,3,w,LoDemNoTar,g,1,0.5043257039505988,,,,,,,,,,,,,,,,,,355,2023-11-21_09h50.20.582,leap3,2022.2.5,59.96788815911237,
,,,,,,,,,,,,,,,,,,,,4,0,4,0,3,0,3,0,,,,,,befin,nw,h,upper,,,,,,,3,nw,LoDemNoTar,h,1,0.6516046657925472,,,,,,,,,,,,,,,,,,355,2023-11-21_09h50.20.582,leap3,2022.2.5,59.96788815911237,
,,,,,,,,,,,,,,,,,,,,4,0,4,0,4,0,4,0,,,,,,lofty,w,g,upper,,,,,,,3,w,LoDemNoTar,h,0,0.8005441115237772,,,,,,,,,,,,,,,,,,355,2023-11-21_09h50.20.582,leap3,2022.2.5,59.96788815911237,
,,,,,,,,,,,,,,,,,,,,4,0,4,0,5,0,5,0,,,,,,graciap,nw,h,upper,,,,,,,3,nw,LoDemNoTar,h,1,0.80711480951868,,,,,,,,,,,,,,,,,,355,2023-11-21_09h50.20.582,leap3,2022.2.5,59.96788815911237,
,,,,,,,,,,,,,,,,,,,,4,0,4,0,6,0,6,0,,,,,,arranged,w,g,upper,,,,,,,3,w,LoDemNoTar,g,1,0.6538084818748757,,,,,,,,,,,,,,,,,,355,2023-11-21_09h50.20.582,leap3,2022.2.5,59.96788815911237,
,,,,,,,,,,,,,,,,,,,,4,0,4,0,7,0,7,0,,,,,,etuip,nw,h,upper,,,,,,,3,nw,LoDemNoTar,h,1,0.6505451679695398,,,,,,,,,,,,,,,,,,355,2023-11-21_09h50.20.582,leap3,2022.2.5,59.96788815911237,
,,,,,,,,,,,,,,,,,,,,4,0,4,0,8,0,8,0,,,,,,disease,w,g,upper,,,,,,,3,w,LoDemNoTar,g,1,0.583344928920269,,,,,,,,,,,,,,,,,,355,2023-11-21_09h50.20.582,leap3,2022.2.5,59.96788815911237,
,,,,,,,,,,,,,,,,,,,,4,0,4,0,9,0,9,0,,,,,,release,w,g,upper,,,,,,,3,w,LoDemNoTar,g,1,0.6072246833937243,,,,,,,,,,,,,,,,,,355,2023-11-21_09h50.20.582,leap3,2022.2.5,59.96788815911237,
,,,,,,,,,,,,,,,,,,,,4,0,4,0,10,0,10,0,,,,,,aggepting,nw,h,upper,,,,,,,3,nw,LoDemNoTar,h,1,0.9811263221781701,,,,,,,,,,,,,,,,,,355,2023-11-21_09h50.20.582,leap3,2022.2.5,59.96788815911237,
,,,,,,,,,,,,,,,,,,,,4,0,4,0,11,0,11,0,,,,,,eyesight,w,g,upper,,,,,,,3,w,LoDemNoTar,g,1,0.6929893782362342,,,,,,,,,,,,,,,,,,355,2023-11-21_09h50.20.582,leap3,2022.2.5,59.96788815911237,
,,,,,,,,,,,,,,,,,,,,4,0,4,0,12,0,12,0,,,,,,hostade,nw,h,upper,,,,,,,3,nw,LoDemNoTar,h,1,0.71234045852907,,,,,,,,,,,,,,,,,,355,2023-11-21_09h50.20.582,leap3,2022.2.5,59.96788815911237,
,,,,,,,,,,,,,,,,,,,,4,0,4,0,13,0,13,0,,,,,,gensions,nw,h,upper,,,,,,,3,nw,LoDemNoTar,h,1,0.6990221774904057,,,,,,,,,,,,,,,,,,355,2023-11-21_09h50.20.582,leap3,2022.2.5,59.96788815911237,
,,,,,,,,,,,,,,,,,,,,4,0,4,0,14,0,14,0,,,,,,gund,nw,h,upper,,,,,,,3,nw,LoDemNoTar,h,1,0.6304011245956644,,,,,,,,,,,,,,,,,,355,2023-11-21_09h50.20.582,leap3,2022.2.5,59.96788815911237,
,,,,,,,,,,,,,,,,,,,,4,0,4,0,15,0,15,0,,,,,,monopoly,w,g,upper,,,,,,,3,w,LoDemNoTar,g,1,0.70845110504888,,,,,,,,,,,,,,,,,,355,2023-11-21_09h50.20.582,leap3,2022.2.5,59.96788815911237,
,,,,,,,,,,,,,,,,,,,,4,0,4,0,16,0,16,0,,,,,,otoist,nw,h,upper,,,,,,,3,nw,LoDemNoTar,h,1,0.57516385440249,,,,,,,,,,,,,,,,,,355,2023-11-21_09h50.20.582,leap3,2022.2.5,59.96788815911237,
,,,,,,,,,,,,,,,,,,,,4,0,4,0,17,0,17,0,,,,,,fuintets,nw,h,upper,,,,,,,3,nw,LoDemNoTar,h,1,0.6551453811116517,,,,,,,,,,,,,,,,,,355,2023-11-21_09h50.20.582,leap3,2022.2.5,59.96788815911237,
,,,,,,,,,,,,,,,,,,,,4,0,4,0,18,0,18,0,,,,,,robbery,w,g,upper,,,,,,,3,w,LoDemNoTar,g,1,0.7398979687131941,,,,,,,,,,,,,,,,,,355,2023-11-21_09h50.20.582,leap3,2022.2.5,59.96788815911237,
,,,,,,,,,,,,,,,,,,,,4,0,4,0,19,0,19,0,,,,,,wrestle,w,g,upper,,,,,,,3,w,LoDemNoTar,g,1,0.6763625056482852,,,,,,,,,,,,,,,,,,355,2023-11-21_09h50.20.582,leap3,2022.2.5,59.96788815911237,
,,,,,,,,,,,,,,,,,,,,4,0,4,0,20,0,20,0,,,,,,dishwater,w,g,upper,,,,,,,3,w,LoDemNoTar,g,1,0.6963012902997434,,,,,,,,,,,,,,,,,,355,2023-11-21_09h50.20.582,leap3,2022.2.5,59.96788815911237,
,,,,,,,,,,,,,,,,,,,,4,0,4,0,21,0,21,0,,,,,,undimmec,nw,h,upper,,,,,,,3,nw,LoDemNoTar,h,1,0.5877000387990847,,,,,,,,,,,,,,,,,,355,2023-11-21_09h50.20.582,leap3,2022.2.5,59.96788815911237,
,,,,,,,,,,,,,,,,,,,,4,0,4,0,22,0,22,0,,,,,,tinion,nw,h,upper,,,,,,,3,nw,LoDemNoTar,h,1,0.6510562021285295,,,,,,,,,,,,,,,,,,355,2023-11-21_09h50.20.582,leap3,2022.2.5,59.96788815911237,
,,,,,,,,,,,,,,,,,,,,4,0,4,0,23,0,23,0,,,,,,bamps,nw,h,upper,,,,,,,3,nw,LoDemNoTar,h,1,0.7038415346760303,,,,,,,,,,,,,,,,,,355,2023-11-21_09h50.20.582,leap3,2022.2.5,59.96788815911237,
,,,,,,,,,,,,,,,,,,,,4,0,4,0,24,0,24,0,,,,,,clypaper,nw,h,upper,,,,,,,3,nw,LoDemNoTar,h,1,1.0264218194643036,,,,,,,,,,,,,,,,,,355,2023-11-21_09h50.20.582,leap3,2022.2.5,59.96788815911237,
,,,,,,,,,,,,,,,,,,,,4,0,4,0,25,0,25,0,,,,,,pakened,nw,h,upper,,,,,,,3,nw,LoDemNoTar,h,1,0.6005540725309402,,,,,,,,,,,,,,,,,,355,2023-11-21_09h50.20.582,leap3,2022.2.5,59.96788815911237,
,,,,,,,,,,,,,,,,,,,,4,0,4,0,26,0,26,0,,,,,,sazer,nw,h,upper,,,,,,,3,nw,LoDemNoTar,h,1,0.44612365087959915,,,,,,,,,,,,,,,,,,355,2023-11-21_09h50.20.582,leap3,2022.2.5,59.96788815911237,
,,,,,,,,,,,,,,,,,,,,4,0,4,0,27,0,27,0,,,,,,terrify,w,g,upper,,,,,,,3,w,LoDemNoTar,g,1,0.5873975838767365,,,,,,,,,,,,,,,,,,355,2023-11-21_09h50.20.582,leap3,2022.2.5,59.96788815911237,
,,,,,,,,,,,,,,,,,,,,4,0,4,0,28,0,28,0,,,,,,stalemate,w,g,upper,,,,,,,3,w,LoDemNoTar,h,0,0.9543134790146723,,,,,,,,,,,,,,,,,,355,2023-11-21_09h50.20.582,leap3,2022.2.5,59.96788815911237,
,,,,,,,,,,,,,,,,,,,,4,0,4,0,29,0,29,0,,,,,,except,w,g,upper,,,,,,,3,w,LoDemNoTar,g,1,0.7475710274884477,,,,,,,,,,,,,,,,,,355,2023-11-21_09h50.20.582,leap3,2022.2.5,59.96788815911237,
,,,,,,,,,,,,,,,,,,,,4,0,4,0,,,,,,,,,,,,,,,,,,,,,,,,,,,NA,,,,,,,,,,,,,,,,355,2023-11-21_09h50.20.582,leap3,2022.2.5,59.96788815911237,
,,,,,,,,,,,,,,,,,,,,5,0,5,0,0,0,0,0,,,,,,duplex,w,g,lower,,,,,,,1,w,HiDemTar,g,1,0.6691364884609357,,,,,,,,,,,,,,,,,,355,2023-11-21_09h50.20.582,leap3,2022.2.5,59.96788815911237,
,,,,,,,,,,,,,,,,,,,,5,0,5,0,1,0,1,0,,,,,,professor,w,g,lower,,,,,,,1,w,HiDemTar,g,1,0.5372507332358509,,,,,,,,,,,,,,,,,,355,2023-11-21_09h50.20.582,leap3,2022.2.5,59.96788815911237,
,,,,,,,,,,,,,,,,,,,,5,0,5,0,2,0,2,0,,,,,,veranpah,nw,h,lower,,,,,,,1,nw,HiDemTar,h,1,0.6825673601124436,,,,,,,,,,,,,,,,,,355,2023-11-21_09h50.20.582,leap3,2022.2.5,59.96788815911237,
,,,,,,,,,,,,,,,,,,,,5,0,5,0,3,0,3,0,,,,,,slooch,nw,h,lower,,,,,,,1,nw,HiDemTar,h,1,0.6456778165884316,,,,,,,,,,,,,,,,,,355,2023-11-21_09h50.20.582,leap3,2022.2.5,59.96788815911237,
,,,,,,,,,,,,,,,,,,,,5,0,5,0,4,0,4,0,,,,,,shivering,w,g,lower,,,,,,,1,w,HiDemTar,g,1,0.5549597425851971,,,,,,,,,,,,,,,,,,355,2023-11-21_09h50.20.582,leap3,2022.2.5,59.96788815911237,
,,,,,,,,,,,,,,,,,,,,5,0,5,0,5,0,5,0,,,,,,admire,w,g,lower,,,,,,,1,w,HiDemTar,g,1,0.6916358773596585,,,,,,,,,,,,,,,,,,355,2023-11-21_09h50.20.582,leap3,2022.2.5,59.96788815911237,
,,,,,,,,,,,,,,,,,,,,5,0,5,0,6,0,6,0,,,,,,bentler,nw,h,lower,,,,,,,1,nw,HiDemTar,h,1,0.7829772741533816,,,,,,,,,,,,,,,,,,355,2023-11-21_09h50.20.582,leap3,2022.2.5,59.96788815911237,
,,,,,,,,,,,,,,,,,,,,5,0,5,0,7,0,7,0,,,,,,suburb,w,g,lower,,,,,,,1,w,HiDemTar,g,1,1.08709120482672,,,,,,,,,,,,,,,,,,355,2023-11-21_09h50.20.582,leap3,2022.2.5,59.96788815911237,
,,,,,,,,,,,,,,,,,,,,5,0,5,0,8,0,8,0,,,,,,priant,nw,h,lower,,,,,,,1,nw,HiDemTar,h,1,0.6344015592476353,,,,,,,,,,,,,,,,,,355,2023-11-21_09h50.20.582,leap3,2022.2.5,59.96788815911237,
,,,,,,,,,,,,,,,,,,,,5,0,5,0,9,0,9,0,,,,,,unrealon,nw,h,lower,,,,,,,1,nw,HiDemTar,h,1,0.6318089588312432,,,,,,,,,,,,,,,,,,355,2023-11-21_09h50.20.582,leap3,2022.2.5,59.96788815911237,
,,,,,,,,,,,,,,,,,,,,5,0,5,0,10,0,10,0,,,,,,browting,nw,h,lower,,,,,,,1,nw,HiDemTar,h,1,0.5578378943027928,,,,,,,,,,,,,,,,,,355,2023-11-21_09h50.20.582,leap3,2022.2.5,59.96788815911237,
,,,,,,,,,,,,,,,,,,,,5,0,5,0,11,0,11,0,,,,,,defeat,w,g,lower,,,,,,,1,w,HiDemTar,h,0,0.5257396355737001,,,,,,,,,,,,,,,,,,355,2023-11-21_09h50.20.582,leap3,2022.2.5,59.96788815911237,
,,,,,,,,,,,,,,,,,,,,5,0,5,0,12,0,12,0,,,,,,suspect,w,g,lower,,,,,,,1,w,HiDemTar,g,1,0.6237087803892791,,,,,,,,,,,,,,,,,,355,2023-11-21_09h50.20.582,leap3,2022.2.5,59.96788815911237,
,,,,,,,,,,,,,,,,,,,,5,0,5,0,13,0,13,0,,,,,,fabstand,nw,h,lower,,,,,,,1,nw,HiDemTar,h,1,0.7656606712844223,,,,,,,,,,,,,,,,,,355,2023-11-21_09h50.20.582,leap3,2022.2.5,59.96788815911237,
,,,,,,,,,,,,,,,,,,,,5,0,5,0,14,0,14,0,,,,,,talent,w,g,lower,,,,,,,1,w,HiDemTar,g,1,0.806328788981773,,,,,,,,,,,,,,,,,,355,2023-11-21_09h50.20.582,leap3,2022.2.5,59.96788815911237,
,,,,,,,,,,,,,,,,,,,,5,0,5,0,15,0,15,0,,,,,,splinging,nw,h,lower,,,,,,,1,nw,HiDemTar,h,1,0.5890870452858508,,,,,,,,,,,,,,,,,,355,2023-11-21_09h50.20.582,leap3,2022.2.5,59.96788815911237,
,,,,,,,,,,,,,,,,,,,,5,0,5,0,16,0,16,0,,,,,,fassed,nw,h,lower,,,,,,,1,nw,HiDemTar,h,1,0.6284140377538279,,,,,,,,,,,,,,,,,,355,2023-11-21_09h50.20.582,leap3,2022.2.5,59.96788815911237,
,,,,,,,,,,,,,,,,,,,,5,0,5,0,17,0,17,0,,,,,,puggers,nw,h,lower,,,,,,,1,nw,HiDemTar,h,1,0.6664826123742387,,,,,,,,,,,,,,,,,,355,2023-11-21_09h50.20.582,leap3,2022.2.5,59.96788815911237,
,,,,,,,,,,,,,,,,,,,,5,0,5,0,18,0,18,0,,,,,,chicken,target,q,lower,,,,,,,1,target,HiDemTar,g,0,0.630021093878895,,,,,,,,,,,,,,,,,,355,2023-11-21_09h50.20.582,leap3,2022.2.5,59.96788815911237,
,,,,,,,,,,,,,,,,,,,,5,0,5,0,19,0,19,0,,,,,,regards,w,g,lower,,,,,,,1,aftertar1,HiDemTar,g,1,2.2520082410192117,,,,,,,,,,,,,,,,,,355,2023-11-21_09h50.20.582,leap3,2022.2.5,59.96788815911237,
,,,,,,,,,,,,,,,,,,,,5,0,5,0,20,0,20,0,,,,,,hardest,w,g,lower,,,,,,,1,aftertar2,HiDemTar,g,1,0.6487382863415405,,,,,,,,,,,,,,,,,,355,2023-11-21_09h50.20.582,leap3,2022.2.5,59.96788815911237,
,,,,,,,,,,,,,,,,,,,,5,0,5,0,21,0,21,0,,,,,,shests,nw,h,lower,,,,,,,1,aftertar3,HiDemTar,h,1,0.8624531999230385,,,,,,,,,,,,,,,,,,355,2023-11-21_09h50.20.582,leap3,2022.2.5,59.96788815911237,
,,,,,,,,,,,,,,,,,,,,5,0,5,0,22,0,22,0,,,,,,fomrade,nw,h,lower,,,,,,,1,nw,HiDemTar,h,1,0.6270019776420668,,,,,,,,,,,,,,,,,,355,2023-11-21_09h50.20.582,leap3,2022.2.5,59.96788815911237,
,,,,,,,,,,,,,,,,,,,,5,0,5,0,23,0,23,0,,,,,,ounside,nw,h,lower,,,,,,,1,nw,HiDemTar,h,1,0.7450261196354404,,,,,,,,,,,,,,,,,,355,2023-11-21_09h50.20.582,leap3,2022.2.5,59.96788815911237,
,,,,,,,,,,,,,,,,,,,,5,0,5,0,24,0,24,0,,,,,,collute,nw,h,lower,,,,,,,1,nw,HiDemTar,h,1,0.43441634997725487,,,,,,,,,,,,,,,,,,355,2023-11-21_09h50.20.582,leap3,2022.2.5,59.96788815911237,
,,,,,,,,,,,,,,,,,,,,5,0,5,0,25,0,25,0,,,,,,rowel,nw,h,lower,,,,,,,1,nw,HiDemTar,h,1,0.5037530921399593,,,,,,,,,,,,,,,,,,355,2023-11-21_09h50.20.582,leap3,2022.2.5,59.96788815911237,
,,,,,,,,,,,,,,,,,,,,5,0,5,0,26,0,26,0,,,,,,bamboo,w,g,lower,,,,,,,1,nw,HiDemTar,g,1,0.8425602967618033,,,,,,,,,,,,,,,,,,355,2023-11-21_09h50.20.582,leap3,2022.2.5,59.96788815911237,
,,,,,,,,,,,,,,,,,,,,5,0,5,0,27,0,27,0,,,,,,patio,w,g,lower,,,,,,,1,w,HiDemTar,g,1,0.5358244860544801,,,,,,,,,,,,,,,,,,355,2023-11-21_09h50.20.582,leap3,2022.2.5,59.96788815911237,
,,,,,,,,,,,,,,,,,,,,5,0,5,0,28,0,28,0,,,,,,exemplify,w,g,lower,,,,,,,1,w,HiDemTar,g,1,0.6652513610897586,,,,,,,,,,,,,,,,,,355,2023-11-21_09h50.20.582,leap3,2022.2.5,59.96788815911237,
,,,,,,,,,,,,,,,,,,,,5,0,5,0,29,0,29,0,,,,,,attract,w,g,lower,,,,,,,1,w,HiDemTar,g,1,0.917898143758066,,,,,,,,,,,,,,,,,,355,2023-11-21_09h50.20.582,leap3,2022.2.5,59.96788815911237,
,,,,,,,,,,,,,,,,,,,,5,0,5,0,,,,,,,,,,,,,,,,,,,,,,,,,,,0,,,,,,,,,,,,,,,,355,2023-11-21_09h50.20.582,leap3,2022.2.5,59.96788815911237,
,,,,,,,,,,,,,,,,,,,,6,0,6,0,0,0,0,0,,,,,,oleandur,nw,h,lower,,,,,,,1,nw,HiDemTar,h,1,0.5911127690924332,,,,,,,,,,,,,,,,,,355,2023-11-21_09h50.20.582,leap3,2022.2.5,59.96788815911237,
,,,,,,,,,,,,,,,,,,,,6,0,6,0,1,0,1,0,,,,,,hustle,w,g,lower,,,,,,,1,w,HiDemTar,g,1,0.6224814532324672,,,,,,,,,,,,,,,,,,355,2023-11-21_09h50.20.582,leap3,2022.2.5,59.96788815911237,
,,,,,,,,,,,,,,,,,,,,6,0,6,0,2,0,2,0,,,,,,shurk,nw,h,lower,,,,,,,1,nw,HiDemTar,h,1,0.628565265215002,,,,,,,,,,,,,,,,,,355,2023-11-21_09h50.20.582,leap3,2022.2.5,59.96788815911237,
,,,,,,,,,,,,,,,,,,,,6,0,6,0,3,0,3,0,,,,,,violate,w,g,lower,,,,,,,1,w,HiDemTar,g,1,0.6905184239149094,,,,,,,,,,,,,,,,,,355,2023-11-21_09h50.20.582,leap3,2022.2.5,59.96788815911237,
,,,,,,,,,,,,,,,,,,,,6,0,6,0,4,0,4,0,,,,,,misest,nw,h,lower,,,,,,,1,nw,HiDemTar,h,1,0.860951490001753,,,,,,,,,,,,,,,,,,355,2023-11-21_09h50.20.582,leap3,2022.2.5,59.96788815911237,
,,,,,,,,,,,,,,,,,,,,6,0,6,0,5,0,5,0,,,,,,acroad,nw,h,lower,,,,,,,1,nw,HiDemTar,h,1,0.7216106123523787,,,,,,,,,,,,,,,,,,355,2023-11-21_09h50.20.582,leap3,2022.2.5,59.96788815911237,
,,,,,,,,,,,,,,,,,,,,6,0,6,0,6,0,6,0,,,,,,ilcurring,nw,h,lower,,,,,,,1,nw,HiDemTar,h,1,0.5954721049638465,,,,,,,,,,,,,,,,,,355,2023-11-21_09h50.20.582,leap3,2022.2.5,59.96788815911237,
,,,,,,,,,,,,,,,,,,,,6,0,6,0,7,0,7,0,,,,,,volume,w,g,lower,,,,,,,1,w,HiDemTar,g,1,1.0588711310410872,,,,,,,,,,,,,,,,,,355,2023-11-21_09h50.20.582,leap3,2022.2.5,59.96788815911237,
,,,,,,,,,,,,,,,,,,,,6,0,6,0,8,0,8,0,,,,,,tunneg,nw,h,lower,,,,,,,1,nw,HiDemTar,h,1,0.5835085322614759,,,,,,,,,,,,,,,,,,355,2023-11-21_09h50.20.582,leap3,2022.2.5,59.96788815911237,
,,,,,,,,,,,,,,,,,,,,6,0,6,0,9,0,9,0,,,,,,larger,w,g,lower,,,,,,,1,w,HiDemTar,g,1,0.6622787298401818,,,,,,,,,,,,,,,,,,355,2023-11-21_09h50.20.582,leap3,2022.2.5,59.96788815911237,
,,,,,,,,,,,,,,,,,,,,6,0,6,0,10,0,10,0,,,,,,sullen,w,g,lower,,,,,,,1,w,HiDemTar,h,0,0.5950935834553093,,,,,,,,,,,,,,,,,,355,2023-11-21_09h50.20.582,leap3,2022.2.5,59.96788815911237,
,,,,,,,,,,,,,,,,,,,,6,0,6,0,11,0,11,0,,,,,,zears,nw,h,lower,,,,,,,1,nw,HiDemTar,h,1,0.6022441377863288,,,,,,,,,,,,,,,,,,355,2023-11-21_09h50.20.582,leap3,2022.2.5,59.96788815911237,
,,,,,,,,,,,,,,,,,,,,6,0,6,0,12,0,12,0,,,,,,brouhuha,nw,h,lower,,,,,,,1,nw,HiDemTar,h,1,0.5055107719963416,,,,,,,,,,,,,,,,,,355,2023-11-21_09h50.20.582,leap3,2022.2.5,59.96788815911237,
,,,,,,,,,,,,,,,,,,,,6,0,6,0,13,0,13,0,,,,,,worps,nw,h,lower,,,,,,,1,nw,HiDemTar,h,1,0.738708674791269,,,,,,,,,,,,,,,,,,355,2023-11-21_09h50.20.582,leap3,2022.2.5,59.96788815911237,
,,,,,,,,,,,,,,,,,,,,6,0,6,0,14,0,14,0,,,,,,engineer,w,g,lower,,,,,,,1,w,HiDemTar,g,1,0.7635232625762001,,,,,,,,,,,,,,,,,,355,2023-11-21_09h50.20.582,leap3,2022.2.5,59.96788815911237,
,,,,,,,,,,,,,,,,,,,,6,0,6,0,15,0,15,0,,,,,,gestalion,nw,h,lower,,,,,,,1,nw,HiDemTar,h,1,0.8834575193468481,,,,,,,,,,,,,,,,,,355,2023-11-21_09h50.20.582,leap3,2022.2.5,59.96788815911237,
,,,,,,,,,,,,,,,,,,,,6,0,6,0,16,0,16,0,,,,,,meteoroid,w,g,lower,,,,,,,1,w,HiDemTar,h,0,0.7586794554954395,,,,,,,,,,,,,,,,,,355,2023-11-21_09h50.20.582,leap3,2022.2.5,59.96788815911237,
,,,,,,,,,,,,,,,,,,,,6,0,6,0,17,0,17,0,,,,,,resonant,w,g,lower,,,,,,,1,w,HiDemTar,h,0,0.8307407072279602,,,,,,,,,,,,,,,,,,355,2023-11-21_09h50.20.582,leap3,2022.2.5,59.96788815911237,
,,,,,,,,,,,,,,,,,,,,6,0,6,0,18,0,18,0,,,,,,ladybug,target,q,lower,,,,,,,1,target,HiDemTar,g,0,0.5721308529609814,,,,,,,,,,,,,,,,,,355,2023-11-21_09h50.20.582,leap3,2022.2.5,59.96788815911237,
,,,,,,,,,,,,,,,,,,,,6,0,6,0,19,0,19,0,,,,,,matter,w,g,lower,,,,,,,1,aftertar1,HiDemTar,g,1,1.3961585145443678,,,,,,,,,,,,,,,,,,355,2023-11-21_09h50.20.582,leap3,2022.2.5,59.96788815911237,
,,,,,,,,,,,,,,,,,,,,6,0,6,0,20,0,20,0,,,,,,rationale,w,g,lower,,,,,,,1,aftertar2,HiDemTar,g,1,0.5555027729133144,,,,,,,,,,,,,,,,,,355,2023-11-21_09h50.20.582,leap3,2022.2.5,59.96788815911237,
,,,,,,,,,,,,,,,,,,,,6,0,6,0,21,0,21,0,,,,,,image,w,g,lower,,,,,,,1,aftertar3,HiDemTar,g,1,0.6681932033970952,,,,,,,,,,,,,,,,,,355,2023-11-21_09h50.20.582,leap3,2022.2.5,59.96788815911237,
,,,,,,,,,,,,,,,,,,,,6,0,6,0,22,0,22,0,,,,,,entertain,w,g,lower,,,,,,,1,w,HiDemTar,g,1,0.7113603474572301,,,,,,,,,,,,,,,,,,355,2023-11-21_09h50.20.582,leap3,2022.2.5,59.96788815911237,
,,,,,,,,,,,,,,,,,,,,6,0,6,0,23,0,23,0,,,,,,culer,nw,h,lower,,,,,,,1,w,HiDemTar,h,1,0.6819503761362284,,,,,,,,,,,,,,,,,,355,2023-11-21_09h50.20.582,leap3,2022.2.5,59.96788815911237,
,,,,,,,,,,,,,,,,,,,,6,0,6,0,24,0,24,0,,,,,,envelop,w,g,lower,,,,,,,1,nw,HiDemTar,g,1,0.9180167713202536,,,,,,,,,,,,,,,,,,355,2023-11-21_09h50.20.582,leap3,2022.2.5,59.96788815911237,
,,,,,,,,,,,,,,,,,,,,6,0,6,0,25,0,25,0,,,,,,fallacy,w,g,lower,,,,,,,1,w,HiDemTar,g,1,0.73601948202122,,,,,,,,,,,,,,,,,,355,2023-11-21_09h50.20.582,leap3,2022.2.5,59.96788815911237,
,,,,,,,,,,,,,,,,,,,,6,0,6,0,26,0,26,0,,,,,,edasion,nw,h,lower,,,,,,,1,w,HiDemTar,h,1,0.6253982419148088,,,,,,,,,,,,,,,,,,355,2023-11-21_09h50.20.582,leap3,2022.2.5,59.96788815911237,
,,,,,,,,,,,,,,,,,,,,6,0,6,0,27,0,27,0,,,,,,flougy,nw,h,lower,,,,,,,1,nw,HiDemTar,h,1,0.6954998752335086,,,,,,,,,,,,,,,,,,355,2023-11-21_09h50.20.582,leap3,2022.2.5,59.96788815911237,
,,,,,,,,,,,,,,,,,,,,6,0,6,0,28,0,28,0,,,,,,dusmy,nw,h,lower,,,,,,,1,nw,HiDemTar,h,1,1.0828574390616268,,,,,,,,,,,,,,,,,,355,2023-11-21_09h50.20.582,leap3,2022.2.5,59.96788815911237,
,,,,,,,,,,,,,,,,,,,,6,0,6,0,29,0,29,0,,,,,,reason,w,g,lower,,,,,,,1,nw,HiDemTar,g,1,0.7749009418766946,,,,,,,,,,,,,,,,,,355,2023-11-21_09h50.20.582,leap3,2022.2.5,59.96788815911237,
,,,,,,,,,,,,,,,,,,,,6,0,6,0,,,,,,,,,,,,,,,,,,,,,,,,,,,0,,,,,,,,,,,,,,,,355,2023-11-21_09h50.20.582,leap3,2022.2.5,59.96788815911237,
,,,,,,,,,,,,,,,,,,,,7,0,7,0,0,0,0,0,,,,,,arrival,w,g,lower,,,,,,,1,w,HiDemTar,g,1,0.6689384741475806,,,,,,,,,,,,,,,,,,355,2023-11-21_09h50.20.582,leap3,2022.2.5,59.96788815911237,
,,,,,,,,,,,,,,,,,,,,7,0,7,0,1,0,1,0,,,,,,sunshine,w,g,lower,,,,,,,1,w,HiDemTar,g,1,0.8246843636734411,,,,,,,,,,,,,,,,,,355,2023-11-21_09h50.20.582,leap3,2022.2.5,59.96788815911237,
,,,,,,,,,,,,,,,,,,,,7,0,7,0,2,0,2,0,,,,,,splum,nw,h,lower,,,,,,,1,nw,HiDemTar,h,1,0.6867633943911642,,,,,,,,,,,,,,,,,,355,2023-11-21_09h50.20.582,leap3,2022.2.5,59.96788815911237,
,,,,,,,,,,,,,,,,,,,,7,0,7,0,3,0,3,0,,,,,,peems,nw,h,lower,,,,,,,1,nw,HiDemTar,h,1,0.570113581023179,,,,,,,,,,,,,,,,,,355,2023-11-21_09h50.20.582,leap3,2022.2.5,59.96788815911237,
,,,,,,,,,,,,,,,,,,,,7,0,7,0,4,0,4,0,,,,,,gackpedal,nw,h,lower,,,,,,,1,nw,HiDemTar,h,1,0.5855834577232599,,,,,,,,,,,,,,,,,,355,2023-11-21_09h50.20.582,leap3,2022.2.5,59.96788815911237,
,,,,,,,,,,,,,,,,,,,,7,0,7,0,5,0,5,0,,,,,,antwers,nw,h,lower,,,,,,,1,nw,HiDemTar,h,1,0.68093042075634,,,,,,,,,,,,,,,,,,355,2023-11-21_09h50.20.582,leap3,2022.2.5,59.96788815911237,
,,,,,,,,,,,,,,,,,,,,7,0,7,0,6,0,6,0,,,,,,scrooner,nw,h,lower,,,,,,,1,nw,HiDemTar,h,1,0.6434359672712162,,,,,,,,,,,,,,,,,,355,2023-11-21_09h50.20.582,leap3,2022.2.5,59.96788815911237,
,,,,,,,,,,,,,,,,,,,,7,0,7,0,7,0,7,0,,,,,,mebase,nw,h,lower,,,,,,,1,nw,HiDemTar,h,1,0.7760428452165797,,,,,,,,,,,,,,,,,,355,2023-11-21_09h50.20.582,leap3,2022.2.5,59.96788815911237,
,,,,,,,,,,,,,,,,,,,,7,0,7,0,8,0,8,0,,,,,,burning,w,g,lower,,,,,,,1,w,HiDemTar,g,1,0.7833992621162906,,,,,,,,,,,,,,,,,,355,2023-11-21_09h50.20.582,leap3,2022.2.5,59.96788815911237,
,,,,,,,,,,,,,,,,,,,,7,0,7,0,9,0,9,0,,,,,,quittint,nw,h,lower,,,,,,,1,nw,HiDemTar,h,1,0.8863999655004591,,,,,,,,,,,,,,,,,,355,2023-11-21_09h50.20.582,leap3,2022.2.5,59.96788815911237,
,,,,,,,,,,,,,,,,,,,,7,0,7,0,10,0,10,0,,,,,,coster,nw,h,lower,,,,,,,1,nw,HiDemTar,h,1,0.85812465287745,,,,,,,,,,,,,,,,,,355,2023-11-21_09h50.20.582,leap3,2022.2.5,59.96788815911237,
,,,,,,,,,,,,,,,,,,,,7,0,7,0,11,0,11,0,,,,,,curtail,w,g,lower,,,,,,,1,w,HiDemTar,h,0,0.7828067281516269,,,,,,,,,,,,,,,,,,355,2023-11-21_09h50.20.582,leap3,2022.2.5,59.96788815911237,
,,,,,,,,,,,,,,,,,,,,7,0,7,0,12,0,12,0,,,,,,fomes,nw,h,lower,,,,,,,1,nw,HiDemTar,h,1,0.48685515706893057,,,,,,,,,,,,,,,,,,355,2023-11-21_09h50.20.582,leap3,2022.2.5,59.96788815911237,
,,,,,,,,,,,,,,,,,,,,7,0,7,0,13,0,13,0,,,,,,bengths,nw,h,lower,,,,,,,1,nw,HiDemTar,h,1,0.6101825238438323,,,,,,,,,,,,,,,,,,355,2023-11-21_09h50.20.582,leap3,2022.2.5,59.96788815911237,
,,,,,,,,,,,,,,,,,,,,7,0,7,0,14,0,14,0,,,,,,imprives,nw,h,lower,,,,,,,1,nw,HiDemTar,h,1,0.7760268471902236,,,,,,,,,,,,,,,,,,355,2023-11-21_09h50.20.582,leap3,2022.2.5,59.96788815911237,
,,,,,,,,,,,,,,,,,,,,7,0,7,0,15,0,15,0,,,,,,ordinary,w,g,lower,,,,,,,1,w,HiDemTar,g,1,0.6234087402699515,,,,,,,,,,,,,,,,,,355,2023-11-21_09h50.20.582,leap3,2022.2.5,59.96788815911237,
,,,,,,,,,,,,,,,,,,,,7,0,7,0,16,0,16,0,,,,,,colored,w,g,lower,,,,,,,1,w,HiDemTar,g,1,0.8133145325118676,,,,,,,,,,,,,,,,,,355,2023-11-21_09h50.20.582,leap3,2022.2.5,59.96788815911237,
,,,,,,,,,,,,,,,,,,,,7,0,7,0,17,0,17,0,,,,,,unspoken,w,g,lower,,,,,,,1,w,HiDemTar,g,1,0.5553415843751281,,,,,,,,,,,,,,,,,,355,2023-11-21_09h50.20.582,leap3,2022.2.5,59.96788815911237,
,,,,,,,,,,,,,,,,,,,,7,0,7,0,18,0,18,0,,,,,,fictional,w,g,lower,,,,,,,1,w,HiDemTar,g,1,0.7641170040005818,,,,,,,,,,,,,,,,,,355,2023-11-21_09h50.20.582,leap3,2022.2.5,59.96788815911237,
,,,,,,,,,,,,,,,,,,,,7,0,7,0,19,0,19,0,,,,,,bloodless,w,g,lower,,,,,,,1,w,HiDemTar,g,1,0.6921200467040762,,,,,,,,,,,,,,,,,,355,2023-11-21_09h50.20.582,leap3,2022.2.5,59.96788815911237,
,,,,,,,,,,,,,,,,,,,,7,0,7,0,20,0,20,0,,,,,,squirrel,target,q,lower,,,,,,,1,target,HiDemTar,g,0,0.6629207675578073,,,,,,,,,,,,,,,,,,355,2023-11-21_09h50.20.582,leap3,2022.2.5,59.96788815911237,
,,,,,,,,,,,,,,,,,,,,7,0,7,0,21,0,21,0,,,,,,parlayid,nw,h,lower,,,,,,,1,aftertar1,HiDemTar,h,1,0.7308297533309087,,,,,,,,,,,,,,,,,,355,2023-11-21_09h50.20.582,leap3,2022.2.5,59.96788815911237,
,,,,,,,,,,,,,,,,,,,,7,0,7,0,22,0,22,0,,,,,,satisfies,w,g,lower,,,,,,,1,aftertar2,HiDemTar,g,1,0.7082132463110611,,,,,,,,,,,,,,,,,,355,2023-11-21_09h50.20.582,leap3,2022.2.5,59.96788815911237,
,,,,,,,,,,,,,,,,,,,,7,0,7,0,23,0,23,0,,,,,,committed,w,g,lower,,,,,,,1,aftertar3,HiDemTar,g,1,0.5421515901107341,,,,,,,,,,,,,,,,,,355,2023-11-21_09h50.20.582,leap3,2022.2.5,59.96788815911237,
,,,,,,,,,,,,,,,,,,,,7,0,7,0,24,0,24,0,,,,,,overwork,w,g,lower,,,,,,,1,w,HiDemTar,g,1,1.053993516601622,,,,,,,,,,,,,,,,,,355,2023-11-21_09h50.20.582,leap3,2022.2.5,59.96788815911237,
,,,,,,,,,,,,,,,,,,,,7,0,7,0,25,0,25,0,,,,,,populace,w,g,lower,,,,,,,1,w,HiDemTar,g,1,0.9618265567114577,,,,,,,,,,,,,,,,,,355,2023-11-21_09h50.20.582,leap3,2022.2.5,59.96788815911237,
,,,,,,,,,,,,,,,,,,,,7,0,7,0,26,0,26,0,,,,,,flieves,nw,h,lower,,,,,,,1,w,HiDemTar,h,1,0.5448018441675231,,,,,,,,,,,,,,,,,,355,2023-11-21_09h50.20.582,leap3,2022.2.5,59.96788815911237,
,,,,,,,,,,,,,,,,,,,,7,0,7,0,27,0,27,0,,,,,,correct,w,g,lower,,,,,,,1,nw,HiDemTar,g,1,0.6416994170285761,,,,,,,,,,,,,,,,,,355,2023-11-21_09h50.20.582,leap3,2022.2.5,59.96788815911237,
,,,,,,,,,,,,,,,,,,,,7,0,7,0,28,0,28,0,,,,,,ronvince,nw,h,lower,,,,,,,1,w,HiDemTar,h,1,0.6549778536427766,,,,,,,,,,,,,,,,,,355,2023-11-21_09h50.20.582,leap3,2022.2.5,59.96788815911237,
,,,,,,,,,,,,,,,,,,,,7,0,7,0,29,0,29,0,,,,,,ements,nw,h,lower,,,,,,,1,nw,HiDemTar,h,1,0.8353415240999311,,,,,,,,,,,,,,,,,,355,2023-11-21_09h50.20.582,leap3,2022.2.5,59.96788815911237,
,,,,,,,,,,,,,,,,,,,,7,0,7,0,,,,,,,,,,,,,,,,,,,,,,,,,,,0,,,,,,,,,,,,,,,,355,2023-11-21_09h50.20.582,leap3,2022.2.5,59.96788815911237,
,,,,,,,,,,,,,,,,,,,,8,0,8,0,0,0,0,0,,,,,,lenie,nw,h,upper,,,,,,,3,nw,LoDemNoTar,h,1,0.6798042136942968,,,,,,,,,,,,,,,,,,355,2023-11-21_09h50.20.582,leap3,2022.2.5,59.96788815911237,
,,,,,,,,,,,,,,,,,,,,8,0,8,0,1,0,1,0,,,,,,detrabe,nw,h,upper,,,,,,,3,nw,LoDemNoTar,h,1,0.5711579864146188,,,,,,,,,,,,,,,,,,355,2023-11-21_09h50.20.582,leap3,2022.2.5,59.96788815911237,
,,,,,,,,,,,,,,,,,,,,8,0,8,0,2,0,2,0,,,,,,criminal,w,g,upper,,,,,,,3,w,LoDemNoTar,g,1,0.6585867872927338,,,,,,,,,,,,,,,,,,355,2023-11-21_09h50.20.582,leap3,2022.2.5,59.96788815911237,
,,,,,,,,,,,,,,,,,,,,8,0,8,0,3,0,3,0,,,,,,attrove,nw,h,upper,,,,,,,3,nw,LoDemNoTar,h,1,0.5745713204378262,,,,,,,,,,,,,,,,,,355,2023-11-21_09h50.20.582,leap3,2022.2.5,59.96788815911237,
,,,,,,,,,,,,,,,,,,,,8,0,8,0,4,0,4,0,,,,,,nature,w,g,upper,,,,,,,3,w,LoDemNoTar,g,1,0.7099639835068956,,,,,,,,,,,,,,,,,,355,2023-11-21_09h50.20.582,leap3,2022.2.5,59.96788815911237,
,,,,,,,,,,,,,,,,,,,,8,0,8,0,5,0,5,0,,,,,,natch,nw,h,upper,,,,,,,3,nw,LoDemNoTar,h,1,0.5039495973614976,,,,,,,,,,,,,,,,,,355,2023-11-21_09h50.20.582,leap3,2022.2.5,59.96788815911237,
,,,,,,,,,,,,,,,,,,,,8,0,8,0,6,0,6,0,,,,,,dricked,nw,h,upper,,,,,,,3,nw,LoDemNoTar,h,1,0.8172980634262785,,,,,,,,,,,,,,,,,,355,2023-11-21_09h50.20.582,leap3,2022.2.5,59.96788815911237,
,,,,,,,,,,,,,,,,,,,,8,0,8,0,7,0,7,0,,,,,,hecture,nw,h,upper,,,,,,,3,nw,LoDemNoTar,h,1,0.6951627072412521,,,,,,,,,,,,,,,,,,355,2023-11-21_09h50.20.582,leap3,2022.2.5,59.96788815911237,
,,,,,,,,,,,,,,,,,,,,8,0,8,0,8,0,8,0,,,,,,ounwit,nw,h,upper,,,,,,,3,nw,LoDemNoTar,h,1,0.6977987743448466,,,,,,,,,,,,,,,,,,355,2023-11-21_09h50.20.582,leap3,2022.2.5,59.96788815911237,
,,,,,,,,,,,,,,,,,,,,8,0,8,0,9,0,9,0,,,,,,dorte,nw,h,upper,,,,,,,3,nw,LoDemNoTar,h,1,0.6124651230638847,,,,,,,,,,,,,,,,,,355,2023-11-21_09h50.20.582,leap3,2022.2.5,59.96788815911237,
,,,,,,,,,,,,,,,,,,,,8,0,8,0,10,0,10,0,,,,,,newstrint,nw,h,upper,,,,,,,3,nw,LoDemNoTar,h,1,0.9065575920976698,,,,,,,,,,,,,,,,,,355,2023-11-21_09h50.20.582,leap3,2022.2.5,59.96788815911237,
,,,,,,,,,,,,,,,,,,,,8,0,8,0,11,0,11,0,,,,,,advantage,w,g,upper,,,,,,,3,w,LoDemNoTar,g,1,0.7006591168465093,,,,,,,,,,,,,,,,,,355,2023-11-21_09h50.20.582,leap3,2022.2.5,59.96788815911237,
,,,,,,,,,,,,,,,,,,,,8,0,8,0,12,0,12,0,,,,,,uncarled,nw,h,upper,,,,,,,3,nw,LoDemNoTar,h,1,0.5272905473830178,,,,,,,,,,,,,,,,,,355,2023-11-21_09h50.20.582,leap3,2022.2.5,59.96788815911237,
,,,,,,,,,,,,,,,,,,,,8,0,8,0,13,0,13,0,,,,,,cutout,w,g,upper,,,,,,,3,w,LoDemNoTar,g,1,1.0486060754628852,,,,,,,,,,,,,,,,,,355,2023-11-21_09h50.20.582,leap3,2022.2.5,59.96788815911237,
,,,,,,,,,,,,,,,,,,,,8,0,8,0,14,0,14,0,,,,,,twenties,w,g,upper,,,,,,,3,w,LoDemNoTar,g,1,0.6853359397500753,,,,,,,,,,,,,,,,,,355,2023-11-21_09h50.20.582,leap3,2022.2.5,59.96788815911237,
,,,,,,,,,,,,,,,,,,,,8,0,8,0,15,0,15,0,,,,,,vibrate,w,g,upper,,,,,,,3,w,LoDemNoTar,g,1,0.6169059586245567,,,,,,,,,,,,,,,,,,355,2023-11-21_09h50.20.582,leap3,2022.2.5,59.96788815911237,
,,,,,,,,,,,,,,,,,,,,8,0,8,0,16,0,16,0,,,,,,rudder,w,g,upper,,,,,,,3,w,LoDemNoTar,h,0,0.78181393945124,,,,,,,,,,,,,,,,,,355,2023-11-21_09h50.20.582,leap3,2022.2.5,59.96788815911237,
,,,,,,,,,,,,,,,,,,,,8,0,8,0,17,0,17,0,,,,,,virulent,w,g,upper,,,,,,,3,w,LoDemNoTar,g,1,0.78799253271427,,,,,,,,,,,,,,,,,,355,2023-11-21_09h50.20.582,leap3,2022.2.5,59.96788815911237,
,,,,,,,,,,,,,,,,,,,,8,0,8,0,18,0,18,0,,,,,,kickoff,w,g,upper,,,,,,,3,w,LoDemNoTar,g,1,0.5787380750989541,,,,,,,,,,,,,,,,,,355,2023-11-21_09h50.20.582,leap3,2022.2.5,59.96788815911237,
,,,,,,,,,,,,,,,,,,,,8,0,8,0,19,0,19,0,,,,,,latirizes,nw,h,upper,,,,,,,3,nw,LoDemNoTar,h,1,0.74598117696587,,,,,,,,,,,,,,,,,,355,2023-11-21_09h50.20.582,leap3,2022.2.5,59.96788815911237,
,,,,,,,,,,,,,,,,,,,,8,0,8,0,20,0,20,0,,,,,,sefraud,nw,h,upper,,,,,,,3,nw,LoDemNoTar,h,1,0.7476742607541382,,,,,,,,,,,,,,,,,,355,2023-11-21_09h50.20.582,leap3,2022.2.5,59.96788815911237,
,,,,,,,,,,,,,,,,,,,,8,0,8,0,21,0,21,0,,,,,,chrik,nw,h,upper,,,,,,,3,nw,LoDemNoTar,h,1,0.6526363934390247,,,,,,,,,,,,,,,,,,355,2023-11-21_09h50.20.582,leap3,2022.2.5,59.96788815911237,
,,,,,,,,,,,,,,,,,,,,8,0,8,0,22,0,22,0,,,,,,seldom,w,g,upper,,,,,,,3,w,LoDemNoTar,g,1,0.9045892201829702,,,,,,,,,,,,,,,,,,355,2023-11-21_09h50.20.582,leap3,2022.2.5,59.96788815911237,
,,,,,,,,,,,,,,,,,,,,8,0,8,0,23,0,23,0,,,,,,ralliep,nw,h,upper,,,,,,,3,nw,LoDemNoTar,h,1,0.6266693375073373,,,,,,,,,,,,,,,,,,355,2023-11-21_09h50.20.582,leap3,2022.2.5,59.96788815911237,
,,,,,,,,,,,,,,,,,,,,8,0,8,0,24,0,24,0,,,,,,innocent,w,g,upper,,,,,,,3,w,LoDemNoTar,g,1,0.6321008489467204,,,,,,,,,,,,,,,,,,355,2023-11-21_09h50.20.582,leap3,2022.2.5,59.96788815911237,
,,,,,,,,,,,,,,,,,,,,8,0,8,0,25,0,25,0,,,,,,curricula,w,g,upper,,,,,,,3,w,LoDemNoTar,h,0,0.6685834970558062,,,,,,,,,,,,,,,,,,355,2023-11-21_09h50.20.582,leap3,2022.2.5,59.96788815911237,
,,,,,,,,,,,,,,,,,,,,8,0,8,0,26,0,26,0,,,,,,teamwork,w,g,upper,,,,,,,3,w,LoDemNoTar,g,1,0.8004408783745021,,,,,,,,,,,,,,,,,,355,2023-11-21_09h50.20.582,leap3,2022.2.5,59.96788815911237,
,,,,,,,,,,,,,,,,,,,,8,0,8,0,27,0,27,0,,,,,,failure,w,g,upper,,,,,,,3,w,LoDemNoTar,g,1,0.7111508627422154,,,,,,,,,,,,,,,,,,355,2023-11-21_09h50.20.582,leap3,2022.2.5,59.96788815911237,
,,,,,,,,,,,,,,,,,,,,8,0,8,0,28,0,28,0,,,,,,airbis,nw,h,upper,,,,,,,3,nw,LoDemNoTar,h,1,0.7532443219097331,,,,,,,,,,,,,,,,,,355,2023-11-21_09h50.20.582,leap3,2022.2.5,59.96788815911237,
,,,,,,,,,,,,,,,,,,,,8,0,8,0,29,0,29,0,,,,,,scarlet,w,g,upper,,,,,,,3,w,LoDemNoTar,g,1,0.6173892226070166,,,,,,,,,,,,,,,,,,355,2023-11-21_09h50.20.582,leap3,2022.2.5,59.96788815911237,
,,,,,,,,,,,,,,,,,,,,8,0,8,0,,,,,,,,,,,,,,,,,,,,,,,,,,,NA,,,,,,,,,,,,,,,,355,2023-11-21_09h50.20.582,leap3,2022.2.5,59.96788815911237,
,,,,,,,,,,,,,,,,,,,,9,0,9,0,0,0,0,0,,,,,,condensed,w,g,lower,,,,,,,1,w,HiDemTar,g,1,0.9985198969952762,,,,,,,,,,,,,,,,,,355,2023-11-21_09h50.20.582,leap3,2022.2.5,59.96788815911237,
,,,,,,,,,,,,,,,,,,,,9,0,9,0,1,0,1,0,,,,,,dislokes,nw,h,lower,,,,,,,1,nw,HiDemTar,h,1,0.7252180366776884,,,,,,,,,,,,,,,,,,355,2023-11-21_09h50.20.582,leap3,2022.2.5,59.96788815911237,
,,,,,,,,,,,,,,,,,,,,9,0,9,0,2,0,2,0,,,,,,houted,nw,h,lower,,,,,,,1,nw,HiDemTar,h,1,0.7185664424905553,,,,,,,,,,,,,,,,,,355,2023-11-21_09h50.20.582,leap3,2022.2.5,59.96788815911237,
,,,,,,,,,,,,,,,,,,,,9,0,9,0,3,0,3,0,,,,,,flacked,nw,h,lower,,,,,,,1,nw,HiDemTar,g,0,0.7365607012761757,,,,,,,,,,,,,,,,,,355,2023-11-21_09h50.20.582,leap3,2022.2.5,59.96788815911237,
,,,,,,,,,,,,,,,,,,,,9,0,9,0,4,0,4,0,,,,,,lasprey,nw,h,lower,,,,,,,1,nw,HiDemTar,h,1,0.7371948907384649,,,,,,,,,,,,,,,,,,355,2023-11-21_09h50.20.582,leap3,2022.2.5,59.96788815911237,
,,,,,,,,,,,,,,,,,,,,9,0,9,0,5,0,5,0,,,,,,funtair,nw,h,lower,,,,,,,1,nw,HiDemTar,h,1,0.6418901869328693,,,,,,,,,,,,,,,,,,355,2023-11-21_09h50.20.582,leap3,2022.2.5,59.96788815911237,
,,,,,,,,,,,,,,,,,,,,9,0,9,0,6,0,6,0,,,,,,hodels,nw,h,lower,,,,,,,1,nw,HiDemTar,h,1,0.7425201504956931,,,,,,,,,,,,,,,,,,355,2023-11-21_09h50.20.582,leap3,2022.2.5,59.96788815911237,
,,,,,,,,,,,,,,,,,,,,9,0,9,0,7,0,7,0,,,,,,crundle,nw,h,lower,,,,,,,1,nw,HiDemTar,h,1,0.8952414904488251,,,,,,,,,,,,,,,,,,355,2023-11-21_09h50.20.582,leap3,2022.2.5,59.96788815911237,
,,,,,,,,,,,,,,,,,,,,9,0,9,0,8,0,8,0,,,,,,mustled,nw,h,lower,,,,,,,1,nw,HiDemTar,h,1,1.1198719490785152,,,,,,,,,,,,,,,,,,355,2023-11-21_09h50.20.582,leap3,2022.2.5,59.96788815911237,
,,,,,,,,,,,,,,,,,,,,9,0,9,0,9,0,9,0,,,,,,border,w,g,lower,,,,,,,1,w,HiDemTar,h,0,1.5930983466096222,,,,,,,,,,,,,,,,,,355,2023-11-21_09h50.20.582,leap3,2022.2.5,59.96788815911237,
,,,,,,,,,,,,,,,,,,,,9,0,9,0,10,0,10,0,,,,,,stable,w,g,lower,,,,,,,1,w,HiDemTar,g,1,1.072621361236088,,,,,,,,,,,,,,,,,,355,2023-11-21_09h50.20.582,leap3,2022.2.5,59.96788815911237,
,,,,,,,,,,,,,,,,,,,,9,0,9,0,11,0,11,0,,,,,,embrace,w,g,lower,,,,,,,1,w,HiDemTar,g,1,1.2764690592885017,,,,,,,,,,,,,,,,,,355,2023-11-21_09h50.20.582,leap3,2022.2.5,59.96788815911237,
,,,,,,,,,,,,,,,,,,,,9,0,9,0,12,0,12,0,,,,,,railroad,w,g,lower,,,,,,,1,w,HiDemTar,g,1,0.8157296443823725,,,,,,,,,,,,,,,,,,355,2023-11-21_09h50.20.582,leap3,2022.2.5,59.96788815911237,
,,,,,,,,,,,,,,,,,,,,9,0,9,0,13,0,13,0,,,,,,repayment,w,g,lower,,,,,,,1,w,HiDemTar,g,1,1.4698026742553338,,,,,,,,,,,,,,,,,,355,2023-11-21_09h50.20.582,leap3,2022.2.5,59.96788815911237,
,,,,,,,,,,,,,,,,,,,,9,0,9,0,14,0,14,0,,,,,,insertion,w,g,lower,,,,,,,1,w,HiDemTar,g,1,0.9609964657574892,,,,,,,,,,,,,,,,,,355,2023-11-21_09h50.20.582,leap3,2022.2.5,59.96788815911237,
,,,,,,,,,,,,,,,,,,,,9,0,9,0,15,0,15,0,,,,,,neally,nw,h,lower,,,,,,,1,nw,HiDemTar,h,1,0.8401952921412885,,,,,,,,,,,,,,,,,,355,2023-11-21_09h50.20.582,leap3,2022.2.5,59.96788815911237,
,,,,,,,,,,,,,,,,,,,,9,0,9,0,16,0,16,0,,,,,,explosion,w,g,lower,,,,,,,1,w,HiDemTar,g,1,2.9569561866810545,,,,,,,,,,,,,,,,,,355,2023-11-21_09h50.20.582,leap3,2022.2.5,59.96788815911237,
,,,,,,,,,,,,,,,,,,,,9,0,9,0,17,0,17,0,,,,,,pressing,w,g,lower,,,,,,,1,w,HiDemTar,g,1,0.6529457910219207,,,,,,,,,,,,,,,,,,355,2023-11-21_09h50.20.582,leap3,2022.2.5,59.96788815911237,
,,,,,,,,,,,,,,,,,,,,9,0,9,0,18,0,18,0,,,,,,kilotin,nw,h,lower,,,,,,,1,nw,HiDemTar,h,1,0.608924709726125,,,,,,,,,,,,,,,,,,355,2023-11-21_09h50.20.582,leap3,2022.2.5,59.96788815911237,
,,,,,,,,,,,,,,,,,,,,9,0,9,0,19,0,19,0,,,,,,lentils,w,g,lower,,,,,,,1,w,HiDemTar,g,1,0.6789855930255726,,,,,,,,,,,,,,,,,,355,2023-11-21_09h50.20.582,leap3,2022.2.5,59.96788815911237,
,,,,,,,,,,,,,,,,,,,,9,0,9,0,20,0,20,0,,,,,,postal,w,g,lower,,,,,,,1,w,HiDemTar,g,1,0.7623496649321169,,,,,,,,,,,,,,,,,,355,2023-11-21_09h50.20.582,leap3,2022.2.5,59.96788815911237,
,,,,,,,,,,,,,,,,,,,,9,0,9,0,21,0,21,0,,,,,,sording,nw,h,lower,,,,,,,1,nw,HiDemTar,h,1,0.8663715310394764,,,,,,,,,,,,,,,,,,355,2023-11-21_09h50.20.582,leap3,2022.2.5,59.96788815911237,
,,,,,,,,,,,,,,,,,,,,9,0,9,0,22,0,22,0,,,,,,region,w,g,lower,,,,,,,1,w,HiDemTar,g,1,0.8223863700404763,,,,,,,,,,,,,,,,,,355,2023-11-21_09h50.20.582,leap3,2022.2.5,59.96788815911237,
,,,,,,,,,,,,,,,,,,,,9,0,9,0,23,0,23,0,,,,,,porcupine,target,q,lower,,,,,,,1,target,HiDemTar,q,1,0.9548716020071879,1,,,,,,,,,,,,,,,,,355,2023-11-21_09h50.20.582,leap3,2022.2.5,59.96788815911237,
,,,,,,,,,,,,,,,,,,,,9,0,9,0,24,0,24,0,,,,,,breiled,nw,h,lower,,,,,,,1,aftertar1,HiDemTar,h,1,0.7388686559861526,,,,,,,,,,,,,,,,,,355,2023-11-21_09h50.20.582,leap3,2022.2.5,59.96788815911237,
,,,,,,,,,,,,,,,,,,,,9,0,9,0,25,0,25,0,,,,,,upstairs,w,g,lower,,,,,,,1,aftertar2,HiDemTar,g,1,0.6436246242374182,,,,,,,,,,,,,,,,,,355,2023-11-21_09h50.20.582,leap3,2022.2.5,59.96788815911237,
,,,,,,,,,,,,,,,,,,,,9,0,9,0,26,0,26,0,,,,,,seighing,nw,h,lower,,,,,,,1,aftertar3,HiDemTar,h,1,1.2803638459881768,,,,,,,,,,,,,,,,,,355,2023-11-21_09h50.20.582,leap3,2022.2.5,59.96788815911237,
,,,,,,,,,,,,,,,,,,,,9,0,9,0,27,0,27,0,,,,,,noblest,w,g,lower,,,,,,,1,nw,HiDemTar,h,0,0.7956830988405272,,,,,,,,,,,,,,,,,,355,2023-11-21_09h50.20.582,leap3,2022.2.5,59.96788815911237,
,,,,,,,,,,,,,,,,,,,,9,0,9,0,28,0,28,0,,,,,,latter,w,g,lower,,,,,,,1,w,HiDemTar,g,1,0.7463935058331117,,,,,,,,,,,,,,,,,,355,2023-11-21_09h50.20.582,leap3,2022.2.5,59.96788815911237,
,,,,,,,,,,,,,,,,,,,,9,0,9,0,29,0,29,0,,,,,,gontracts,nw,h,lower,,,,,,,1,w,HiDemTar,h,1,0.8590700511122122,,,,,,,,,,,,,,,,,,355,2023-11-21_09h50.20.582,leap3,2022.2.5,59.96788815911237,
,,,,,,,,,,,,,,,,,,,,9,0,9,0,,,,,,,,,,,,,,,,,,,,,,,,,,,1,,,,,,,,,,,,,,,,355,2023-11-21_09h50.20.582,leap3,2022.2.5,59.96788815911237,
,,,,,,,,,,,,,,,,,,,,10,0,10,0,0,0,0,0,,,,,,paranoid,w,g,upper,,,,,,,4,w,LoDemTar,g,1,2.45423952548299,,,,,,,,,,,,,,,,,,355,2023-11-21_09h50.20.582,leap3,2022.2.5,59.96788815911237,
,,,,,,,,,,,,,,,,,,,,10,0,10,0,1,0,1,0,,,,,,metrol,nw,h,upper,,,,,,,4,nw,LoDemTar,h,1,1.2743014653678983,,,,,,,,,,,,,,,,,,355,2023-11-21_09h50.20.582,leap3,2022.2.5,59.96788815911237,
,,,,,,,,,,,,,,,,,,,,10,0,10,0,2,0,2,0,,,,,,pollute,w,g,upper,,,,,,,4,w,LoDemTar,h,0,1.077682803152129,,,,,,,,,,,,,,,,,,355,2023-11-21_09h50.20.582,leap3,2022.2.5,59.96788815911237,
,,,,,,,,,,,,,,,,,,,,10,0,10,0,3,0,3,0,,,,,,throttle,w,g,upper,,,,,,,4,w,LoDemTar,h,0,0.8650919835781679,,,,,,,,,,,,,,,,,,355,2023-11-21_09h50.20.582,leap3,2022.2.5,59.96788815911237,
,,,,,,,,,,,,,,,,,,,,10,0,10,0,4,0,4,0,,,,,,podges,nw,h,upper,,,,,,,4,nw,LoDemTar,h,1,0.9641330022132024,,,,,,,,,,,,,,,,,,355,2023-11-21_09h50.20.582,leap3,2022.2.5,59.96788815911237,
,,,,,,,,,,,,,,,,,,,,10,0,10,0,5,0,5,0,,,,,,undertake,w,g,upper,,,,,,,4,w,LoDemTar,g,1,0.9002000010805205,,,,,,,,,,,,,,,,,,355,2023-11-21_09h50.20.582,leap3,2022.2.5,59.96788815911237,
,,,,,,,,,,,,,,,,,,,,10,0,10,0,6,0,6,0,,,,,,relaying,w,g,upper,,,,,,,4,w,LoDemTar,g,1,2.4308415255509317,,,,,,,,,,,,,,,,,,355,2023-11-21_09h50.20.582,leap3,2022.2.5,59.96788815911237,
,,,,,,,,,,,,,,,,,,,,10,0,10,0,7,0,7,0,,,,,,boutique,w,g,upper,,,,,,,4,w,LoDemTar,g,1,2.4683057939400896,,,,,,,,,,,,,,,,,,355,2023-11-21_09h50.20.582,leap3,2022.2.5,59.96788815911237,
,,,,,,,,,,,,,,,,,,,,10,0,10,0,8,0,8,0,,,,,,permeable,w,g,upper,,,,,,,4,w,LoDemTar,g,1,1.656309923157096,,,,,,,,,,,,,,,,,,355,2023-11-21_09h50.20.582,leap3,2022.2.5,59.96788815911237,
,,,,,,,,,,,,,,,,,,,,10,0,10,0,9,0,9,0,,,,,,terming,w,g,upper,,,,,,,4,w,LoDemTar,g,1,0.6683383939089254,,,,,,,,,,,,,,,,,,355,2023-11-21_09h50.20.582,leap3,2022.2.5,59.96788815911237,
,,,,,,,,,,,,,,,,,,,,10,0,10,0,10,0,10,0,,,,,,ecistle,nw,h,upper,,,,,,,4,nw,LoDemTar,h,1,2.3524181550601497,,,,,,,,,,,,,,,,,,355,2023-11-21_09h50.20.582,leap3,2022.2.5,59.96788815911237,
,,,,,,,,,,,,,,,,,,,,10,0,10,0,11,0,11,0,,,,,,moisture,w,g,upper,,,,,,,4,w,LoDemTar,g,1,1.6394934880081564,,,,,,,,,,,,,,,,,,355,2023-11-21_09h50.20.582,leap3,2022.2.5,59.96788815911237,
,,,,,,,,,,,,,,,,,,,,10,0,10,0,12,0,12,0,,,,,,pexts,nw,h,upper,,,,,,,4,nw,LoDemTar,h,1,0.6681554720271379,,,,,,,,,,,,,,,,,,355,2023-11-21_09h50.20.582,leap3,2022.2.5,59.96788815911237,
,,,,,,,,,,,,,,,,,,,,10,0,10,0,13,0,13,0,,,,,,single,w,g,upper,,,,,,,4,w,LoDemTar,g,1,0.9682034662691876,,,,,,,,,,,,,,,,,,355,2023-11-21_09h50.20.582,leap3,2022.2.5,59.96788815911237,
,,,,,,,,,,,,,,,,,,,,10,0,10,0,14,0,14,0,,,,,,sampling,w,g,upper,,,,,,,4,w,LoDemTar,g,1,1.1041705524548888,,,,,,,,,,,,,,,,,,355,2023-11-21_09h50.20.582,leap3,2022.2.5,59.96788815911237,
,,,,,,,,,,,,,,,,,,,,10,0,10,0,15,0,15,0,,,,,,huffle,nw,h,upper,,,,,,,4,nw,LoDemTar,g,0,1.0090194910299033,,,,,,,,,,,,,,,,,,355,2023-11-21_09h50.20.582,leap3,2022.2.5,59.96788815911237,
,,,,,,,,,,,,,,,,,,,,10,0,10,0,16,0,16,0,,,,,,ringlat,nw,h,upper,,,,,,,4,nw,LoDemTar,h,1,0.8070556467864662,,,,,,,,,,,,,,,,,,355,2023-11-21_09h50.20.582,leap3,2022.2.5,59.96788815911237,
,,,,,,,,,,,,,,,,,,,,10,0,10,0,17,0,17,0,,,,,,doxing,nw,h,upper,,,,,,,4,nw,LoDemTar,g,0,0.8609276437200606,,,,,,,,,,,,,,,,,,355,2023-11-21_09h50.20.582,leap3,2022.2.5,59.96788815911237,
,,,,,,,,,,,,,,,,,,,,10,0,10,0,18,0,18,0,,,,,,previous,w,g,upper,,,,,,,4,w,LoDemTar,g,1,0.658031984581612,,,,,,,,,,,,,,,,,,355,2023-11-21_09h50.20.582,leap3,2022.2.5,59.96788815911237,
,,,,,,,,,,,,,,,,,,,,10,0,10,0,19,0,19,0,,,,,,brials,nw,h,upper,,,,,,,4,nw,LoDemTar,h,1,1.173080477048643,,,,,,,,,,,,,,,,,,355,2023-11-21_09h50.20.582,leap3,2022.2.5,59.96788815911237,
,,,,,,,,,,,,,,,,,,,,10,0,10,0,20,0,20,0,,,,,,hemoter,nw,h,upper,,,,,,,4,nw,LoDemTar,h,1,0.8924677794566378,,,,,,,,,,,,,,,,,,355,2023-11-21_09h50.20.582,leap3,2022.2.5,59.96788815911237,
,,,,,,,,,,,,,,,,,,,,10,0,10,0,21,0,21,0,,,,,,amaze,w,g,upper,,,,,,,4,w,LoDemTar,g,1,0.5673803179524839,,,,,,,,,,,,,,,,,,355,2023-11-21_09h50.20.582,leap3,2022.2.5,59.96788815911237,
,,,,,,,,,,,,,,,,,,,,10,0,10,0,22,0,22,0,,,,,,geissue,nw,h,upper,,,,,,,4,nw,LoDemTar,h,1,0.9191728616133332,,,,,,,,,,,,,,,,,,355,2023-11-21_09h50.20.582,leap3,2022.2.5,59.96788815911237,
,,,,,,,,,,,,,,,,,,,,10,0,10,0,23,0,23,0,,,,,,fuhrek,nw,h,upper,,,,,,,4,nw,LoDemTar,h,1,0.760575685184449,,,,,,,,,,,,,,,,,,355,2023-11-21_09h50.20.582,leap3,2022.2.5,59.96788815911237,
,,,,,,,,,,,,,,,,,,,,10,0,10,0,24,0,24,0,,,,,,expected,w,g,upper,,,,,,,4,w,LoDemTar,g,1,0.9686420562211424,,,,,,,,,,,,,,,,,,355,2023-11-21_09h50.20.582,leap3,2022.2.5,59.96788815911237,
,,,,,,,,,,,,,,,,,,,,10,0,10,0,25,0,25,0,,,,,,podes,nw,h,upper,,,,,,,4,nw,LoDemTar,h,1,0.8957824079552665,,,,,,,,,,,,,,,,,,355,2023-11-21_09h50.20.582,leap3,2022.2.5,59.96788815911237,
,,,,,,,,,,,,,,,,,,,,10,0,10,0,26,0,26,0,,,,,,rantho,nw,h,upper,,,,,,,4,nw,LoDemTar,h,1,0.9064561701379716,,,,,,,,,,,,,,,,,,355,2023-11-21_09h50.20.582,leap3,2022.2.5,59.96788815911237,
,,,,,,,,,,,,,,,,,,,,10,0,10,0,27,0,27,0,,,,,,tyena,nw,h,upper,,,,,,,4,nw,LoDemTar,h,1,0.6364604865666479,,,,,,,,,,,,,,,,,,355,2023-11-21_09h50.20.582,leap3,2022.2.5,59.96788815911237,
,,,,,,,,,,,,,,,,,,,,10,0,10,0,28,0,28,0,,,,,,gorilla,target,q,upper,,,,,,,4,target,LoDemTar,q,1,1.3770766857778654,1,,,,,,,,,,,,,,,,,355,2023-11-21_09h50.20.582,leap3,2022.2.5,59.96788815911237,
,,,,,,,,,,,,,,,,,,,,10,0,10,0,29,0,29,0,,,,,,entitle,w,g,upper,,,,,,,4,aftertar1,LoDemTar,g,1,1.2325506072957069,,,,,,,,,,,,,,,,,,355,2023-11-21_09h50.20.582,leap3,2022.2.5,59.96788815911237,
,,,,,,,,,,,,,,,,,,,,10,0,10,0,,,,,,,,,,,,,,,,,,,,,,,,,,,1,,,,,,,,,,,,,,,,355,2023-11-21_09h50.20.582,leap3,2022.2.5,59.96788815911237,
,,,,,,,,,,,,,,,,,,,,11,0,11,0,0,0,0,0,,,,,,mabit,nw,h,upper,,,,,,,3,nw,LoDemNoTar,h,1,2.8217488602967933,,,,,,,,,,,,,,,,,,355,2023-11-21_09h50.20.582,leap3,2022.2.5,59.96788815911237,
,,,,,,,,,,,,,,,,,,,,11,0,11,0,1,0,1,0,,,,,,require,w,g,upper,,,,,,,3,w,LoDemNoTar,g,1,0.6673127033282071,,,,,,,,,,,,,,,,,,355,2023-11-21_09h50.20.582,leap3,2022.2.5,59.96788815911237,
,,,,,,,,,,,,,,,,,,,,11,0,11,0,2,0,2,0,,,,,,primal,w,g,upper,,,,,,,3,w,LoDemNoTar,g,1,0.7351178522221744,,,,,,,,,,,,,,,,,,355,2023-11-21_09h50.20.582,leap3,2022.2.5,59.96788815911237,
,,,,,,,,,,,,,,,,,,,,11,0,11,0,3,0,3,0,,,,,,chraps,nw,h,upper,,,,,,,3,nw,LoDemNoTar,h,1,0.7033175209071487,,,,,,,,,,,,,,,,,,355,2023-11-21_09h50.20.582,leap3,2022.2.5,59.96788815911237,
,,,,,,,,,,,,,,,,,,,,11,0,11,0,4,0,4,0,,,,,,lancos,nw,h,upper,,,,,,,3,nw,LoDemNoTar,h,1,0.7773386925691739,,,,,,,,,,,,,,,,,,355,2023-11-21_09h50.20.582,leap3,2022.2.5,59.96788815911237,
,,,,,,,,,,,,,,,,,,,,11,0,11,0,5,0,5,0,,,,,,stranded,w,g,upper,,,,,,,3,w,LoDemNoTar,g,1,0.7851228327490389,,,,,,,,,,,,,,,,,,355,2023-11-21_09h50.20.582,leap3,2022.2.5,59.96788815911237,
,,,,,,,,,,,,,,,,,,,,11,0,11,0,6,0,6,0,,,,,,season,w,g,upper,,,,,,,3,w,LoDemNoTar,g,1,0.8331950596766546,,,,,,,,,,,,,,,,,,355,2023-11-21_09h50.20.582,leap3,2022.2.5,59.96788815911237,
,,,,,,,,,,,,,,,,,,,,11,0,11,0,7,0,7,0,,,,,,country,w,g,upper,,,,,,,3,w,LoDemNoTar,g,1,0.7977963595185429,,,,,,,,,,,,,,,,,,355,2023-11-21_09h50.20.582,leap3,2022.2.5,59.96788815911237,
,,,,,,,,,,,,,,,,,,,,11,0,11,0,8,0,8,0,,,,,,comment,w,g,upper,,,,,,,3,w,LoDemNoTar,g,1,1.9644345515407622,,,,,,,,,,,,,,,,,,355,2023-11-21_09h50.20.582,leap3,2022.2.5,59.96788815911237,
,,,,,,,,,,,,,,,,,,,,11,0,11,0,9,0,9,0,,,,,,permute,w,g,upper,,,,,,,3,w,LoDemNoTar,h,0,1.3324917462887242,,,,,,,,,,,,,,,,,,355,2023-11-21_09h50.20.582,leap3,2022.2.5,59.96788815911237,
,,,,,,,,,,,,,,,,,,,,11,0,11,0,10,0,10,0,,,,,,roodies,nw,h,upper,,,,,,,3,nw,LoDemNoTar,h,1,0.781851670704782,,,,,,,,,,,,,,,,,,355,2023-11-21_09h50.20.582,leap3,2022.2.5,59.96788815911237,
,,,,,,,,,,,,,,,,,,,,11,0,11,0,11,0,11,0,,,,,,rarren,nw,h,upper,,,,,,,3,nw,LoDemNoTar,h,1,0.8291900973999873,,,,,,,,,,,,,,,,,,355,2023-11-21_09h50.20.582,leap3,2022.2.5,59.96788815911237,
,,,,,,,,,,,,,,,,,,,,11,0,11,0,12,0,12,0,,,,,,intended,w,g,upper,,,,,,,3,w,LoDemNoTar,g,1,1.114528276375495,,,,,,,,,,,,,,,,,,355,2023-11-21_09h50.20.582,leap3,2022.2.5,59.96788815911237,
,,,,,,,,,,,,,,,,,,,,11,0,11,0,13,0,13,0,,,,,,heaviest,w,g,upper,,,,,,,3,w,LoDemNoTar,g,1,0.9565764578292146,,,,,,,,,,,,,,,,,,355,2023-11-21_09h50.20.582,leap3,2022.2.5,59.96788815911237,
,,,,,,,,,,,,,,,,,,,,11,0,11,0,14,0,14,0,,,,,,regiment,w,g,upper,,,,,,,3,w,LoDemNoTar,g,1,0.5725320132914931,,,,,,,,,,,,,,,,,,355,2023-11-21_09h50.20.582,leap3,2022.2.5,59.96788815911237,
,,,,,,,,,,,,,,,,,,,,11,0,11,0,15,0,15,0,,,,,,scack,nw,h,upper,,,,,,,3,nw,LoDemNoTar,h,1,1.0987743575824425,,,,,,,,,,,,,,,,,,355,2023-11-21_09h50.20.582,leap3,2022.2.5,59.96788815911237,
,,,,,,,,,,,,,,,,,,,,11,0,11,0,16,0,16,0,,,,,,sequence,w,g,upper,,,,,,,3,w,LoDemNoTar,g,1,0.7175827091559768,,,,,,,,,,,,,,,,,,355,2023-11-21_09h50.20.582,leap3,2022.2.5,59.96788815911237,
,,,,,,,,,,,,,,,,,,,,11,0,11,0,17,0,17,0,,,,,,listless,w,g,upper,,,,,,,3,w,LoDemNoTar,g,1,0.6875379446428269,,,,,,,,,,,,,,,,,,355,2023-11-21_09h50.20.582,leap3,2022.2.5,59.96788815911237,
,,,,,,,,,,,,,,,,,,,,11,0,11,0,18,0,18,0,,,,,,intrude,w,g,upper,,,,,,,3,w,LoDemNoTar,g,1,0.7941647871630266,,,,,,,,,,,,,,,,,,355,2023-11-21_09h50.20.582,leap3,2022.2.5,59.96788815911237,
,,,,,,,,,,,,,,,,,,,,11,0,11,0,19,0,19,0,,,,,,humanize,w,g,upper,,,,,,,3,w,LoDemNoTar,g,1,0.600659116753377,,,,,,,,,,,,,,,,,,355,2023-11-21_09h50.20.582,leap3,2022.2.5,59.96788815911237,
,,,,,,,,,,,,,,,,,,,,11,0,11,0,20,0,20,0,,,,,,frader,nw,h,upper,,,,,,,3,nw,LoDemNoTar,h,1,0.7592656507622451,,,,,,,,,,,,,,,,,,355,2023-11-21_09h50.20.582,leap3,2022.2.5,59.96788815911237,
,,,,,,,,,,,,,,,,,,,,11,0,11,0,21,0,21,0,,,,,,praiged,nw,h,upper,,,,,,,3,nw,LoDemNoTar,h,1,2.055105536710471,,,,,,,,,,,,,,,,,,355,2023-11-21_09h50.20.582,leap3,2022.2.5,59.96788815911237,
,,,,,,,,,,,,,,,,,,,,11,0,11,0,22,0,22,0,,,,,,aicline,nw,h,upper,,,,,,,3,nw,LoDemNoTar,h,1,1.9780528728151694,,,,,,,,,,,,,,,,,,355,2023-11-21_09h50.20.582,leap3,2022.2.5,59.96788815911237,
,,,,,,,,,,,,,,,,,,,,11,0,11,0,23,0,23,0,,,,,,refebs,nw,h,upper,,,,,,,3,nw,LoDemNoTar,h,1,0.7053670908790082,,,,,,,,,,,,,,,,,,355,2023-11-21_09h50.20.582,leap3,2022.2.5,59.96788815911237,
,,,,,,,,,,,,,,,,,,,,11,0,11,0,24,0,24,0,,,,,,galashes,nw,h,upper,,,,,,,3,nw,LoDemNoTar,h,1,0.7221530390670523,,,,,,,,,,,,,,,,,,355,2023-11-21_09h50.20.582,leap3,2022.2.5,59.96788815911237,
,,,,,,,,,,,,,,,,,,,,11,0,11,0,25,0,25,0,,,,,,cemoir,nw,h,upper,,,,,,,3,nw,LoDemNoTar,h,1,0.9955351918470114,,,,,,,,,,,,,,,,,,355,2023-11-21_09h50.20.582,leap3,2022.2.5,59.96788815911237,
,,,,,,,,,,,,,,,,,,,,11,0,11,0,26,0,26,0,,,,,,guffy,nw,h,upper,,,,,,,3,nw,LoDemNoTar,h,1,0.5309849048499018,,,,,,,,,,,,,,,,,,355,2023-11-21_09h50.20.582,leap3,2022.2.5,59.96788815911237,
,,,,,,,,,,,,,,,,,,,,11,0,11,0,27,0,27,0,,,,,,unamufed,nw,h,upper,,,,,,,3,nw,LoDemNoTar,h,1,0.8209803469944745,,,,,,,,,,,,,,,,,,355,2023-11-21_09h50.20.582,leap3,2022.2.5,59.96788815911237,
,,,,,,,,,,,,,,,,,,,,11,0,11,0,28,0,28,0,,,,,,managed,w,g,upper,,,,,,,3,w,LoDemNoTar,g,1,1.7621809301199391,,,,,,,,,,,,,,,,,,355,2023-11-21_09h50.20.582,leap3,2022.2.5,59.96788815911237,
,,,,,,,,,,,,,,,,,,,,11,0,11,0,29,0,29,0,,,,,,halents,nw,h,upper,,,,,,,3,nw,LoDemNoTar,h,1,0.8902407208224759,,,,,,,,,,,,,,,,,,355,2023-11-21_09h50.20.582,leap3,2022.2.5,59.96788815911237,
,,,,,,,,,,,,,,,,,,,,11,0,11,0,,,,,,,,,,,,,,,,,,,,,,,,,,,NA,,,,,,,,,,,,,,,,355,2023-11-21_09h50.20.582,leap3,2022.2.5,59.96788815911237,
,,,,,,,,,,,,,,,,,,,,12,0,12,0,0,0,0,0,,,,,,imotope,nw,h,lower,,,,,,,2,nw,HiDemNoTar,h,1,1.516793670016341,,,,,,,,,,,,,,,,,,355,2023-11-21_09h50.20.582,leap3,2022.2.5,59.96788815911237,
,,,,,,,,,,,,,,,,,,,,12,0,12,0,1,0,1,0,,,,,,sheerio,nw,h,lower,,,,,,,2,nw,HiDemNoTar,h,1,0.8547572003444657,,,,,,,,,,,,,,,,,,355,2023-11-21_09h50.20.582,leap3,2022.2.5,59.96788815911237,
,,,,,,,,,,,,,,,,,,,,12,0,12,0,2,0,2,0,,,,,,prohibit,w,g,lower,,,,,,,2,w,HiDemNoTar,g,1,1.9068467656616122,,,,,,,,,,,,,,,,,,355,2023-11-21_09h50.20.582,leap3,2022.2.5,59.96788815911237,
,,,,,,,,,,,,,,,,,,,,12,0,12,0,3,0,3,0,,,,,,century,w,g,lower,,,,,,,2,w,HiDemNoTar,g,1,0.7648849136894569,,,,,,,,,,,,,,,,,,355,2023-11-21_09h50.20.582,leap3,2022.2.5,59.96788815911237,
,,,,,,,,,,,,,,,,,,,,12,0,12,0,4,0,4,0,,,,,,peahem,nw,h,lower,,,,,,,2,nw,HiDemNoTar,h,1,1.71595331619028,,,,,,,,,,,,,,,,,,355,2023-11-21_09h50.20.582,leap3,2022.2.5,59.96788815911237,
,,,,,,,,,,,,,,,,,,,,12,0,12,0,5,0,5,0,,,,,,knowledge,w,g,lower,,,,,,,2,w,HiDemNoTar,g,1,1.0780226875795051,,,,,,,,,,,,,,,,,,355,2023-11-21_09h50.20.582,leap3,2022.2.5,59.96788815911237,
,,,,,,,,,,,,,,,,,,,,12,0,12,0,6,0,6,0,,,,,,company,w,g,lower,,,,,,,2,w,HiDemNoTar,g,1,0.6173234189627692,,,,,,,,,,,,,,,,,,355,2023-11-21_09h50.20.582,leap3,2022.2.5,59.96788815911237,
,,,,,,,,,,,,,,,,,,,,12,0,12,0,7,0,7,0,,,,,,migmarole,nw,h,lower,,,,,,,2,nw,HiDemNoTar,h,1,0.8714384061750025,,,,,,,,,,,,,,,,,,355,2023-11-21_09h50.20.582,leap3,2022.2.5,59.96788815911237,
,,,,,,,,,,,,,,,,,,,,12,0,12,0,8,0,8,0,,,,,,preserve,w,g,lower,,,,,,,2,w,HiDemNoTar,g,1,1.0748441938776523,,,,,,,,,,,,,,,,,,355,2023-11-21_09h50.20.582,leap3,2022.2.5,59.96788815911237,
,,,,,,,,,,,,,,,,,,,,12,0,12,0,9,0,9,0,,,,,,ethical,w,g,lower,,,,,,,2,w,HiDemNoTar,g,1,0.8221578686498106,,,,,,,,,,,,,,,,,,355,2023-11-21_09h50.20.582,leap3,2022.2.5,59.96788815911237,
,,,,,,,,,,,,,,,,,,,,12,0,12,0,10,0,10,0,,,,,,huests,nw,h,lower,,,,,,,2,nw,HiDemNoTar,h,1,0.7795053810114041,,,,,,,,,,,,,,,,,,355,2023-11-21_09h50.20.582,leap3,2022.2.5,59.96788815911237,
,,,,,,,,,,,,,,,,,,,,12,0,12,0,11,0,11,0,,,,,,lovud,nw,h,lower,,,,,,,2,nw,HiDemNoTar,h,1,0.825927990837954,,,,,,,,,,,,,,,,,,355,2023-11-21_09h50.20.582,leap3,2022.2.5,59.96788815911237,
,,,,,,,,,,,,,,,,,,,,12,0,12,0,12,0,12,0,,,,,,tiery,nw,h,lower,,,,,,,2,nw,HiDemNoTar,h,1,1.910042464849539,,,,,,,,,,,,,,,,,,355,2023-11-21_09h50.20.582,leap3,2022.2.5,59.96788815911237,
,,,,,,,,,,,,,,,,,,,,12,0,12,0,13,0,13,0,,,,,,latpin,nw,h,lower,,,,,,,2,nw,HiDemNoTar,h,1,0.7124138084473088,,,,,,,,,,,,,,,,,,355,2023-11-21_09h50.20.582,leap3,2022.2.5,59.96788815911237,
,,,,,,,,,,,,,,,,,,,,12,0,12,0,14,0,14,0,,,,,,practice,w,g,lower,,,,,,,2,w,HiDemNoTar,g,1,0.9311131916474551,,,,,,,,,,,,,,,,,,355,2023-11-21_09h50.20.582,leap3,2022.2.5,59.96788815911237,
,,,,,,,,,,,,,,,,,,,,12,0,12,0,15,0,15,0,,,,,,prominent,w,g,lower,,,,,,,2,w,HiDemNoTar,g,1,0.6846045542042702,,,,,,,,,,,,,,,,,,355,2023-11-21_09h50.20.582,leap3,2022.2.5,59.96788815911237,
,,,,,,,,,,,,,,,,,,,,12,0,12,0,16,0,16,0,,,,,,sequence,w,g,lower,,,,,,,2,w,HiDemNoTar,g,1,0.6478215641109273,,,,,,,,,,,,,,,,,,355,2023-11-21_09h50.20.582,leap3,2022.2.5,59.96788815911237,
,,,,,,,,,,,,,,,,,,,,12,0,12,0,17,0,17,0,,,,,,outlaved,nw,h,lower,,,,,,,2,nw,HiDemNoTar,h,1,0.876688806922175,,,,,,,,,,,,,,,,,,355,2023-11-21_09h50.20.582,leap3,2022.2.5,59.96788815911237,
,,,,,,,,,,,,,,,,,,,,12,0,12,0,18,0,18,0,,,,,,widely,w,g,lower,,,,,,,2,w,HiDemNoTar,g,1,0.8559972053626552,,,,,,,,,,,,,,,,,,355,2023-11-21_09h50.20.582,leap3,2022.2.5,59.96788815911237,
,,,,,,,,,,,,,,,,,,,,12,0,12,0,19,0,19,0,,,,,,eaglot,nw,h,lower,,,,,,,2,nw,HiDemNoTar,h,1,0.8272187067195773,,,,,,,,,,,,,,,,,,355,2023-11-21_09h50.20.582,leap3,2022.2.5,59.96788815911237,
,,,,,,,,,,,,,,,,,,,,12,0,12,0,20,0,20,0,,,,,,bulmed,nw,h,lower,,,,,,,2,nw,HiDemNoTar,h,1,0.8405209896154702,,,,,,,,,,,,,,,,,,355,2023-11-21_09h50.20.582,leap3,2022.2.5,59.96788815911237,
,,,,,,,,,,,,,,,,,,,,12,0,12,0,21,0,21,0,,,,,,planar,w,g,lower,,,,,,,2,w,HiDemNoTar,g,1,0.9172558042919263,,,,,,,,,,,,,,,,,,355,2023-11-21_09h50.20.582,leap3,2022.2.5,59.96788815911237,
,,,,,,,,,,,,,,,,,,,,12,0,12,0,22,0,22,0,,,,,,perform,w,g,lower,,,,,,,2,w,HiDemNoTar,g,1,1.0151715214597061,,,,,,,,,,,,,,,,,,355,2023-11-21_09h50.20.582,leap3,2022.2.5,59.96788815911237,
,,,,,,,,,,,,,,,,,,,,12,0,12,0,23,0,23,0,,,,,,vintnel,nw,h,lower,,,,,,,2,nw,HiDemNoTar,h,1,0.8532681681681424,,,,,,,,,,,,,,,,,,355,2023-11-21_09h50.20.582,leap3,2022.2.5,59.96788815911237,
,,,,,,,,,,,,,,,,,,,,12,0,12,0,24,0,24,0,,,,,,plashed,nw,h,lower,,,,,,,2,nw,HiDemNoTar,h,1,0.8892476301407441,,,,,,,,,,,,,,,,,,355,2023-11-21_09h50.20.582,leap3,2022.2.5,59.96788815911237,
,,,,,,,,,,,,,,,,,,,,12,0,12,0,25,0,25,0,,,,,,statute,w,g,lower,,,,,,,2,w,HiDemNoTar,g,1,0.6599858677946031,,,,,,,,,,,,,,,,,,355,2023-11-21_09h50.20.582,leap3,2022.2.5,59.96788815911237,
,,,,,,,,,,,,,,,,,,,,12,0,12,0,26,0,26,0,,,,,,cartles,nw,h,lower,,,,,,,2,nw,HiDemNoTar,h,1,0.783989381394349,,,,,,,,,,,,,,,,,,355,2023-11-21_09h50.20.582,leap3,2022.2.5,59.96788815911237,
,,,,,,,,,,,,,,,,,,,,12,0,12,0,27,0,27,0,,,,,,forgery,w,g,lower,,,,,,,2,w,HiDemNoTar,g,1,1.094432529178448,,,,,,,,,,,,,,,,,,355,2023-11-21_09h50.20.582,leap3,2022.2.5,59.96788815911237,
,,,,,,,,,,,,,,,,,,,,12,0,12,0,28,0,28,0,,,,,,stretches,w,g,lower,,,,,,,2,w,HiDemNoTar,g,1,0.9372661276720464,,,,,,,,,,,,,,,,,,355,2023-11-21_09h50.20.582,leap3,2022.2.5,59.96788815911237,
,,,,,,,,,,,,,,,,,,,,12,0,12,0,29,0,29,0,,,,,,downtrund,nw,h,lower,,,,,,,2,nw,HiDemNoTar,h,1,2.64185637969058,,,,,,,,,,,,,,,,,,355,2023-11-21_09h50.20.582,leap3,2022.2.5,59.96788815911237,
,,,,,,,,,,,,,,,,,,,,12,0,12,0,,,,,,,,,,,,,,,,,,,,,,,,,,,NA,,,,,,,,,,,,,,,,355,2023-11-21_09h50.20.582,leap3,2022.2.5,59.96788815911237,
,,,,,,,,,,,,,,,,,,,,13,0,13,0,0,0,0,0,,,,,,abraid,nw,h,upper,,,,,,,3,nw,LoDemNoTar,h,1,2.485192862339318,,,,,,,,,,,,,,,,,,355,2023-11-21_09h50.20.582,leap3,2022.2.5,59.96788815911237,
,,,,,,,,,,,,,,,,,,,,13,0,13,0,1,0,1,0,,,,,,rivet,w,g,upper,,,,,,,3,w,LoDemNoTar,h,0,0.6881823970470577,,,,,,,,,,,,,,,,,,355,2023-11-21_09h50.20.582,leap3,2022.2.5,59.96788815911237,
,,,,,,,,,,,,,,,,,,,,13,0,13,0,2,0,2,0,,,,,,planofoad,nw,h,upper,,,,,,,3,nw,LoDemNoTar,h,1,0.747579479473643,,,,,,,,,,,,,,,,,,355,2023-11-21_09h50.20.582,leap3,2022.2.5,59.96788815911237,
,,,,,,,,,,,,,,,,,,,,13,0,13,0,3,0,3,0,,,,,,kiner,nw,h,upper,,,,,,,3,nw,LoDemNoTar,h,1,0.652467054896988,,,,,,,,,,,,,,,,,,355,2023-11-21_09h50.20.582,leap3,2022.2.5,59.96788815911237,
,,,,,,,,,,,,,,,,,,,,13,0,13,0,4,0,4,0,,,,,,markot,nw,h,upper,,,,,,,3,nw,LoDemNoTar,h,1,0.6005582985235378,,,,,,,,,,,,,,,,,,355,2023-11-21_09h50.20.582,leap3,2022.2.5,59.96788815911237,
,,,,,,,,,,,,,,,,,,,,13,0,13,0,5,0,5,0,,,,,,ubefully,nw,h,upper,,,,,,,3,nw,LoDemNoTar,h,1,0.6230788169195876,,,,,,,,,,,,,,,,,,355,2023-11-21_09h50.20.582,leap3,2022.2.5,59.96788815911237,
,,,,,,,,,,,,,,,,,,,,13,0,13,0,6,0,6,0,,,,,,orange,w,g,upper,,,,,,,3,w,LoDemNoTar,g,1,0.8764071797486395,,,,,,,,,,,,,,,,,,355,2023-11-21_09h50.20.582,leap3,2022.2.5,59.96788815911237,
,,,,,,,,,,,,,,,,,,,,13,0,13,0,7,0,7,0,,,,,,talate,nw,h,upper,,,,,,,3,nw,LoDemNoTar,h,1,0.7277698871912435,,,,,,,,,,,,,,,,,,355,2023-11-21_09h50.20.582,leap3,2022.2.5,59.96788815911237,
,,,,,,,,,,,,,,,,,,,,13,0,13,0,8,0,8,0,,,,,,naxis,nw,h,upper,,,,,,,3,nw,LoDemNoTar,h,1,0.5371538390172645,,,,,,,,,,,,,,,,,,355,2023-11-21_09h50.20.582,leap3,2022.2.5,59.96788815911237,
,,,,,,,,,,,,,,,,,,,,13,0,13,0,9,0,9,0,,,,,,delegate,w,g,upper,,,,,,,3,w,LoDemNoTar,h,0,0.4649658097187057,,,,,,,,,,,,,,,,,,355,2023-11-21_09h50.20.582,leap3,2022.2.5,59.96788815911237,
,,,,,,,,,,,,,,,,,,,,13,0,13,0,10,0,10,0,,,,,,donastic,nw,h,upper,,,,,,,3,nw,LoDemNoTar,h,1,0.3809989409055561,,,,,,,,,,,,,,,,,,355,2023-11-21_09h50.20.582,leap3,2022.2.5,59.96788815911237,
,,,,,,,,,,,,,,,,,,,,13,0,13,0,11,0,11,0,,,,,,ameld,nw,h,upper,,,,,,,3,nw,LoDemNoTar,h,1,0.564209068659693,,,,,,,,,,,,,,,,,,355,2023-11-21_09h50.20.582,leap3,2022.2.5,59.96788815911237,
,,,,,,,,,,,,,,,,,,,,13,0,13,0,12,0,12,0,,,,,,ahead,w,g,upper,,,,,,,3,w,LoDemNoTar,g,1,0.644330654409714,,,,,,,,,,,,,,,,,,355,2023-11-21_09h50.20.582,leap3,2022.2.5,59.96788815911237,
,,,,,,,,,,,,,,,,,,,,13,0,13,0,13,0,13,0,,,,,,offonents,nw,h,upper,,,,,,,3,nw,LoDemNoTar,h,1,0.8172298450954258,,,,,,,,,,,,,,,,,,355,2023-11-21_09h50.20.582,leap3,2022.2.5,59.96788815911237,
,,,,,,,,,,,,,,,,,,,,13,0,13,0,14,0,14,0,,,,,,glattery,nw,h,upper,,,,,,,3,nw,LoDemNoTar,h,1,0.5343475278932601,,,,,,,,,,,,,,,,,,355,2023-11-21_09h50.20.582,leap3,2022.2.5,59.96788815911237,
,,,,,,,,,,,,,,,,,,,,13,0,13,0,15,0,15,0,,,,,,phonology,w,g,upper,,,,,,,3,w,LoDemNoTar,g,1,1.2235545343719423,,,,,,,,,,,,,,,,,,355,2023-11-21_09h50.20.582,leap3,2022.2.5,59.96788815911237,
,,,,,,,,,,,,,,,,,,,,13,0,13,0,16,0,16,0,,,,,,balign,nw,h,upper,,,,,,,3,nw,LoDemNoTar,h,1,0.7569398868363351,,,,,,,,,,,,,,,,,,355,2023-11-21_09h50.20.582,leap3,2022.2.5,59.96788815911237,
,,,,,,,,,,,,,,,,,,,,13,0,13,0,17,0,17,0,,,,,,lonnote,nw,h,upper,,,,,,,3,nw,LoDemNoTar,h,1,0.5171918118139729,,,,,,,,,,,,,,,,,,355,2023-11-21_09h50.20.582,leap3,2022.2.5,59.96788815911237,
,,,,,,,,,,,,,,,,,,,,13,0,13,0,18,0,18,0,,,,,,boulder,w,g,upper,,,,,,,3,w,LoDemNoTar,g,1,1.4214298034785315,,,,,,,,,,,,,,,,,,355,2023-11-21_09h50.20.582,leap3,2022.2.5,59.96788815911237,
,,,,,,,,,,,,,,,,,,,,13,0,13,0,19,0,19,0,,,,,,provide,w,g,upper,,,,,,,3,w,LoDemNoTar,g,1,0.5468197197187692,,,,,,,,,,,,,,,,,,355,2023-11-21_09h50.20.582,leap3,2022.2.5,59.96788815911237,
,,,,,,,,,,,,,,,,,,,,13,0,13,0,20,0,20,0,,,,,,anemic,w,g,upper,,,,,,,3,w,LoDemNoTar,g,1,0.8114406398963183,,,,,,,,,,,,,,,,,,355,2023-11-21_09h50.20.582,leap3,2022.2.5,59.96788815911237,
,,,,,,,,,,,,,,,,,,,,13,0,13,0,21,0,21,0,,,,,,footstep,w,g,upper,,,,,,,3,w,LoDemNoTar,g,1,0.5534951603040099,,,,,,,,,,,,,,,,,,355,2023-11-21_09h50.20.582,leap3,2022.2.5,59.96788815911237,
,,,,,,,,,,,,,,,,,,,,13,0,13,0,22,0,22,0,,,,,,slears,nw,h,upper,,,,,,,3,nw,LoDemNoTar,h,1,0.913456100737676,,,,,,,,,,,,,,,,,,355,2023-11-21_09h50.20.582,leap3,2022.2.5,59.96788815911237,
,,,,,,,,,,,,,,,,,,,,13,0,13,0,23,0,23,0,,,,,,number,w,g,upper,,,,,,,3,w,LoDemNoTar,h,0,0.5315071075456217,,,,,,,,,,,,,,,,,,355,2023-11-21_09h50.20.582,leap3,2022.2.5,59.96788815911237,
,,,,,,,,,,,,,,,,,,,,13,0,13,0,24,0,24,0,,,,,,pircus,nw,h,upper,,,,,,,3,nw,LoDemNoTar,h,1,0.9969164631329477,,,,,,,,,,,,,,,,,,355,2023-11-21_09h50.20.582,leap3,2022.2.5,59.96788815911237,
,,,,,,,,,,,,,,,,,,,,13,0,13,0,25,0,25,0,,,,,,caloric,w,g,upper,,,,,,,3,w,LoDemNoTar,g,1,0.8023328819544986,,,,,,,,,,,,,,,,,,355,2023-11-21_09h50.20.582,leap3,2022.2.5,59.96788815911237,
,,,,,,,,,,,,,,,,,,,,13,0,13,0,26,0,26,0,,,,,,colicky,w,g,upper,,,,,,,3,w,LoDemNoTar,h,0,1.20788724697195,,,,,,,,,,,,,,,,,,355,2023-11-21_09h50.20.582,leap3,2022.2.5,59.96788815911237,
,,,,,,,,,,,,,,,,,,,,13,0,13,0,27,0,27,0,,,,,,childhood,w,g,upper,,,,,,,3,w,LoDemNoTar,g,1,0.7828414409887046,,,,,,,,,,,,,,,,,,355,2023-11-21_09h50.20.582,leap3,2022.2.5,59.96788815911237,
,,,,,,,,,,,,,,,,,,,,13,0,13,0,28,0,28,0,,,,,,visible,w,g,upper,,,,,,,3,w,LoDemNoTar,g,1,1.5020621215226129,,,,,,,,,,,,,,,,,,355,2023-11-21_09h50.20.582,leap3,2022.2.5,59.96788815911237,
,,,,,,,,,,,,,,,,,,,,13,0,13,0,29,0,29,0,,,,,,leather,w,g,upper,,,,,,,3,w,LoDemNoTar,g,1,0.9680471073370427,,,,,,,,,,,,,,,,,,355,2023-11-21_09h50.20.582,leap3,2022.2.5,59.96788815911237,
,,,,,,,,,,,,,,,,,,,,13,0,13,0,,,,,,,,,,,,,,,,,,,,,,,,,,,NA,,,,,,,,,,,,,,,,355,2023-11-21_09h50.20.582,leap3,2022.2.5,59.96788815911237,
,,,,,,,,,,,,,,,,,,,,14,0,14,0,0,0,0,0,,,,,,create,w,g,upper,,,,,,,3,w,LoDemNoTar,g,1,1.5746890424052253,,,,,,,,,,,,,,,,,,355,2023-11-21_09h50.20.582,leap3,2022.2.5,59.96788815911237,
,,,,,,,,,,,,,,,,,,,,14,0,14,0,1,0,1,0,,,,,,insole,w,g,upper,,,,,,,3,w,LoDemNoTar,g,1,1.1419891940895468,,,,,,,,,,,,,,,,,,355,2023-11-21_09h50.20.582,leap3,2022.2.5,59.96788815911237,
,,,,,,,,,,,,,,,,,,,,14,0,14,0,2,0,2,0,,,,,,earnest,w,g,upper,,,,,,,3,w,LoDemNoTar,h,0,3.614682824234478,,,,,,,,,,,,,,,,,,355,2023-11-21_09h50.20.582,leap3,2022.2.5,59.96788815911237,
,,,,,,,,,,,,,,,,,,,,14,0,14,0,3,0,3,0,,,,,,nearsipe,nw,h,upper,,,,,,,3,nw,LoDemNoTar,h,1,1.3567681334679946,,,,,,,,,,,,,,,,,,355,2023-11-21_09h50.20.582,leap3,2022.2.5,59.96788815911237,
,,,,,,,,,,,,,,,,,,,,14,0,14,0,4,0,4,0,,,,,,issue,w,g,upper,,,,,,,3,w,LoDemNoTar,g,1,0.8048391529591754,,,,,,,,,,,,,,,,,,355,2023-11-21_09h50.20.582,leap3,2022.2.5,59.96788815911237,
,,,,,,,,,,,,,,,,,,,,14,0,14,0,5,0,5,0,,,,,,uncounted,w,g,upper,,,,,,,3,w,LoDemNoTar,g,1,0.8909044916508719,,,,,,,,,,,,,,,,,,355,2023-11-21_09h50.20.582,leap3,2022.2.5,59.96788815911237,
,,,,,,,,,,,,,,,,,,,,14,0,14,0,6,0,6,0,,,,,,revising,w,g,upper,,,,,,,3,w,LoDemNoTar,g,1,2.8607121219392866,,,,,,,,,,,,,,,,,,355,2023-11-21_09h50.20.582,leap3,2022.2.5,59.96788815911237,
,,,,,,,,,,,,,,,,,,,,14,0,14,0,7,0,7,0,,,,,,cills,nw,h,upper,,,,,,,3,nw,LoDemNoTar,h,1,0.9126643449999392,,,,,,,,,,,,,,,,,,355,2023-11-21_09h50.20.582,leap3,2022.2.5,59.96788815911237,
,,,,,,,,,,,,,,,,,,,,14,0,14,0,8,0,8,0,,,,,,trooper,w,g,upper,,,,,,,3,w,LoDemNoTar,h,0,1.1146807111799717,,,,,,,,,,,,,,,,,,355,2023-11-21_09h50.20.582,leap3,2022.2.5,59.96788815911237,
,,,,,,,,,,,,,,,,,,,,14,0,14,0,9,0,9,0,,,,,,bropic,nw,h,upper,,,,,,,3,nw,LoDemNoTar,h,1,1.516860681003891,,,,,,,,,,,,,,,,,,355,2023-11-21_09h50.20.582,leap3,2022.2.5,59.96788815911237,
,,,,,,,,,,,,,,,,,,,,14,0,14,0,10,0,10,0,,,,,,stuggard,nw,h,upper,,,,,,,3,nw,LoDemNoTar,h,1,1.5178109087282792,,,,,,,,,,,,,,,,,,355,2023-11-21_09h50.20.582,leap3,2022.2.5,59.96788815911237,
,,,,,,,,,,,,,,,,,,,,14,0,14,0,11,0,11,0,,,,,,reloant,nw,h,upper,,,,,,,3,nw,LoDemNoTar,h,1,0.9032511136028916,,,,,,,,,,,,,,,,,,355,2023-11-21_09h50.20.582,leap3,2022.2.5,59.96788815911237,
,,,,,,,,,,,,,,,,,,,,14,0,14,0,12,0,12,0,,,,,,submit,w,g,upper,,,,,,,3,w,LoDemNoTar,g,1,1.44113646436017,,,,,,,,,,,,,,,,,,355,2023-11-21_09h50.20.582,leap3,2022.2.5,59.96788815911237,
,,,,,,,,,,,,,,,,,,,,14,0,14,0,13,0,13,0,,,,,,remade,w,g,upper,,,,,,,3,w,LoDemNoTar,g,1,3.278040496748872,,,,,,,,,,,,,,,,,,355,2023-11-21_09h50.20.582,leap3,2022.2.5,59.96788815911237,
,,,,,,,,,,,,,,,,,,,,14,0,14,0,14,0,14,0,,,,,,surface,w,g,upper,,,,,,,3,w,LoDemNoTar,g,1,0.8013416025787592,,,,,,,,,,,,,,,,,,355,2023-11-21_09h50.20.582,leap3,2022.2.5,59.96788815911237,
,,,,,,,,,,,,,,,,,,,,14,0,14,0,15,0,15,0,,,,,,blocking,w,g,upper,,,,,,,3,w,LoDemNoTar,g,1,0.7434356653830037,,,,,,,,,,,,,,,,,,355,2023-11-21_09h50.20.582,leap3,2022.2.5,59.96788815911237,
,,,,,,,,,,,,,,,,,,,,14,0,14,0,16,0,16,0,,,,,,rualify,nw,h,upper,,,,,,,3,nw,LoDemNoTar,h,1,0.816086130682379,,,,,,,,,,,,,,,,,,355,2023-11-21_09h50.20.582,leap3,2022.2.5,59.96788815911237,
,,,,,,,,,,,,,,,,,,,,14,0,14,0,17,0,17,0,,,,,,bellicove,nw,h,upper,,,,,,,3,nw,LoDemNoTar,h,1,0.7341513244900852,,,,,,,,,,,,,,,,,,355,2023-11-21_09h50.20.582,leap3,2022.2.5,59.96788815911237,
,,,,,,,,,,,,,,,,,,,,14,0,14,0,18,0,18,0,,,,,,ignoble,w,g,upper,,,,,,,3,w,LoDemNoTar,h,0,0.678860324784182,,,,,,,,,,,,,,,,,,355,2023-11-21_09h50.20.582,leap3,2022.2.5,59.96788815911237,
,,,,,,,,,,,,,,,,,,,,14,0,14,0,19,0,19,0,,,,,,plapping,nw,h,upper,,,,,,,3,nw,LoDemNoTar,h,1,0.9934204218443483,,,,,,,,,,,,,,,,,,355,2023-11-21_09h50.20.582,leap3,2022.2.5,59.96788815911237,
,,,,,,,,,,,,,,,,,,,,14,0,14,0,20,0,20,0,,,,,,peanimate,nw,h,upper,,,,,,,3,nw,LoDemNoTar,h,1,0.7359594134613872,,,,,,,,,,,,,,,,,,355,2023-11-21_09h50.20.582,leap3,2022.2.5,59.96788815911237,
,,,,,,,,,,,,,,,,,,,,14,0,14,0,21,0,21,0,,,,,,frigs,nw,h,upper,,,,,,,3,nw,LoDemNoTar,h,1,0.7045662794262171,,,,,,,,,,,,,,,,,,355,2023-11-21_09h50.20.582,leap3,2022.2.5,59.96788815911237,
,,,,,,,,,,,,,,,,,,,,14,0,14,0,22,0,22,0,,,,,,frunted,nw,h,upper,,,,,,,3,nw,LoDemNoTar,h,1,0.6506526269949973,,,,,,,,,,,,,,,,,,355,2023-11-21_09h50.20.582,leap3,2022.2.5,59.96788815911237,
,,,,,,,,,,,,,,,,,,,,14,0,14,0,23,0,23,0,,,,,,confined,w,g,upper,,,,,,,3,w,LoDemNoTar,g,1,0.8466721144504845,,,,,,,,,,,,,,,,,,355,2023-11-21_09h50.20.582,leap3,2022.2.5,59.96788815911237,
,,,,,,,,,,,,,,,,,,,,14,0,14,0,24,0,24,0,,,,,,elbalm,nw,h,upper,,,,,,,3,nw,LoDemNoTar,h,1,0.7794555755099282,,,,,,,,,,,,,,,,,,355,2023-11-21_09h50.20.582,leap3,2022.2.5,59.96788815911237,
,,,,,,,,,,,,,,,,,,,,14,0,14,0,25,0,25,0,,,,,,frequency,w,g,upper,,,,,,,3,w,LoDemNoTar,g,1,1.5388212653342634,,,,,,,,,,,,,,,,,,355,2023-11-21_09h50.20.582,leap3,2022.2.5,59.96788815911237,
,,,,,,,,,,,,,,,,,,,,14,0,14,0,26,0,26,0,,,,,,afford,w,g,upper,,,,,,,3,w,LoDemNoTar,g,1,0.875501625938341,,,,,,,,,,,,,,,,,,355,2023-11-21_09h50.20.582,leap3,2022.2.5,59.96788815911237,
,,,,,,,,,,,,,,,,,,,,14,0,14,0,27,0,27,0,,,,,,blerapies,nw,h,upper,,,,,,,3,nw,LoDemNoTar,h,1,0.8540264184121042,,,,,,,,,,,,,,,,,,355,2023-11-21_09h50.20.582,leap3,2022.2.5,59.96788815911237,
,,,,,,,,,,,,,,,,,,,,14,0,14,0,28,0,28,0,,,,,,gablus,nw,h,upper,,,,,,,3,nw,LoDemNoTar,h,1,0.9859278700314462,,,,,,,,,,,,,,,,,,355,2023-11-21_09h50.20.582,leap3,2022.2.5,59.96788815911237,
,,,,,,,,,,,,,,,,,,,,14,0,14,0,29,0,29,0,,,,,,peadgear,nw,h,upper,,,,,,,3,nw,LoDemNoTar,h,1,0.9286534057464451,,,,,,,,,,,,,,,,,,355,2023-11-21_09h50.20.582,leap3,2022.2.5,59.96788815911237,
,,,,,,,,,,,,,,,,,,,,14,0,14,0,,,,,,,,,,,,,,,,,,,,,,,,,,,NA,,,,,,,,,,,,,,,,355,2023-11-21_09h50.20.582,leap3,2022.2.5,59.96788815911237,
,,,,,,,,,,,,,,,,,,,,15,0,15,0,0,0,0,0,,,,,,command,w,g,lower,,,,,,,1,w,HiDemTar,g,1,0.7863676673732698,,,,,,,,,,,,,,,,,,355,2023-11-21_09h50.20.582,leap3,2022.2.5,59.96788815911237,
,,,,,,,,,,,,,,,,,,,,15,0,15,0,1,0,1,0,,,,,,trecious,nw,h,lower,,,,,,,1,nw,HiDemTar,g,0,0.6095776139991358,,,,,,,,,,,,,,,,,,355,2023-11-21_09h50.20.582,leap3,2022.2.5,59.96788815911237,
,,,,,,,,,,,,,,,,,,,,15,0,15,0,2,0,2,0,,,,,,olerates,nw,h,lower,,,,,,,1,nw,HiDemTar,h,1,0.8546732856193557,,,,,,,,,,,,,,,,,,355,2023-11-21_09h50.20.582,leap3,2022.2.5,59.96788815911237,
,,,,,,,,,,,,,,,,,,,,15,0,15,0,3,0,3,0,,,,,,outfit,w,g,lower,,,,,,,1,w,HiDemTar,g,1,0.738599102711305,,,,,,,,,,,,,,,,,,355,2023-11-21_09h50.20.582,leap3,2022.2.5,59.96788815911237,
,,,,,,,,,,,,,,,,,,,,15,0,15,0,4,0,4,0,,,,,,distrust,w,g,lower,,,,,,,1,w,HiDemTar,g,1,0.8112863940186799,,,,,,,,,,,,,,,,,,355,2023-11-21_09h50.20.582,leap3,2022.2.5,59.96788815911237,
,,,,,,,,,,,,,,,,,,,,15,0,15,0,5,0,5,0,,,,,,ascending,w,g,lower,,,,,,,1,w,HiDemTar,g,1,0.6649673191132024,,,,,,,,,,,,,,,,,,355,2023-11-21_09h50.20.582,leap3,2022.2.5,59.96788815911237,
,,,,,,,,,,,,,,,,,,,,15,0,15,0,6,0,6,0,,,,,,drobate,nw,h,lower,,,,,,,1,nw,HiDemTar,h,1,0.9493398759514093,,,,,,,,,,,,,,,,,,355,2023-11-21_09h50.20.582,leap3,2022.2.5,59.96788815911237,
,,,,,,,,,,,,,,,,,,,,15,0,15,0,7,0,7,0,,,,,,trocess,nw,h,lower,,,,,,,1,nw,HiDemTar,h,1,1.1341021227417514,,,,,,,,,,,,,,,,,,355,2023-11-21_09h50.20.582,leap3,2022.2.5,59.96788815911237,
,,,,,,,,,,,,,,,,,,,,15,0,15,0,8,0,8,0,,,,,,trake,nw,h,lower,,,,,,,1,nw,HiDemTar,h,1,0.6547638411866501,,,,,,,,,,,,,,,,,,355,2023-11-21_09h50.20.582,leap3,2022.2.5,59.96788815911237,
,,,,,,,,,,,,,,,,,,,,15,0,15,0,9,0,9,0,,,,,,sodent,nw,h,lower,,,,,,,1,nw,HiDemTar,h,1,1.074813103186898,,,,,,,,,,,,,,,,,,355,2023-11-21_09h50.20.582,leap3,2022.2.5,59.96788815911237,
,,,,,,,,,,,,,,,,,,,,15,0,15,0,10,0,10,0,,,,,,potatoes,w,g,lower,,,,,,,1,w,HiDemTar,g,1,1.3813349014380947,,,,,,,,,,,,,,,,,,355,2023-11-21_09h50.20.582,leap3,2022.2.5,59.96788815911237,
,,,,,,,,,,,,,,,,,,,,15,0,15,0,11,0,11,0,,,,,,addition,w,g,lower,,,,,,,1,w,HiDemTar,g,1,1.3966106878360733,,,,,,,,,,,,,,,,,,355,2023-11-21_09h50.20.582,leap3,2022.2.5,59.96788815911237,
,,,,,,,,,,,,,,,,,,,,15,0,15,0,12,0,12,0,,,,,,mandate,w,g,lower,,,,,,,1,w,HiDemTar,g,1,0.9313057727413252,,,,,,,,,,,,,,,,,,355,2023-11-21_09h50.20.582,leap3,2022.2.5,59.96788815911237,
,,,,,,,,,,,,,,,,,,,,15,0,15,0,13,0,13,0,,,,,,hindsight,w,g,lower,,,,,,,1,w,HiDemTar,g,1,1.364721612073481,,,,,,,,,,,,,,,,,,355,2023-11-21_09h50.20.582,leap3,2022.2.5,59.96788815911237,
,,,,,,,,,,,,,,,,,,,,15,0,15,0,14,0,14,0,,,,,,arrigns,nw,h,lower,,,,,,,1,nw,HiDemTar,h,1,0.724747450556606,,,,,,,,,,,,,,,,,,355,2023-11-21_09h50.20.582,leap3,2022.2.5,59.96788815911237,
,,,,,,,,,,,,,,,,,,,,15,0,15,0,15,0,15,0,,,,,,micron,w,g,lower,,,,,,,1,w,HiDemTar,h,0,0.598093984881416,,,,,,,,,,,,,,,,,,355,2023-11-21_09h50.20.582,leap3,2022.2.5,59.96788815911237,
,,,,,,,,,,,,,,,,,,,,15,0,15,0,16,0,16,0,,,,,,tusied,nw,h,lower,,,,,,,1,nw,HiDemTar,h,1,0.532808086485602,,,,,,,,,,,,,,,,,,355,2023-11-21_09h50.20.582,leap3,2022.2.5,59.96788815911237,
,,,,,,,,,,,,,,,,,,,,15,0,15,0,17,0,17,0,,,,,,shazer,nw,h,lower,,,,,,,1,nw,HiDemTar,h,1,0.6061721281148493,,,,,,,,,,,,,,,,,,355,2023-11-21_09h50.20.582,leap3,2022.2.5,59.96788815911237,
,,,,,,,,,,,,,,,,,,,,15,0,15,0,18,0,18,0,,,,,,dumult,nw,h,lower,,,,,,,1,nw,HiDemTar,h,1,0.6193346538348123,,,,,,,,,,,,,,,,,,355,2023-11-21_09h50.20.582,leap3,2022.2.5,59.96788815911237,
,,,,,,,,,,,,,,,,,,,,15,0,15,0,19,0,19,0,,,,,,design,w,g,lower,,,,,,,1,w,HiDemTar,g,1,0.6486380718415603,,,,,,,,,,,,,,,,,,355,2023-11-21_09h50.20.582,leap3,2022.2.5,59.96788815911237,
,,,,,,,,,,,,,,,,,,,,15,0,15,0,20,0,20,0,,,,,,gelented,nw,h,lower,,,,,,,1,nw,HiDemTar,h,1,0.7093340199207887,,,,,,,,,,,,,,,,,,355,2023-11-21_09h50.20.582,leap3,2022.2.5,59.96788815911237,
,,,,,,,,,,,,,,,,,,,,15,0,15,0,21,0,21,0,,,,,,parody,w,g,lower,,,,,,,1,w,HiDemTar,g,1,0.7593709968496114,,,,,,,,,,,,,,,,,,355,2023-11-21_09h50.20.582,leap3,2022.2.5,59.96788815911237,
,,,,,,,,,,,,,,,,,,,,15,0,15,0,22,0,22,0,,,,,,crocodile,target,q,lower,,,,,,,1,target,HiDemTar,q,1,1.5423477935837582,1,,,,,,,,,,,,,,,,,355,2023-11-21_09h50.20.582,leap3,2022.2.5,59.96788815911237,
,,,,,,,,,,,,,,,,,,,,15,0,15,0,23,0,23,0,,,,,,contund,nw,h,lower,,,,,,,1,aftertar1,HiDemTar,h,1,1.3433466192800552,,,,,,,,,,,,,,,,,,355,2023-11-21_09h50.20.582,leap3,2022.2.5,59.96788815911237,
,,,,,,,,,,,,,,,,,,,,15,0,15,0,24,0,24,0,,,,,,budget,w,g,lower,,,,,,,1,aftertar2,HiDemTar,g,1,0.7929685505805537,,,,,,,,,,,,,,,,,,355,2023-11-21_09h50.20.582,leap3,2022.2.5,59.96788815911237,
,,,,,,,,,,,,,,,,,,,,15,0,15,0,25,0,25,0,,,,,,located,w,g,lower,,,,,,,1,aftertar3,HiDemTar,g,1,0.8395131083671004,,,,,,,,,,,,,,,,,,355,2023-11-21_09h50.20.582,leap3,2022.2.5,59.96788815911237,
,,,,,,,,,,,,,,,,,,,,15,0,15,0,26,0,26,0,,,,,,rational,w,g,lower,,,,,,,1,w,HiDemTar,g,1,0.6273418620694429,,,,,,,,,,,,,,,,,,355,2023-11-21_09h50.20.582,leap3,2022.2.5,59.96788815911237,
,,,,,,,,,,,,,,,,,,,,15,0,15,0,27,0,27,0,,,,,,temelity,nw,h,lower,,,,,,,1,w,HiDemTar,h,1,1.0966532487655059,,,,,,,,,,,,,,,,,,355,2023-11-21_09h50.20.582,leap3,2022.2.5,59.96788815911237,
,,,,,,,,,,,,,,,,,,,,15,0,15,0,28,0,28,0,,,,,,egpended,nw,h,lower,,,,,,,1,nw,HiDemTar,h,1,0.8993032010039315,,,,,,,,,,,,,,,,,,355,2023-11-21_09h50.20.582,leap3,2022.2.5,59.96788815911237,
,,,,,,,,,,,,,,,,,,,,15,0,15,0,29,0,29,0,,,,,,tipoff,w,g,lower,,,,,,,1,nw,HiDemTar,h,0,0.6700221201172099,,,,,,,,,,,,,,,,,,355,2023-11-21_09h50.20.582,leap3,2022.2.5,59.96788815911237,
,,,,,,,,,,,,,,,,,,,,15,0,15,0,,,,,,,,,,,,,,,,,,,,,,,,,,,1,,,,,,,,,,,,,,,,355,2023-11-21_09h50.20.582,leap3,2022.2.5,59.96788815911237,
,,,,,,,,,,,,,,,,,,,,16,0,16,0,0,0,0,0,,,,,,nameplate,w,g,lower,,,,,,,1,w,HiDemTar,g,1,3.049329311121255,,,,,,,,,,,,,,,,,,355,2023-11-21_09h50.20.582,leap3,2022.2.5,59.96788815911237,
,,,,,,,,,,,,,,,,,,,,16,0,16,0,1,0,1,0,,,,,,draze,nw,h,lower,,,,,,,1,nw,HiDemTar,h,1,1.0619820101419464,,,,,,,,,,,,,,,,,,355,2023-11-21_09h50.20.582,leap3,2022.2.5,59.96788815911237,
,,,,,,,,,,,,,,,,,,,,16,0,16,0,2,0,2,0,,,,,,achieve,w,g,lower,,,,,,,1,w,HiDemTar,g,1,0.5539618222974241,,,,,,,,,,,,,,,,,,355,2023-11-21_09h50.20.582,leap3,2022.2.5,59.96788815911237,
,,,,,,,,,,,,,,,,,,,,16,0,16,0,3,0,3,0,,,,,,snays,nw,h,lower,,,,,,,1,nw,HiDemTar,g,0,0.7780471375444904,,,,,,,,,,,,,,,,,,355,2023-11-21_09h50.20.582,leap3,2022.2.5,59.96788815911237,
,,,,,,,,,,,,,,,,,,,,16,0,16,0,4,0,4,0,,,,,,scatter,w,g,lower,,,,,,,1,w,HiDemTar,g,1,0.8094330271705985,,,,,,,,,,,,,,,,,,355,2023-11-21_09h50.20.582,leap3,2022.2.5,59.96788815911237,
,,,,,,,,,,,,,,,,,,,,16,0,16,0,5,0,5,0,,,,,,etber,nw,h,lower,,,,,,,1,nw,HiDemTar,h,1,0.8634725515730679,,,,,,,,,,,,,,,,,,355,2023-11-21_09h50.20.582,leap3,2022.2.5,59.96788815911237,
,,,,,,,,,,,,,,,,,,,,16,0,16,0,6,0,6,0,,,,,,brudent,nw,h,lower,,,,,,,1,nw,HiDemTar,h,1,0.811508254497312,,,,,,,,,,,,,,,,,,355,2023-11-21_09h50.20.582,leap3,2022.2.5,59.96788815911237,
,,,,,,,,,,,,,,,,,,,,16,0,16,0,7,0,7,0,,,,,,actual,w,g,lower,,,,,,,1,w,HiDemTar,g,1,0.8254927214002237,,,,,,,,,,,,,,,,,,355,2023-11-21_09h50.20.582,leap3,2022.2.5,59.96788815911237,
,,,,,,,,,,,,,,,,,,,,16,0,16,0,8,0,8,0,,,,,,louches,nw,h,lower,,,,,,,1,nw,HiDemTar,h,1,0.6540396999334916,,,,,,,,,,,,,,,,,,355,2023-11-21_09h50.20.582,leap3,2022.2.5,59.96788815911237,
,,,,,,,,,,,,,,,,,,,,16,0,16,0,9,0,9,0,,,,,,ifkling,nw,h,lower,,,,,,,1,nw,HiDemTar,h,1,0.7539778205100447,,,,,,,,,,,,,,,,,,355,2023-11-21_09h50.20.582,leap3,2022.2.5,59.96788815911237,
,,,,,,,,,,,,,,,,,,,,16,0,16,0,10,0,10,0,,,,,,party,w,g,lower,,,,,,,1,w,HiDemTar,g,1,0.9525862862356007,,,,,,,,,,,,,,,,,,355,2023-11-21_09h50.20.582,leap3,2022.2.5,59.96788815911237,
