demoRace_loop.thisRepN,demoRace_loop.thisTrialN,demoRace_loop.thisN,demoRace_loop.thisIndex,LDTunderstand.thisRepN,LDTunderstand.thisTrialN,LDTunderstand.thisN,LDTunderstand.thisIndex,pracBlocks.thisRepN,pracBlocks.thisTrialN,pracBlocks.thisN,pracBlocks.thisIndex,pracTrial.thisRepN,pracTrial.thisTrialN,pracTrial.thisN,pracTrial.thisIndex,PMunderstand.thisRepN,PMunderstand.thisTrialN,PMunderstand.thisN,PMunderstand.thisIndex,LDT_block.thisRepN,LDT_block.thisTrialN,LDT_block.thisN,LDT_block.thisIndex,LDT_trial.thisRepN,LDT_trial.thisTrialN,LDT_trial.thisN,LDT_trial.thisIndex,ageTextbox.text,genderTextbox.text,race,raceResp,LDTunderstand,stim,word_type,corr_key,stim_location,LDTpracKey.keys,LDTpracKey.corr,LDTpracKey.rt,PMunderstand,cueTextbox.text,intentionTextbox.text,block_type,role,block_desc,lateQResp.keys,LDTResp.keys,LDTResp.corr,LDTResp.rt,blankQResp.keys,pressedQ,PM_corr,lateQResp.rt,blankQResp.rt,postQ1,Q2Textbox.text,Q3Textbox.text,Q4,Q5,Q6Key.keys,Q6Key.rt,postQ7_correct,postQ7,Q8Textbox.text,education,medTextbox.text,health,healthLimit,psych,participant,date,expName,psychopyVersion,frameRate,
0,0,0,0,,,,,,,,,,,,,,,,,,,,,,,,,"
18
", female,American Indian or Alaska Native,n,,,,,,,,,,,,,,,,,,,,,,,,,,,,,,,,,,,,,,,375,2023-11-09_09h44.39.653,leap3,2022.2.5,59.993082598239035,
1,0,1,0,,,,,,,,,,,,,,,,,,,,,,,,,,,Asian,n,,,,,,,,,,,,,,,,,,,,,,,,,,,,,,,,,,,,,,,375,2023-11-09_09h44.39.653,leap3,2022.2.5,59.993082598239035,
2,0,2,0,,,,,,,,,,,,,,,,,,,,,,,,,,,Black or African American,n,,,,,,,,,,,,,,,,,,,,,,,,,,,,,,,,,,,,,,,375,2023-11-09_09h44.39.653,leap3,2022.2.5,59.993082598239035,
3,0,3,0,,,,,,,,,,,,,,,,,,,,,,,,,,,Native Hawaiian or other Pacific Islander,n,,,,,,,,,,,,,,,,,,,,,,,,,,,,,,,,,,,,,,,375,2023-11-09_09h44.39.653,leap3,2022.2.5,59.993082598239035,
4,0,4,0,,,,,,,,,,,,,,,,,,,,,,,,,,,White,y,,,,,,,,,,,,,,,,,,,,,,,,,,,,,,,,,,,,,,,375,2023-11-09_09h44.39.653,leap3,2022.2.5,59.993082598239035,
,,,,0,0,0,0,,,,,,,,,,,,,,,,,,,,,,,,,y,,,,,,,,,,,,,,,,,,,,,,,,,,,,,,,,,,,,,,375,2023-11-09_09h44.39.653,leap3,2022.2.5,59.993082598239035,
,,,,,,,,0,0,0,0,0,0,0,0,,,,,,,,,,,,,,,,,,tricycle,w,g,lower,g,1,0.4204095993191004,,,,,,,,,,,,,,,,,,,,,,,,,,,,,,,375,2023-11-09_09h44.39.653,leap3,2022.2.5,59.993082598239035,
,,,,,,,,0,0,0,0,1,0,1,0,,,,,,,,,,,,,,,,,,summary,w,g,lower,h,0,0.5355118280276656,,,,,,,,,,,,,,,,,,,,,,,,,,,,,,,375,2023-11-09_09h44.39.653,leap3,2022.2.5,59.993082598239035,
,,,,,,,,0,0,0,0,2,0,2,0,,,,,,,,,,,,,,,,,,curlecs,nw,h,lower,h,1,0.6334409359842539,,,,,,,,,,,,,,,,,,,,,,,,,,,,,,,375,2023-11-09_09h44.39.653,leap3,2022.2.5,59.993082598239035,
,,,,,,,,0,0,0,0,3,0,3,0,,,,,,,,,,,,,,,,,,turative,nw,h,lower,g,0,0.7505763862282038,,,,,,,,,,,,,,,,,,,,,,,,,,,,,,,375,2023-11-09_09h44.39.653,leap3,2022.2.5,59.993082598239035,
,,,,,,,,0,0,0,0,4,0,4,0,,,,,,,,,,,,,,,,,,sponsor,w,g,lower,g,1,0.6605761209502816,,,,,,,,,,,,,,,,,,,,,,,,,,,,,,,375,2023-11-09_09h44.39.653,leap3,2022.2.5,59.993082598239035,
,,,,,,,,0,0,0,0,5,0,5,0,,,,,,,,,,,,,,,,,,raestro,nw,h,lower,h,1,0.6824465403333306,,,,,,,,,,,,,,,,,,,,,,,,,,,,,,,375,2023-11-09_09h44.39.653,leap3,2022.2.5,59.993082598239035,
,,,,,,,,0,0,0,0,6,0,6,0,,,,,,,,,,,,,,,,,,latador,nw,h,lower,g,0,0.5816659107804298,,,,,,,,,,,,,,,,,,,,,,,,,,,,,,,375,2023-11-09_09h44.39.653,leap3,2022.2.5,59.993082598239035,
,,,,,,,,0,0,0,0,7,0,7,0,,,,,,,,,,,,,,,,,,hasking,nw,h,lower,g,0,0.7323757875710726,,,,,,,,,,,,,,,,,,,,,,,,,,,,,,,375,2023-11-09_09h44.39.653,leap3,2022.2.5,59.993082598239035,
,,,,,,,,0,0,0,0,8,0,8,0,,,,,,,,,,,,,,,,,,overshoot,w,g,lower,g,1,0.574393579736352,,,,,,,,,,,,,,,,,,,,,,,,,,,,,,,375,2023-11-09_09h44.39.653,leap3,2022.2.5,59.993082598239035,
,,,,,,,,0,0,0,0,9,0,9,0,,,,,,,,,,,,,,,,,,unscrew,w,g,lower,g,1,0.6847453853115439,,,,,,,,,,,,,,,,,,,,,,,,,,,,,,,375,2023-11-09_09h44.39.653,leap3,2022.2.5,59.993082598239035,
,,,,,,,,0,0,0,0,10,0,10,0,,,,,,,,,,,,,,,,,,trotch,nw,h,lower,h,1,0.615272936411202,,,,,,,,,,,,,,,,,,,,,,,,,,,,,,,375,2023-11-09_09h44.39.653,leap3,2022.2.5,59.993082598239035,
,,,,,,,,0,0,0,0,11,0,11,0,,,,,,,,,,,,,,,,,,umpire,w,g,lower,g,1,0.4531916845589876,,,,,,,,,,,,,,,,,,,,,,,,,,,,,,,375,2023-11-09_09h44.39.653,leap3,2022.2.5,59.993082598239035,
,,,,,,,,0,0,0,0,12,0,12,0,,,,,,,,,,,,,,,,,,grocus,nw,h,lower,h,1,0.7611871138215065,,,,,,,,,,,,,,,,,,,,,,,,,,,,,,,375,2023-11-09_09h44.39.653,leap3,2022.2.5,59.993082598239035,
,,,,,,,,0,0,0,0,13,0,13,0,,,,,,,,,,,,,,,,,,revival,w,g,lower,g,1,0.44113904796540737,,,,,,,,,,,,,,,,,,,,,,,,,,,,,,,375,2023-11-09_09h44.39.653,leap3,2022.2.5,59.993082598239035,
,,,,,,,,0,0,0,0,,,,,,,,,,,,,,,,,,,,,,,,,,,,,,,,,,,,,,,,,,,,,,,,,,,,,,,,,,,375,2023-11-09_09h44.39.653,leap3,2022.2.5,59.993082598239035,
,,,,,,,,1,0,1,0,0,0,0,0,,,,,,,,,,,,,,,,,,slumber,w,g,upper,g,1,0.4441861640661955,,,,,,,,,,,,,,,,,,,,,,,,,,,,,,,375,2023-11-09_09h44.39.653,leap3,2022.2.5,59.993082598239035,
,,,,,,,,1,0,1,0,1,0,1,0,,,,,,,,,,,,,,,,,,grimace,w,g,upper,g,1,0.6019084854051471,,,,,,,,,,,,,,,,,,,,,,,,,,,,,,,375,2023-11-09_09h44.39.653,leap3,2022.2.5,59.993082598239035,
,,,,,,,,1,0,1,0,2,0,2,0,,,,,,,,,,,,,,,,,,lumbigo,nw,h,upper,g,0,0.5199445178732276,,,,,,,,,,,,,,,,,,,,,,,,,,,,,,,375,2023-11-09_09h44.39.653,leap3,2022.2.5,59.993082598239035,
,,,,,,,,1,0,1,0,3,0,3,0,,,,,,,,,,,,,,,,,,lurshing,nw,h,upper,h,1,0.4883372103795409,,,,,,,,,,,,,,,,,,,,,,,,,,,,,,,375,2023-11-09_09h44.39.653,leap3,2022.2.5,59.993082598239035,
,,,,,,,,1,0,1,0,4,0,4,0,,,,,,,,,,,,,,,,,,busted,w,g,upper,g,1,0.5788198225200176,,,,,,,,,,,,,,,,,,,,,,,,,,,,,,,375,2023-11-09_09h44.39.653,leap3,2022.2.5,59.993082598239035,
,,,,,,,,1,0,1,0,5,0,5,0,,,,,,,,,,,,,,,,,,treeps,nw,h,upper,h,1,0.5860939649865031,,,,,,,,,,,,,,,,,,,,,,,,,,,,,,,375,2023-11-09_09h44.39.653,leap3,2022.2.5,59.993082598239035,
,,,,,,,,1,0,1,0,6,0,6,0,,,,,,,,,,,,,,,,,,grutch,nw,h,upper,g,0,0.5047312704846263,,,,,,,,,,,,,,,,,,,,,,,,,,,,,,,375,2023-11-09_09h44.39.653,leap3,2022.2.5,59.993082598239035,
,,,,,,,,1,0,1,0,7,0,7,0,,,,,,,,,,,,,,,,,,crinklo,nw,h,upper,h,1,0.41866493970155716,,,,,,,,,,,,,,,,,,,,,,,,,,,,,,,375,2023-11-09_09h44.39.653,leap3,2022.2.5,59.993082598239035,
,,,,,,,,1,0,1,0,8,0,8,0,,,,,,,,,,,,,,,,,,picture,w,g,upper,g,1,0.5040343124419451,,,,,,,,,,,,,,,,,,,,,,,,,,,,,,,375,2023-11-09_09h44.39.653,leap3,2022.2.5,59.993082598239035,
,,,,,,,,1,0,1,0,9,0,9,0,,,,,,,,,,,,,,,,,,hiring,w,g,upper,g,1,0.5379528412595391,,,,,,,,,,,,,,,,,,,,,,,,,,,,,,,375,2023-11-09_09h44.39.653,leap3,2022.2.5,59.993082598239035,
,,,,,,,,1,0,1,0,10,0,10,0,,,,,,,,,,,,,,,,,,julled,nw,h,upper,h,1,0.6334991911426187,,,,,,,,,,,,,,,,,,,,,,,,,,,,,,,375,2023-11-09_09h44.39.653,leap3,2022.2.5,59.993082598239035,
,,,,,,,,1,0,1,0,11,0,11,0,,,,,,,,,,,,,,,,,,infinity,w,g,upper,g,1,0.5667397174984217,,,,,,,,,,,,,,,,,,,,,,,,,,,,,,,375,2023-11-09_09h44.39.653,leap3,2022.2.5,59.993082598239035,
,,,,,,,,1,0,1,0,12,0,12,0,,,,,,,,,,,,,,,,,,alolition,nw,h,upper,h,1,0.6149188727140427,,,,,,,,,,,,,,,,,,,,,,,,,,,,,,,375,2023-11-09_09h44.39.653,leap3,2022.2.5,59.993082598239035,
,,,,,,,,1,0,1,0,13,0,13,0,,,,,,,,,,,,,,,,,,reputable,w,g,upper,g,1,0.6516071232035756,,,,,,,,,,,,,,,,,,,,,,,,,,,,,,,375,2023-11-09_09h44.39.653,leap3,2022.2.5,59.993082598239035,
,,,,,,,,1,0,1,0,,,,,,,,,,,,,,,,,,,,,,,,,,,,,,,,,,,,,,,,,,,,,,,,,,,,,,,,,,,375,2023-11-09_09h44.39.653,leap3,2022.2.5,59.993082598239035,
,,,,,,,,,,,,,,,,0,0,0,0,,,,,,,,,,,,,,,,,,,,,y,,,,,,,,,,,,,,,,,,,,,,,,,,,,,,375,2023-11-09_09h44.39.653,leap3,2022.2.5,59.993082598239035,
,,,,,,,,,,,,,,,,,,,,0,0,0,0,0,0,0,0,,,,,,slending,nw,h,lower,,,,,"animal
",q ,1,nw,HiDemTar,None,h,1,0.6591052338480949,None,,,,,,,,,,,,,,,,,,,,375,2023-11-09_09h44.39.653,leap3,2022.2.5,59.993082598239035,
,,,,,,,,,,,,,,,,,,,,0,0,0,0,1,0,1,0,,,,,,function,w,g,lower,,,,,,,1,w,HiDemTar,None,g,1,0.5436444142833352,None,,,,,,,,,,,,,,,,,,,,375,2023-11-09_09h44.39.653,leap3,2022.2.5,59.993082598239035,
,,,,,,,,,,,,,,,,,,,,0,0,0,0,2,0,2,0,,,,,,posing,w,g,lower,,,,,,,1,w,HiDemTar,None,g,1,0.7917962232604623,None,,,,,,,,,,,,,,,,,,,,375,2023-11-09_09h44.39.653,leap3,2022.2.5,59.993082598239035,
,,,,,,,,,,,,,,,,,,,,0,0,0,0,3,0,3,0,,,,,,revising,w,g,lower,,,,,,,1,w,HiDemTar,None,g,1,0.5663270968943834,None,,,,,,,,,,,,,,,,,,,,375,2023-11-09_09h44.39.653,leap3,2022.2.5,59.993082598239035,
,,,,,,,,,,,,,,,,,,,,0,0,0,0,4,0,4,0,,,,,,nauling,nw,h,lower,,,,,,,1,nw,HiDemTar,None,h,1,0.6394536709412932,None,,,,,,,,,,,,,,,,,,,,375,2023-11-09_09h44.39.653,leap3,2022.2.5,59.993082598239035,
,,,,,,,,,,,,,,,,,,,,0,0,0,0,5,0,5,0,,,,,,clattest,nw,h,lower,,,,,,,1,nw,HiDemTar,None,h,1,0.7173798680305481,None,,,,,,,,,,,,,,,,,,,,375,2023-11-09_09h44.39.653,leap3,2022.2.5,59.993082598239035,
,,,,,,,,,,,,,,,,,,,,0,0,0,0,6,0,6,0,,,,,,encounter,w,g,lower,,,,,,,1,w,HiDemTar,None,g,1,0.6391122853383422,None,,,,,,,,,,,,,,,,,,,,375,2023-11-09_09h44.39.653,leap3,2022.2.5,59.993082598239035,
,,,,,,,,,,,,,,,,,,,,0,0,0,0,7,0,7,0,,,,,,dricked,nw,h,lower,,,,,,,1,nw,HiDemTar,None,h,1,0.7485431637614965,None,,,,,,,,,,,,,,,,,,,,375,2023-11-09_09h44.39.653,leap3,2022.2.5,59.993082598239035,
,,,,,,,,,,,,,,,,,,,,0,0,0,0,8,0,8,0,,,,,,burning,w,g,lower,,,,,,,1,w,HiDemTar,None,g,1,0.7097906013950706,None,,,,,,,,,,,,,,,,,,,,375,2023-11-09_09h44.39.653,leap3,2022.2.5,59.993082598239035,
,,,,,,,,,,,,,,,,,,,,0,0,0,0,9,0,9,0,,,,,,lecked,nw,h,lower,,,,,,,1,nw,HiDemTar,None,h,1,0.6883877385407686,None,,,,,,,,,,,,,,,,,,,,375,2023-11-09_09h44.39.653,leap3,2022.2.5,59.993082598239035,
,,,,,,,,,,,,,,,,,,,,0,0,0,0,10,0,10,0,,,,,,outfit,w,g,lower,,,,,,,1,w,HiDemTar,None,g,1,0.5797377303242683,None,,,,,,,,,,,,,,,,,,,,375,2023-11-09_09h44.39.653,leap3,2022.2.5,59.993082598239035,
,,,,,,,,,,,,,,,,,,,,0,0,0,0,11,0,11,0,,,,,,mitten,w,g,lower,,,,,,,1,w,HiDemTar,None,g,1,0.6677938178181648,None,,,,,,,,,,,,,,,,,,,,375,2023-11-09_09h44.39.653,leap3,2022.2.5,59.993082598239035,
,,,,,,,,,,,,,,,,,,,,0,0,0,0,12,0,12,0,,,,,,jinds,nw,h,lower,,,,,,,1,nw,HiDemTar,None,h,1,0.622806966304779,None,,,,,,,,,,,,,,,,,,,,375,2023-11-09_09h44.39.653,leap3,2022.2.5,59.993082598239035,
,,,,,,,,,,,,,,,,,,,,0,0,0,0,13,0,13,0,,,,,,absent,w,g,lower,,,,,,,1,w,HiDemTar,None,g,1,0.5646675582975149,None,,,,,,,,,,,,,,,,,,,,375,2023-11-09_09h44.39.653,leap3,2022.2.5,59.993082598239035,
,,,,,,,,,,,,,,,,,,,,0,0,0,0,14,0,14,0,,,,,,attrove,nw,h,lower,,,,,,,1,nw,HiDemTar,None,h,1,0.7332550594583154,None,,,,,,,,,,,,,,,,,,,,375,2023-11-09_09h44.39.653,leap3,2022.2.5,59.993082598239035,
,,,,,,,,,,,,,,,,,,,,0,0,0,0,15,0,15,0,,,,,,buzzer,w,g,lower,,,,,,,1,w,HiDemTar,None,g,1,0.6134519102051854,None,,,,,,,,,,,,,,,,,,,,375,2023-11-09_09h44.39.653,leap3,2022.2.5,59.993082598239035,
,,,,,,,,,,,,,,,,,,,,0,0,0,0,16,0,16,0,,,,,,contund,nw,h,lower,,,,,,,1,nw,HiDemTar,None,h,1,1.013880167156458,None,,,,,,,,,,,,,,,,,,,,375,2023-11-09_09h44.39.653,leap3,2022.2.5,59.993082598239035,
,,,,,,,,,,,,,,,,,,,,0,0,0,0,17,0,17,0,,,,,,appain,nw,h,lower,,,,,,,1,nw,HiDemTar,None,h,1,0.6684874556958675,None,,,,,,,,,,,,,,,,,,,,375,2023-11-09_09h44.39.653,leap3,2022.2.5,59.993082598239035,
,,,,,,,,,,,,,,,,,,,,0,0,0,0,18,0,18,0,,,,,,noblin,nw,h,lower,,,,,,,1,nw,HiDemTar,None,h,1,0.5444775046780705,None,,,,,,,,,,,,,,,,,,,,375,2023-11-09_09h44.39.653,leap3,2022.2.5,59.993082598239035,
,,,,,,,,,,,,,,,,,,,,0,0,0,0,19,0,19,0,,,,,,standard,w,g,lower,,,,,,,1,w,HiDemTar,None,g,1,0.6817402252927423,None,,,,,,,,,,,,,,,,,,,,375,2023-11-09_09h44.39.653,leap3,2022.2.5,59.993082598239035,
,,,,,,,,,,,,,,,,,,,,0,0,0,0,20,0,20,0,,,,,,turntable,w,g,lower,,,,,,,1,w,HiDemTar,None,h,0,1.3978736139833927,None,,,,,,,,,,,,,,,,,,,,375,2023-11-09_09h44.39.653,leap3,2022.2.5,59.993082598239035,
,,,,,,,,,,,,,,,,,,,,0,0,0,0,21,0,21,0,,,,,,elephant,target,q,lower,,,,,,,1,target,HiDemTar,None,q,1,0.6931025441735983,None,q,1,,,,,,,,,,,,,,,,,,375,2023-11-09_09h44.39.653,leap3,2022.2.5,59.993082598239035,
,,,,,,,,,,,,,,,,,,,,0,0,0,0,22,0,22,0,,,,,,desert,w,g,lower,,,,,,,1,aftertar1,HiDemTar,None,g,1,0.9354692082852125,None,,,,,,,,,,,,,,,,,,,,375,2023-11-09_09h44.39.653,leap3,2022.2.5,59.993082598239035,
,,,,,,,,,,,,,,,,,,,,0,0,0,0,23,0,23,0,,,,,,priant,nw,h,lower,,,,,,,1,aftertar2,HiDemTar,None,h,1,0.6087241256609559,None,,,,,,,,,,,,,,,,,,,,375,2023-11-09_09h44.39.653,leap3,2022.2.5,59.993082598239035,
,,,,,,,,,,,,,,,,,,,,0,0,0,0,24,0,24,0,,,,,,tunneg,nw,h,lower,,,,,,,1,aftertar3,HiDemTar,None,h,1,0.6553696105256677,None,,,,,,,,,,,,,,,,,,,,375,2023-11-09_09h44.39.653,leap3,2022.2.5,59.993082598239035,
,,,,,,,,,,,,,,,,,,,,0,0,0,0,25,0,25,0,,,,,,senior,w,g,lower,,,,,,,1,nw,HiDemTar,None,g,1,0.6989553021267056,None,,,,,,,,,,,,,,,,,,,,375,2023-11-09_09h44.39.653,leap3,2022.2.5,59.993082598239035,
,,,,,,,,,,,,,,,,,,,,0,0,0,0,26,0,26,0,,,,,,cegalia,nw,h,lower,,,,,,,1,w,HiDemTar,None,h,1,0.6542057003825903,None,,,,,,,,,,,,,,,,,,,,375,2023-11-09_09h44.39.653,leap3,2022.2.5,59.993082598239035,
,,,,,,,,,,,,,,,,,,,,0,0,0,0,27,0,27,0,,,,,,static,w,g,lower,,,,,,,1,nw,HiDemTar,None,g,1,0.7952230591326952,None,,,,,,,,,,,,,,,,,,,,375,2023-11-09_09h44.39.653,leap3,2022.2.5,59.993082598239035,
,,,,,,,,,,,,,,,,,,,,0,0,0,0,28,0,28,0,,,,,,sefraud,nw,h,lower,,,,,,,1,w,HiDemTar,None,h,1,0.7152905035763979,None,,,,,,,,,,,,,,,,,,,,375,2023-11-09_09h44.39.653,leap3,2022.2.5,59.993082598239035,
,,,,,,,,,,,,,,,,,,,,0,0,0,0,29,0,29,0,,,,,,sonnet,w,g,lower,,,,,,,1,nw,HiDemTar,None,g,1,0.7098814565688372,None,,,,,,,,,,,,,,,,,,,,375,2023-11-09_09h44.39.653,leap3,2022.2.5,59.993082598239035,
,,,,,,,,,,,,,,,,,,,,0,0,0,0,,,,,,,,,,,,,,,,,,,,,,,,,,,,,,,,,,,,,,,,,,,,,,,375,2023-11-09_09h44.39.653,leap3,2022.2.5,59.993082598239035,
,,,,,,,,,,,,,,,,,,,,1,0,1,0,0,0,0,0,,,,,,upstairs,w,g,lower,,,,,,,2,w,HiDemNoTar,None,g,1,0.5513556264340878,None,,,,,,,,,,,,,,,,,,,,375,2023-11-09_09h44.39.653,leap3,2022.2.5,59.993082598239035,
,,,,,,,,,,,,,,,,,,,,1,0,1,0,1,0,1,0,,,,,,phraining,nw,h,lower,,,,,,,2,nw,HiDemNoTar,None,h,1,0.5918631115928292,None,,,,,,,,,,,,,,,,,,,,375,2023-11-09_09h44.39.653,leap3,2022.2.5,59.993082598239035,
,,,,,,,,,,,,,,,,,,,,1,0,1,0,2,0,2,0,,,,,,fonducts,nw,h,lower,,,,,,,2,nw,HiDemNoTar,None,h,1,0.6233436446636915,None,,,,,,,,,,,,,,,,,,,,375,2023-11-09_09h44.39.653,leap3,2022.2.5,59.993082598239035,
,,,,,,,,,,,,,,,,,,,,1,0,1,0,3,0,3,0,,,,,,outlaved,nw,h,lower,,,,,,,2,nw,HiDemNoTar,None,g,0,0.7732294881716371,None,,,,,,,,,,,,,,,,,,,,375,2023-11-09_09h44.39.653,leap3,2022.2.5,59.993082598239035,
,,,,,,,,,,,,,,,,,,,,1,0,1,0,4,0,4,0,,,,,,vorm,nw,h,lower,,,,,,,2,nw,HiDemNoTar,None,h,1,0.709271127358079,None,,,,,,,,,,,,,,,,,,,,375,2023-11-09_09h44.39.653,leap3,2022.2.5,59.993082598239035,
,,,,,,,,,,,,,,,,,,,,1,0,1,0,5,0,5,0,,,,,,dests,nw,h,lower,,,,,,,2,nw,HiDemNoTar,None,h,1,0.775945782661438,None,,,,,,,,,,,,,,,,,,,,375,2023-11-09_09h44.39.653,leap3,2022.2.5,59.993082598239035,
,,,,,,,,,,,,,,,,,,,,1,0,1,0,6,0,6,0,,,,,,ralliep,nw,h,lower,,,,,,,2,nw,HiDemNoTar,None,h,1,0.5918567730113864,None,,,,,,,,,,,,,,,,,,,,375,2023-11-09_09h44.39.653,leap3,2022.2.5,59.993082598239035,
,,,,,,,,,,,,,,,,,,,,1,0,1,0,7,0,7,0,,,,,,reloant,nw,h,lower,,,,,,,2,nw,HiDemNoTar,None,h,1,0.6550885941833258,None,,,,,,,,,,,,,,,,,,,,375,2023-11-09_09h44.39.653,leap3,2022.2.5,59.993082598239035,
,,,,,,,,,,,,,,,,,,,,1,0,1,0,8,0,8,0,,,,,,nomma,nw,h,lower,,,,,,,2,nw,HiDemNoTar,None,h,1,0.698797739110887,None,,,,,,,,,,,,,,,,,,,,375,2023-11-09_09h44.39.653,leap3,2022.2.5,59.993082598239035,
,,,,,,,,,,,,,,,,,,,,1,0,1,0,9,0,9,0,,,,,,govern,w,g,lower,,,,,,,2,w,HiDemNoTar,None,g,1,0.6301124999299645,None,,,,,,,,,,,,,,,,,,,,375,2023-11-09_09h44.39.653,leap3,2022.2.5,59.993082598239035,
,,,,,,,,,,,,,,,,,,,,1,0,1,0,10,0,10,0,,,,,,violate,w,g,lower,,,,,,,2,w,HiDemNoTar,None,g,1,0.7000277545303106,None,,,,,,,,,,,,,,,,,,,,375,2023-11-09_09h44.39.653,leap3,2022.2.5,59.993082598239035,
,,,,,,,,,,,,,,,,,,,,1,0,1,0,11,0,11,0,,,,,,huffle,nw,h,lower,,,,,,,2,nw,HiDemNoTar,None,h,1,0.5994104230776429,None,,,,,,,,,,,,,,,,,,,,375,2023-11-09_09h44.39.653,leap3,2022.2.5,59.993082598239035,
,,,,,,,,,,,,,,,,,,,,1,0,1,0,12,0,12,0,,,,,,arrow,w,g,lower,,,,,,,2,w,HiDemNoTar,None,g,1,0.6147317299619317,None,,,,,,,,,,,,,,,,,,,,375,2023-11-09_09h44.39.653,leap3,2022.2.5,59.993082598239035,
,,,,,,,,,,,,,,,,,,,,1,0,1,0,13,0,13,0,,,,,,slogan,w,g,lower,,,,,,,2,w,HiDemNoTar,None,g,1,0.7654014620929956,None,,,,,,,,,,,,,,,,,,,,375,2023-11-09_09h44.39.653,leap3,2022.2.5,59.993082598239035,
,,,,,,,,,,,,,,,,,,,,1,0,1,0,14,0,14,0,,,,,,beartiset,nw,h,lower,,,,,,,2,nw,HiDemNoTar,None,h,1,0.7340123867616057,None,,,,,,,,,,,,,,,,,,,,375,2023-11-09_09h44.39.653,leap3,2022.2.5,59.993082598239035,
,,,,,,,,,,,,,,,,,,,,1,0,1,0,15,0,15,0,,,,,,dorth,nw,h,lower,,,,,,,2,nw,HiDemNoTar,None,h,1,0.7183901416137815,None,,,,,,,,,,,,,,,,,,,,375,2023-11-09_09h44.39.653,leap3,2022.2.5,59.993082598239035,
,,,,,,,,,,,,,,,,,,,,1,0,1,0,16,0,16,0,,,,,,potent,w,g,lower,,,,,,,2,w,HiDemNoTar,None,g,1,0.951164498925209,None,,,,,,,,,,,,,,,,,,,,375,2023-11-09_09h44.39.653,leap3,2022.2.5,59.993082598239035,
,,,,,,,,,,,,,,,,,,,,1,0,1,0,17,0,17,0,,,,,,alomalous,nw,h,lower,,,,,,,2,nw,HiDemNoTar,None,h,1,0.8242010027170181,None,,,,,,,,,,,,,,,,,,,,375,2023-11-09_09h44.39.653,leap3,2022.2.5,59.993082598239035,
,,,,,,,,,,,,,,,,,,,,1,0,1,0,18,0,18,0,,,,,,permute,w,g,lower,,,,,,,2,w,HiDemNoTar,None,h,0,1.0307822320610285,None,,,,,,,,,,,,,,,,,,,,375,2023-11-09_09h44.39.653,leap3,2022.2.5,59.993082598239035,
,,,,,,,,,,,,,,,,,,,,1,0,1,0,19,0,19,0,,,,,,parody,w,g,lower,,,,,,,2,w,HiDemNoTar,None,g,1,0.7328587379306555,None,,,,,,,,,,,,,,,,,,,,375,2023-11-09_09h44.39.653,leap3,2022.2.5,59.993082598239035,
,,,,,,,,,,,,,,,,,,,,1,0,1,0,20,0,20,0,,,,,,jungle,w,g,lower,,,,,,,2,w,HiDemNoTar,None,g,1,0.8307564537972212,None,,,,,,,,,,,,,,,,,,,,375,2023-11-09_09h44.39.653,leap3,2022.2.5,59.993082598239035,
,,,,,,,,,,,,,,,,,,,,1,0,1,0,21,0,21,0,,,,,,demise,w,g,lower,,,,,,,2,w,HiDemNoTar,None,g,1,0.8448589146137238,None,,,,,,,,,,,,,,,,,,,,375,2023-11-09_09h44.39.653,leap3,2022.2.5,59.993082598239035,
,,,,,,,,,,,,,,,,,,,,1,0,1,0,22,0,22,0,,,,,,sampling,w,g,lower,,,,,,,2,w,HiDemNoTar,None,g,1,0.8901141062378883,None,,,,,,,,,,,,,,,,,,,,375,2023-11-09_09h44.39.653,leap3,2022.2.5,59.993082598239035,
,,,,,,,,,,,,,,,,,,,,1,0,1,0,23,0,23,0,,,,,,mineluyer,nw,h,lower,,,,,,,2,nw,HiDemNoTar,None,h,1,0.6605640472844243,None,,,,,,,,,,,,,,,,,,,,375,2023-11-09_09h44.39.653,leap3,2022.2.5,59.993082598239035,
,,,,,,,,,,,,,,,,,,,,1,0,1,0,24,0,24,0,,,,,,despise,w,g,lower,,,,,,,2,w,HiDemNoTar,None,g,1,0.7372940359637141,None,,,,,,,,,,,,,,,,,,,,375,2023-11-09_09h44.39.653,leap3,2022.2.5,59.993082598239035,
,,,,,,,,,,,,,,,,,,,,1,0,1,0,25,0,25,0,,,,,,gestalion,nw,h,lower,,,,,,,2,nw,HiDemNoTar,None,h,1,0.8023514114320278,None,,,,,,,,,,,,,,,,,,,,375,2023-11-09_09h44.39.653,leap3,2022.2.5,59.993082598239035,
,,,,,,,,,,,,,,,,,,,,1,0,1,0,26,0,26,0,,,,,,stelled,nw,h,lower,,,,,,,2,nw,HiDemNoTar,None,h,1,0.8730098055675626,None,,,,,,,,,,,,,,,,,,,,375,2023-11-09_09h44.39.653,leap3,2022.2.5,59.993082598239035,
,,,,,,,,,,,,,,,,,,,,1,0,1,0,27,0,27,0,,,,,,cookbook,w,g,lower,,,,,,,2,w,HiDemNoTar,None,g,1,0.8849151423200965,None,,,,,,,,,,,,,,,,,,,,375,2023-11-09_09h44.39.653,leap3,2022.2.5,59.993082598239035,
,,,,,,,,,,,,,,,,,,,,1,0,1,0,28,0,28,0,,,,,,stretches,w,g,lower,,,,,,,2,w,HiDemNoTar,None,g,1,0.6161839021369815,None,,,,,,,,,,,,,,,,,,,,375,2023-11-09_09h44.39.653,leap3,2022.2.5,59.993082598239035,
,,,,,,,,,,,,,,,,,,,,1,0,1,0,29,0,29,0,,,,,,incorrect,w,g,lower,,,,,,,2,w,HiDemNoTar,None,g,1,0.6228199461475015,None,,,,,,,,,,,,,,,,,,,,375,2023-11-09_09h44.39.653,leap3,2022.2.5,59.993082598239035,
,,,,,,,,,,,,,,,,,,,,1,0,1,0,,,,,,,,,,,,,,,,,,,,,,,,,,,,,,,,,,,,,,,,,,,,,,,375,2023-11-09_09h44.39.653,leap3,2022.2.5,59.993082598239035,
,,,,,,,,,,,,,,,,,,,,2,0,2,0,0,0,0,0,,,,,,melodic,w,g,upper,,,,,,,3,w,LoDemNoTar,None,g,1,0.8037178590893745,None,,,,,,,,,,,,,,,,,,,,375,2023-11-09_09h44.39.653,leap3,2022.2.5,59.993082598239035,
,,,,,,,,,,,,,,,,,,,,2,0,2,0,1,0,1,0,,,,,,cherry,w,g,upper,,,,,,,3,w,LoDemNoTar,None,g,1,0.46630469989031553,None,,,,,,,,,,,,,,,,,,,,375,2023-11-09_09h44.39.653,leap3,2022.2.5,59.993082598239035,
,,,,,,,,,,,,,,,,,,,,2,0,2,0,2,0,2,0,,,,,,repayment,w,g,upper,,,,,,,3,w,LoDemNoTar,None,g,1,0.5749903256073594,None,,,,,,,,,,,,,,,,,,,,375,2023-11-09_09h44.39.653,leap3,2022.2.5,59.993082598239035,
,,,,,,,,,,,,,,,,,,,,2,0,2,0,3,0,3,0,,,,,,sludding,nw,h,upper,,,,,,,3,nw,LoDemNoTar,None,h,1,0.806996189057827,None,,,,,,,,,,,,,,,,,,,,375,2023-11-09_09h44.39.653,leap3,2022.2.5,59.993082598239035,
,,,,,,,,,,,,,,,,,,,,2,0,2,0,4,0,4,0,,,,,,cartles,nw,h,upper,,,,,,,3,nw,LoDemNoTar,None,h,1,0.6455844268202782,None,,,,,,,,,,,,,,,,,,,,375,2023-11-09_09h44.39.653,leap3,2022.2.5,59.993082598239035,
,,,,,,,,,,,,,,,,,,,,2,0,2,0,5,0,5,0,,,,,,lutton,nw,h,upper,,,,,,,3,nw,LoDemNoTar,None,h,1,0.6176158506423235,None,,,,,,,,,,,,,,,,,,,,375,2023-11-09_09h44.39.653,leap3,2022.2.5,59.993082598239035,
,,,,,,,,,,,,,,,,,,,,2,0,2,0,6,0,6,0,,,,,,argue,w,g,upper,,,,,,,3,w,LoDemNoTar,None,g,1,0.5996289579197764,None,,,,,,,,,,,,,,,,,,,,375,2023-11-09_09h44.39.653,leap3,2022.2.5,59.993082598239035,
,,,,,,,,,,,,,,,,,,,,2,0,2,0,7,0,7,0,,,,,,dounger,nw,h,upper,,,,,,,3,nw,LoDemNoTar,None,h,1,0.6476680571213365,None,,,,,,,,,,,,,,,,,,,,375,2023-11-09_09h44.39.653,leap3,2022.2.5,59.993082598239035,
,,,,,,,,,,,,,,,,,,,,2,0,2,0,8,0,8,0,,,,,,sputter,w,g,upper,,,,,,,3,w,LoDemNoTar,None,g,1,0.6776396716013551,None,,,,,,,,,,,,,,,,,,,,375,2023-11-09_09h44.39.653,leap3,2022.2.5,59.993082598239035,
,,,,,,,,,,,,,,,,,,,,2,0,2,0,9,0,9,0,,,,,,realize,w,g,upper,,,,,,,3,w,LoDemNoTar,None,g,1,0.4964236142113805,None,,,,,,,,,,,,,,,,,,,,375,2023-11-09_09h44.39.653,leap3,2022.2.5,59.993082598239035,
,,,,,,,,,,,,,,,,,,,,2,0,2,0,10,0,10,0,,,,,,mennel,nw,h,upper,,,,,,,3,nw,LoDemNoTar,None,h,1,0.5076504051685333,None,,,,,,,,,,,,,,,,,,,,375,2023-11-09_09h44.39.653,leap3,2022.2.5,59.993082598239035,
,,,,,,,,,,,,,,,,,,,,2,0,2,0,11,0,11,0,,,,,,formation,w,g,upper,,,,,,,3,w,LoDemNoTar,None,g,1,0.5183073151856661,None,,,,,,,,,,,,,,,,,,,,375,2023-11-09_09h44.39.653,leap3,2022.2.5,59.993082598239035,
,,,,,,,,,,,,,,,,,,,,2,0,2,0,12,0,12,0,,,,,,carnival,w,g,upper,,,,,,,3,w,LoDemNoTar,None,g,1,0.6483351327478886,None,,,,,,,,,,,,,,,,,,,,375,2023-11-09_09h44.39.653,leap3,2022.2.5,59.993082598239035,
,,,,,,,,,,,,,,,,,,,,2,0,2,0,13,0,13,0,,,,,,plymie,nw,h,upper,,,,,,,3,nw,LoDemNoTar,None,h,1,0.6375668430700898,None,,,,,,,,,,,,,,,,,,,,375,2023-11-09_09h44.39.653,leap3,2022.2.5,59.993082598239035,
,,,,,,,,,,,,,,,,,,,,2,0,2,0,14,0,14,0,,,,,,padicals,nw,h,upper,,,,,,,3,nw,LoDemNoTar,None,h,1,0.6348900897428393,None,,,,,,,,,,,,,,,,,,,,375,2023-11-09_09h44.39.653,leap3,2022.2.5,59.993082598239035,
,,,,,,,,,,,,,,,,,,,,2,0,2,0,15,0,15,0,,,,,,louches,nw,h,upper,,,,,,,3,nw,LoDemNoTar,None,g,0,0.6481959829106927,None,,,,,,,,,,,,,,,,,,,,375,2023-11-09_09h44.39.653,leap3,2022.2.5,59.993082598239035,
,,,,,,,,,,,,,,,,,,,,2,0,2,0,16,0,16,0,,,,,,slears,nw,h,upper,,,,,,,3,nw,LoDemNoTar,None,h,1,0.6774796945974231,None,,,,,,,,,,,,,,,,,,,,375,2023-11-09_09h44.39.653,leap3,2022.2.5,59.993082598239035,
,,,,,,,,,,,,,,,,,,,,2,0,2,0,17,0,17,0,,,,,,runabouk,nw,h,upper,,,,,,,3,nw,LoDemNoTar,None,h,1,0.5765701774507761,None,,,,,,,,,,,,,,,,,,,,375,2023-11-09_09h44.39.653,leap3,2022.2.5,59.993082598239035,
,,,,,,,,,,,,,,,,,,,,2,0,2,0,18,0,18,0,,,,,,frigs,nw,h,upper,,,,,,,3,nw,LoDemNoTar,None,h,1,0.5765191661193967,None,,,,,,,,,,,,,,,,,,,,375,2023-11-09_09h44.39.653,leap3,2022.2.5,59.993082598239035,
,,,,,,,,,,,,,,,,,,,,2,0,2,0,19,0,19,0,,,,,,artifact,w,g,upper,,,,,,,3,w,LoDemNoTar,None,g,1,0.600421299226582,None,,,,,,,,,,,,,,,,,,,,375,2023-11-09_09h44.39.653,leap3,2022.2.5,59.993082598239035,
,,,,,,,,,,,,,,,,,,,,2,0,2,0,20,0,20,0,,,,,,catgup,nw,h,upper,,,,,,,3,nw,LoDemNoTar,None,h,1,0.6710320021957159,None,,,,,,,,,,,,,,,,,,,,375,2023-11-09_09h44.39.653,leap3,2022.2.5,59.993082598239035,
,,,,,,,,,,,,,,,,,,,,2,0,2,0,21,0,21,0,,,,,,dorte,nw,h,upper,,,,,,,3,nw,LoDemNoTar,None,h,1,0.6190088614821434,None,,,,,,,,,,,,,,,,,,,,375,2023-11-09_09h44.39.653,leap3,2022.2.5,59.993082598239035,
,,,,,,,,,,,,,,,,,,,,2,0,2,0,22,0,22,0,,,,,,refebs,nw,h,upper,,,,,,,3,nw,LoDemNoTar,None,h,1,0.5050044395029545,None,,,,,,,,,,,,,,,,,,,,375,2023-11-09_09h44.39.653,leap3,2022.2.5,59.993082598239035,
,,,,,,,,,,,,,,,,,,,,2,0,2,0,23,0,23,0,,,,,,professor,w,g,upper,,,,,,,3,w,LoDemNoTar,None,g,1,0.5797546338289976,None,,,,,,,,,,,,,,,,,,,,375,2023-11-09_09h44.39.653,leap3,2022.2.5,59.993082598239035,
,,,,,,,,,,,,,,,,,,,,2,0,2,0,24,0,24,0,,,,,,chemical,w,g,upper,,,,,,,3,w,LoDemNoTar,None,g,1,0.6036703493446112,None,,,,,,,,,,,,,,,,,,,,375,2023-11-09_09h44.39.653,leap3,2022.2.5,59.993082598239035,
,,,,,,,,,,,,,,,,,,,,2,0,2,0,25,0,25,0,,,,,,aqueduct,w,g,upper,,,,,,,3,w,LoDemNoTar,None,g,1,0.8783554648980498,None,,,,,,,,,,,,,,,,,,,,375,2023-11-09_09h44.39.653,leap3,2022.2.5,59.993082598239035,
,,,,,,,,,,,,,,,,,,,,2,0,2,0,26,0,26,0,,,,,,cessation,w,g,upper,,,,,,,3,w,LoDemNoTar,None,h,0,0.526264832355082,None,,,,,,,,,,,,,,,,,,,,375,2023-11-09_09h44.39.653,leap3,2022.2.5,59.993082598239035,
,,,,,,,,,,,,,,,,,,,,2,0,2,0,27,0,27,0,,,,,,smabled,nw,h,upper,,,,,,,3,nw,LoDemNoTar,None,h,1,0.7202639896422625,None,,,,,,,,,,,,,,,,,,,,375,2023-11-09_09h44.39.653,leap3,2022.2.5,59.993082598239035,
,,,,,,,,,,,,,,,,,,,,2,0,2,0,28,0,28,0,,,,,,envelop,w,g,upper,,,,,,,3,w,LoDemNoTar,None,g,1,0.6332471510395408,None,,,,,,,,,,,,,,,,,,,,375,2023-11-09_09h44.39.653,leap3,2022.2.5,59.993082598239035,
,,,,,,,,,,,,,,,,,,,,2,0,2,0,29,0,29,0,,,,,,telecast,w,g,upper,,,,,,,3,w,LoDemNoTar,None,g,1,0.7671723812818527,None,,,,,,,,,,,,,,,,,,,,375,2023-11-09_09h44.39.653,leap3,2022.2.5,59.993082598239035,
,,,,,,,,,,,,,,,,,,,,2,0,2,0,,,,,,,,,,,,,,,,,,,,,,,,,,,,,,,,,,,,,,,,,,,,,,,375,2023-11-09_09h44.39.653,leap3,2022.2.5,59.993082598239035,
,,,,,,,,,,,,,,,,,,,,3,0,3,0,0,0,0,0,,,,,,endgume,nw,h,upper,,,,,,,3,nw,LoDemNoTar,None,h,1,0.9117533126845956,None,,,,,,,,,,,,,,,,,,,,375,2023-11-09_09h44.39.653,leap3,2022.2.5,59.993082598239035,
,,,,,,,,,,,,,,,,,,,,3,0,3,0,1,0,1,0,,,,,,monopoly,w,g,upper,,,,,,,3,w,LoDemNoTar,None,g,1,0.5543598812073469,None,,,,,,,,,,,,,,,,,,,,375,2023-11-09_09h44.39.653,leap3,2022.2.5,59.993082598239035,
,,,,,,,,,,,,,,,,,,,,3,0,3,0,2,0,2,0,,,,,,deficit,w,g,upper,,,,,,,3,w,LoDemNoTar,None,h,0,0.7941071419045329,None,,,,,,,,,,,,,,,,,,,,375,2023-11-09_09h44.39.653,leap3,2022.2.5,59.993082598239035,
,,,,,,,,,,,,,,,,,,,,3,0,3,0,3,0,3,0,,,,,,system,w,g,upper,,,,,,,3,w,LoDemNoTar,None,g,1,0.5852421605959535,None,,,,,,,,,,,,,,,,,,,,375,2023-11-09_09h44.39.653,leap3,2022.2.5,59.993082598239035,
,,,,,,,,,,,,,,,,,,,,3,0,3,0,4,0,4,0,,,,,,bedding,w,g,upper,,,,,,,3,w,LoDemNoTar,None,g,1,0.7605924811214209,None,,,,,,,,,,,,,,,,,,,,375,2023-11-09_09h44.39.653,leap3,2022.2.5,59.993082598239035,
,,,,,,,,,,,,,,,,,,,,3,0,3,0,5,0,5,0,,,,,,wienegs,nw,h,upper,,,,,,,3,nw,LoDemNoTar,None,h,1,0.537223887629807,None,,,,,,,,,,,,,,,,,,,,375,2023-11-09_09h44.39.653,leap3,2022.2.5,59.993082598239035,
,,,,,,,,,,,,,,,,,,,,3,0,3,0,6,0,6,0,,,,,,coster,nw,h,upper,,,,,,,3,nw,LoDemNoTar,None,h,1,1.034477106295526,None,,,,,,,,,,,,,,,,,,,,375,2023-11-09_09h44.39.653,leap3,2022.2.5,59.993082598239035,
,,,,,,,,,,,,,,,,,,,,3,0,3,0,7,0,7,0,,,,,,latpin,nw,h,upper,,,,,,,3,nw,LoDemNoTar,None,h,1,0.543781753629446,None,,,,,,,,,,,,,,,,,,,,375,2023-11-09_09h44.39.653,leap3,2022.2.5,59.993082598239035,
,,,,,,,,,,,,,,,,,,,,3,0,3,0,8,0,8,0,,,,,,machinery,w,g,upper,,,,,,,3,w,LoDemNoTar,None,g,1,0.569073879159987,None,,,,,,,,,,,,,,,,,,,,375,2023-11-09_09h44.39.653,leap3,2022.2.5,59.993082598239035,
,,,,,,,,,,,,,,,,,,,,3,0,3,0,9,0,9,0,,,,,,relaying,w,g,upper,,,,,,,3,w,LoDemNoTar,None,g,1,0.5530535001307726,None,,,,,,,,,,,,,,,,,,,,375,2023-11-09_09h44.39.653,leap3,2022.2.5,59.993082598239035,
,,,,,,,,,,,,,,,,,,,,3,0,3,0,10,0,10,0,,,,,,quittint,nw,h,upper,,,,,,,3,nw,LoDemNoTar,None,h,1,0.6816780446097255,None,,,,,,,,,,,,,,,,,,,,375,2023-11-09_09h44.39.653,leap3,2022.2.5,59.993082598239035,
,,,,,,,,,,,,,,,,,,,,3,0,3,0,11,0,11,0,,,,,,sefine,nw,h,upper,,,,,,,3,nw,LoDemNoTar,None,h,1,0.6287804618477821,None,,,,,,,,,,,,,,,,,,,,375,2023-11-09_09h44.39.653,leap3,2022.2.5,59.993082598239035,
,,,,,,,,,,,,,,,,,,,,3,0,3,0,12,0,12,0,,,,,,overflow,w,g,upper,,,,,,,3,w,LoDemNoTar,None,g,1,0.658613228239119,None,,,,,,,,,,,,,,,,,,,,375,2023-11-09_09h44.39.653,leap3,2022.2.5,59.993082598239035,
,,,,,,,,,,,,,,,,,,,,3,0,3,0,13,0,13,0,,,,,,mandate,w,g,upper,,,,,,,3,w,LoDemNoTar,None,g,1,0.70331362914294,None,,,,,,,,,,,,,,,,,,,,375,2023-11-09_09h44.39.653,leap3,2022.2.5,59.993082598239035,
,,,,,,,,,,,,,,,,,,,,3,0,3,0,14,0,14,0,,,,,,exit,w,g,upper,,,,,,,3,w,LoDemNoTar,None,g,1,0.5058622807264328,None,,,,,,,,,,,,,,,,,,,,375,2023-11-09_09h44.39.653,leap3,2022.2.5,59.993082598239035,
,,,,,,,,,,,,,,,,,,,,3,0,3,0,15,0,15,0,,,,,,efcorted,nw,h,upper,,,,,,,3,nw,LoDemNoTar,None,h,1,0.596527811139822,None,,,,,,,,,,,,,,,,,,,,375,2023-11-09_09h44.39.653,leap3,2022.2.5,59.993082598239035,
,,,,,,,,,,,,,,,,,,,,3,0,3,0,16,0,16,0,,,,,,sweeping,w,g,upper,,,,,,,3,w,LoDemNoTar,None,g,1,0.579826170578599,None,,,,,,,,,,,,,,,,,,,,375,2023-11-09_09h44.39.653,leap3,2022.2.5,59.993082598239035,
,,,,,,,,,,,,,,,,,,,,3,0,3,0,17,0,17,0,,,,,,aviation,w,g,upper,,,,,,,3,w,LoDemNoTar,None,g,1,0.5877329781651497,None,,,,,,,,,,,,,,,,,,,,375,2023-11-09_09h44.39.653,leap3,2022.2.5,59.993082598239035,
,,,,,,,,,,,,,,,,,,,,3,0,3,0,18,0,18,0,,,,,,elderly,w,g,upper,,,,,,,3,w,LoDemNoTar,None,g,1,0.6671711131930351,None,,,,,,,,,,,,,,,,,,,,375,2023-11-09_09h44.39.653,leap3,2022.2.5,59.993082598239035,
,,,,,,,,,,,,,,,,,,,,3,0,3,0,19,0,19,0,,,,,,border,w,g,upper,,,,,,,3,w,LoDemNoTar,None,g,1,0.5750461677089334,None,,,,,,,,,,,,,,,,,,,,375,2023-11-09_09h44.39.653,leap3,2022.2.5,59.993082598239035,
,,,,,,,,,,,,,,,,,,,,3,0,3,0,20,0,20,0,,,,,,donastic,nw,h,upper,,,,,,,3,nw,LoDemNoTar,None,h,1,0.5011939601972699,None,,,,,,,,,,,,,,,,,,,,375,2023-11-09_09h44.39.653,leap3,2022.2.5,59.993082598239035,
,,,,,,,,,,,,,,,,,,,,3,0,3,0,21,0,21,0,,,,,,welayed,nw,h,upper,,,,,,,3,nw,LoDemNoTar,None,h,1,0.6315619563683867,None,,,,,,,,,,,,,,,,,,,,375,2023-11-09_09h44.39.653,leap3,2022.2.5,59.993082598239035,
,,,,,,,,,,,,,,,,,,,,3,0,3,0,22,0,22,0,,,,,,hasks,nw,h,upper,,,,,,,3,nw,LoDemNoTar,None,h,1,0.5341933723539114,None,,,,,,,,,,,,,,,,,,,,375,2023-11-09_09h44.39.653,leap3,2022.2.5,59.993082598239035,
,,,,,,,,,,,,,,,,,,,,3,0,3,0,23,0,23,0,,,,,,peadgear,nw,h,upper,,,,,,,3,nw,LoDemNoTar,None,h,1,0.5920436149463058,None,,,,,,,,,,,,,,,,,,,,375,2023-11-09_09h44.39.653,leap3,2022.2.5,59.993082598239035,
,,,,,,,,,,,,,,,,,,,,3,0,3,0,24,0,24,0,,,,,,befin,nw,h,upper,,,,,,,3,nw,LoDemNoTar,None,h,1,0.4952708724886179,None,,,,,,,,,,,,,,,,,,,,375,2023-11-09_09h44.39.653,leap3,2022.2.5,59.993082598239035,
,,,,,,,,,,,,,,,,,,,,3,0,3,0,25,0,25,0,,,,,,splinging,nw,h,upper,,,,,,,3,nw,LoDemNoTar,None,h,1,0.6746043274179101,None,,,,,,,,,,,,,,,,,,,,375,2023-11-09_09h44.39.653,leap3,2022.2.5,59.993082598239035,
,,,,,,,,,,,,,,,,,,,,3,0,3,0,26,0,26,0,,,,,,recollect,w,g,upper,,,,,,,3,w,LoDemNoTar,None,g,1,0.6945115523412824,None,,,,,,,,,,,,,,,,,,,,375,2023-11-09_09h44.39.653,leap3,2022.2.5,59.993082598239035,
,,,,,,,,,,,,,,,,,,,,3,0,3,0,27,0,27,0,,,,,,draze,nw,h,upper,,,,,,,3,nw,LoDemNoTar,None,h,1,0.6337627014145255,None,,,,,,,,,,,,,,,,,,,,375,2023-11-09_09h44.39.653,leap3,2022.2.5,59.993082598239035,
,,,,,,,,,,,,,,,,,,,,3,0,3,0,28,0,28,0,,,,,,ounside,nw,h,upper,,,,,,,3,nw,LoDemNoTar,None,h,1,0.6551685826852918,None,,,,,,,,,,,,,,,,,,,,375,2023-11-09_09h44.39.653,leap3,2022.2.5,59.993082598239035,
,,,,,,,,,,,,,,,,,,,,3,0,3,0,29,0,29,0,,,,,,require,w,g,upper,,,,,,,3,w,LoDemNoTar,None,g,1,0.49983717035502195,None,,,,,,,,,,,,,,,,,,,,375,2023-11-09_09h44.39.653,leap3,2022.2.5,59.993082598239035,
,,,,,,,,,,,,,,,,,,,,3,0,3,0,,,,,,,,,,,,,,,,,,,,,,,,,,,,,,,,,,,,,,,,,,,,,,,375,2023-11-09_09h44.39.653,leap3,2022.2.5,59.993082598239035,
,,,,,,,,,,,,,,,,,,,,4,0,4,0,0,0,0,0,,,,,,cemoir,nw,h,upper,,,,,,,3,nw,LoDemNoTar,None,h,1,0.5739951450377703,None,,,,,,,,,,,,,,,,,,,,375,2023-11-09_09h44.39.653,leap3,2022.2.5,59.993082598239035,
,,,,,,,,,,,,,,,,,,,,4,0,4,0,1,0,1,0,,,,,,migmarole,nw,h,upper,,,,,,,3,nw,LoDemNoTar,None,h,1,0.5739993713796139,None,,,,,,,,,,,,,,,,,,,,375,2023-11-09_09h44.39.653,leap3,2022.2.5,59.993082598239035,
,,,,,,,,,,,,,,,,,,,,4,0,4,0,2,0,2,0,,,,,,lanthers,nw,h,upper,,,,,,,3,nw,LoDemNoTar,None,h,1,0.485960790887475,None,,,,,,,,,,,,,,,,,,,,375,2023-11-09_09h44.39.653,leap3,2022.2.5,59.993082598239035,
,,,,,,,,,,,,,,,,,,,,4,0,4,0,3,0,3,0,,,,,,shivering,w,g,upper,,,,,,,3,w,LoDemNoTar,None,g,1,0.6973057240247726,None,,,,,,,,,,,,,,,,,,,,375,2023-11-09_09h44.39.653,leap3,2022.2.5,59.993082598239035,
,,,,,,,,,,,,,,,,,,,,4,0,4,0,4,0,4,0,,,,,,failure,w,g,upper,,,,,,,3,w,LoDemNoTar,None,g,1,0.5005108863115311,None,,,,,,,,,,,,,,,,,,,,375,2023-11-09_09h44.39.653,leap3,2022.2.5,59.993082598239035,
,,,,,,,,,,,,,,,,,,,,4,0,4,0,5,0,5,0,,,,,,aggepting,nw,h,upper,,,,,,,3,nw,LoDemNoTar,None,h,1,0.5912114307284355,None,,,,,,,,,,,,,,,,,,,,375,2023-11-09_09h44.39.653,leap3,2022.2.5,59.993082598239035,
,,,,,,,,,,,,,,,,,,,,4,0,4,0,6,0,6,0,,,,,,cutout,w,g,upper,,,,,,,3,w,LoDemNoTar,None,g,1,0.734477830119431,None,,,,,,,,,,,,,,,,,,,,375,2023-11-09_09h44.39.653,leap3,2022.2.5,59.993082598239035,
,,,,,,,,,,,,,,,,,,,,4,0,4,0,7,0,7,0,,,,,,pammed,nw,h,upper,,,,,,,3,nw,LoDemNoTar,None,h,1,0.6638384517282248,None,,,,,,,,,,,,,,,,,,,,375,2023-11-09_09h44.39.653,leap3,2022.2.5,59.993082598239035,
,,,,,,,,,,,,,,,,,,,,4,0,4,0,8,0,8,0,,,,,,decant,w,g,upper,,,,,,,3,w,LoDemNoTar,None,h,0,0.5313970884308219,None,,,,,,,,,,,,,,,,,,,,375,2023-11-09_09h44.39.653,leap3,2022.2.5,59.993082598239035,
,,,,,,,,,,,,,,,,,,,,4,0,4,0,9,0,9,0,,,,,,deceit,w,g,upper,,,,,,,3,w,LoDemNoTar,None,g,1,0.6214480642229319,None,,,,,,,,,,,,,,,,,,,,375,2023-11-09_09h44.39.653,leap3,2022.2.5,59.993082598239035,
,,,,,,,,,,,,,,,,,,,,4,0,4,0,10,0,10,0,,,,,,saturate,w,g,upper,,,,,,,3,w,LoDemNoTar,None,g,1,1.7474444517865777,None,,,,,,,,,,,,,,,,,,,,375,2023-11-09_09h44.39.653,leap3,2022.2.5,59.993082598239035,
,,,,,,,,,,,,,,,,,,,,4,0,4,0,11,0,11,0,,,,,,sequence,w,g,upper,,,,,,,3,w,LoDemNoTar,None,g,1,0.5711149480193853,None,,,,,,,,,,,,,,,,,,,,375,2023-11-09_09h44.39.653,leap3,2022.2.5,59.993082598239035,
,,,,,,,,,,,,,,,,,,,,4,0,4,0,12,0,12,0,,,,,,emission,w,g,upper,,,,,,,3,w,LoDemNoTar,None,g,1,0.5957122277468443,None,,,,,,,,,,,,,,,,,,,,375,2023-11-09_09h44.39.653,leap3,2022.2.5,59.993082598239035,
,,,,,,,,,,,,,,,,,,,,4,0,4,0,13,0,13,0,,,,,,selongs,nw,h,upper,,,,,,,3,nw,LoDemNoTar,None,h,1,0.5636334400624037,None,,,,,,,,,,,,,,,,,,,,375,2023-11-09_09h44.39.653,leap3,2022.2.5,59.993082598239035,
,,,,,,,,,,,,,,,,,,,,4,0,4,0,14,0,14,0,,,,,,rapport,w,g,upper,,,,,,,3,w,LoDemNoTar,None,h,0,0.6607786575332284,None,,,,,,,,,,,,,,,,,,,,375,2023-11-09_09h44.39.653,leap3,2022.2.5,59.993082598239035,
,,,,,,,,,,,,,,,,,,,,4,0,4,0,15,0,15,0,,,,,,mestowal,nw,h,upper,,,,,,,3,nw,LoDemNoTar,None,h,1,0.6243919497355819,None,,,,,,,,,,,,,,,,,,,,375,2023-11-09_09h44.39.653,leap3,2022.2.5,59.993082598239035,
,,,,,,,,,,,,,,,,,,,,4,0,4,0,16,0,16,0,,,,,,booster,w,g,upper,,,,,,,3,w,LoDemNoTar,None,g,1,0.5822457540780306,None,,,,,,,,,,,,,,,,,,,,375,2023-11-09_09h44.39.653,leap3,2022.2.5,59.993082598239035,
,,,,,,,,,,,,,,,,,,,,4,0,4,0,17,0,17,0,,,,,,sheerio,nw,h,upper,,,,,,,3,nw,LoDemNoTar,None,h,1,0.5822792584076524,None,,,,,,,,,,,,,,,,,,,,375,2023-11-09_09h44.39.653,leap3,2022.2.5,59.993082598239035,
,,,,,,,,,,,,,,,,,,,,4,0,4,0,18,0,18,0,,,,,,surdens,nw,h,upper,,,,,,,3,nw,LoDemNoTar,None,h,1,0.5979129737243056,None,,,,,,,,,,,,,,,,,,,,375,2023-11-09_09h44.39.653,leap3,2022.2.5,59.993082598239035,
,,,,,,,,,,,,,,,,,,,,4,0,4,0,19,0,19,0,,,,,,gremieres,nw,h,upper,,,,,,,3,nw,LoDemNoTar,None,h,1,0.5011719251051545,None,,,,,,,,,,,,,,,,,,,,375,2023-11-09_09h44.39.653,leap3,2022.2.5,59.993082598239035,
,,,,,,,,,,,,,,,,,,,,4,0,4,0,20,0,20,0,,,,,,brighten,w,g,upper,,,,,,,3,w,LoDemNoTar,None,g,1,0.6238782117143273,None,,,,,,,,,,,,,,,,,,,,375,2023-11-09_09h44.39.653,leap3,2022.2.5,59.993082598239035,
,,,,,,,,,,,,,,,,,,,,4,0,4,0,21,0,21,0,,,,,,acorn,w,g,upper,,,,,,,3,w,LoDemNoTar,None,g,1,0.5419374853372574,None,,,,,,,,,,,,,,,,,,,,375,2023-11-09_09h44.39.653,leap3,2022.2.5,59.993082598239035,
,,,,,,,,,,,,,,,,,,,,4,0,4,0,22,0,22,0,,,,,,snife,nw,h,upper,,,,,,,3,nw,LoDemNoTar,None,h,1,0.7911602379754186,None,,,,,,,,,,,,,,,,,,,,375,2023-11-09_09h44.39.653,leap3,2022.2.5,59.993082598239035,
,,,,,,,,,,,,,,,,,,,,4,0,4,0,23,0,23,0,,,,,,unstatle,nw,h,upper,,,,,,,3,nw,LoDemNoTar,None,h,1,0.7904515080153942,None,,,,,,,,,,,,,,,,,,,,375,2023-11-09_09h44.39.653,leap3,2022.2.5,59.993082598239035,
,,,,,,,,,,,,,,,,,,,,4,0,4,0,24,0,24,0,,,,,,flieves,nw,h,upper,,,,,,,3,nw,LoDemNoTar,None,h,1,0.5017463341355324,None,,,,,,,,,,,,,,,,,,,,375,2023-11-09_09h44.39.653,leap3,2022.2.5,59.993082598239035,
,,,,,,,,,,,,,,,,,,,,4,0,4,0,25,0,25,0,,,,,,mixture,w,g,upper,,,,,,,3,w,LoDemNoTar,None,g,1,0.6234840024262667,None,,,,,,,,,,,,,,,,,,,,375,2023-11-09_09h44.39.653,leap3,2022.2.5,59.993082598239035,
,,,,,,,,,,,,,,,,,,,,4,0,4,0,26,0,26,0,,,,,,riosk,nw,h,upper,,,,,,,3,nw,LoDemNoTar,None,h,1,0.49437499791383743,None,,,,,,,,,,,,,,,,,,,,375,2023-11-09_09h44.39.653,leap3,2022.2.5,59.993082598239035,
,,,,,,,,,,,,,,,,,,,,4,0,4,0,27,0,27,0,,,,,,gewer,nw,h,upper,,,,,,,3,nw,LoDemNoTar,None,h,1,0.5446622325107455,None,,,,,,,,,,,,,,,,,,,,375,2023-11-09_09h44.39.653,leap3,2022.2.5,59.993082598239035,
,,,,,,,,,,,,,,,,,,,,4,0,4,0,28,0,28,0,,,,,,acidic,w,g,upper,,,,,,,3,w,LoDemNoTar,None,g,1,0.6338834390044212,None,,,,,,,,,,,,,,,,,,,,375,2023-11-09_09h44.39.653,leap3,2022.2.5,59.993082598239035,
,,,,,,,,,,,,,,,,,,,,4,0,4,0,29,0,29,0,,,,,,insect,w,g,upper,,,,,,,3,w,LoDemNoTar,None,g,1,0.6311743874102831,None,,,,,,,,,,,,,,,,,,,,375,2023-11-09_09h44.39.653,leap3,2022.2.5,59.993082598239035,
,,,,,,,,,,,,,,,,,,,,4,0,4,0,,,,,,,,,,,,,,,,,,,,,,,,,,,,,,,,,,,,,,,,,,,,,,,375,2023-11-09_09h44.39.653,leap3,2022.2.5,59.993082598239035,
,,,,,,,,,,,,,,,,,,,,5,0,5,0,0,0,0,0,,,,,,splum,nw,h,lower,,,,,,,1,nw,HiDemTar,None,h,1,0.6451213983818889,None,,,,,,,,,,,,,,,,,,,,375,2023-11-09_09h44.39.653,leap3,2022.2.5,59.993082598239035,
,,,,,,,,,,,,,,,,,,,,5,0,5,0,1,0,1,0,,,,,,single,w,g,lower,,,,,,,1,w,HiDemTar,None,g,1,0.5624737543985248,None,,,,,,,,,,,,,,,,,,,,375,2023-11-09_09h44.39.653,leap3,2022.2.5,59.993082598239035,
,,,,,,,,,,,,,,,,,,,,5,0,5,0,2,0,2,0,,,,,,perishing,w,g,lower,,,,,,,1,w,HiDemTar,None,h,0,0.5770123796537519,None,,,,,,,,,,,,,,,,,,,,375,2023-11-09_09h44.39.653,leap3,2022.2.5,59.993082598239035,
,,,,,,,,,,,,,,,,,,,,5,0,5,0,3,0,3,0,,,,,,vergas,nw,h,lower,,,,,,,1,nw,HiDemTar,None,h,1,0.6011593081057072,None,,,,,,,,,,,,,,,,,,,,375,2023-11-09_09h44.39.653,leap3,2022.2.5,59.993082598239035,
,,,,,,,,,,,,,,,,,,,,5,0,5,0,4,0,4,0,,,,,,create,w,g,lower,,,,,,,1,w,HiDemTar,None,g,1,0.4643366765230894,None,,,,,,,,,,,,,,,,,,,,375,2023-11-09_09h44.39.653,leap3,2022.2.5,59.993082598239035,
,,,,,,,,,,,,,,,,,,,,5,0,5,0,5,0,5,0,,,,,,entertain,w,g,lower,,,,,,,1,w,HiDemTar,None,g,1,0.5733519159257412,None,,,,,,,,,,,,,,,,,,,,375,2023-11-09_09h44.39.653,leap3,2022.2.5,59.993082598239035,
,,,,,,,,,,,,,,,,,,,,5,0,5,0,6,0,6,0,,,,,,mortgage,w,g,lower,,,,,,,1,w,HiDemTar,None,h,0,0.533068098127842,None,,,,,,,,,,,,,,,,,,,,375,2023-11-09_09h44.39.653,leap3,2022.2.5,59.993082598239035,
,,,,,,,,,,,,,,,,,,,,5,0,5,0,7,0,7,0,,,,,,sponto,nw,h,lower,,,,,,,1,nw,HiDemTar,None,h,1,0.5912639508023858,None,,,,,,,,,,,,,,,,,,,,375,2023-11-09_09h44.39.653,leap3,2022.2.5,59.993082598239035,
,,,,,,,,,,,,,,,,,,,,5,0,5,0,8,0,8,0,,,,,,baladroit,nw,h,lower,,,,,,,1,nw,HiDemTar,None,h,1,0.6066275164484978,None,,,,,,,,,,,,,,,,,,,,375,2023-11-09_09h44.39.653,leap3,2022.2.5,59.993082598239035,
,,,,,,,,,,,,,,,,,,,,5,0,5,0,9,0,9,0,,,,,,sonkers,nw,h,lower,,,,,,,1,nw,HiDemTar,None,h,1,0.6132487691938877,None,,,,,,,,,,,,,,,,,,,,375,2023-11-09_09h44.39.653,leap3,2022.2.5,59.993082598239035,
,,,,,,,,,,,,,,,,,,,,5,0,5,0,10,0,10,0,,,,,,pripend,nw,h,lower,,,,,,,1,nw,HiDemTar,None,h,1,0.5158744510263205,None,,,,,,,,,,,,,,,,,,,,375,2023-11-09_09h44.39.653,leap3,2022.2.5,59.993082598239035,
,,,,,,,,,,,,,,,,,,,,5,0,5,0,11,0,11,0,,,,,,thamp,nw,h,lower,,,,,,,1,nw,HiDemTar,None,h,1,0.5585310664027929,None,,,,,,,,,,,,,,,,,,,,375,2023-11-09_09h44.39.653,leap3,2022.2.5,59.993082598239035,
,,,,,,,,,,,,,,,,,,,,5,0,5,0,12,0,12,0,,,,,,outset,w,g,lower,,,,,,,1,w,HiDemTar,None,g,1,0.5181228881701827,None,,,,,,,,,,,,,,,,,,,,375,2023-11-09_09h44.39.653,leap3,2022.2.5,59.993082598239035,
,,,,,,,,,,,,,,,,,,,,5,0,5,0,13,0,13,0,,,,,,trallion,nw,h,lower,,,,,,,1,nw,HiDemTar,None,h,1,0.5680841319262981,None,,,,,,,,,,,,,,,,,,,,375,2023-11-09_09h44.39.653,leap3,2022.2.5,59.993082598239035,
,,,,,,,,,,,,,,,,,,,,5,0,5,0,14,0,14,0,,,,,,turning,w,g,lower,,,,,,,1,w,HiDemTar,None,g,1,0.536055751144886,None,,,,,,,,,,,,,,,,,,,,375,2023-11-09_09h44.39.653,leap3,2022.2.5,59.993082598239035,
,,,,,,,,,,,,,,,,,,,,5,0,5,0,15,0,15,0,,,,,,mustled,nw,h,lower,,,,,,,1,nw,HiDemTar,None,h,1,0.6733954418450594,None,,,,,,,,,,,,,,,,,,,,375,2023-11-09_09h44.39.653,leap3,2022.2.5,59.993082598239035,
,,,,,,,,,,,,,,,,,,,,5,0,5,0,16,0,16,0,,,,,,accessory,w,g,lower,,,,,,,1,w,HiDemTar,None,g,1,0.4534138422459364,None,,,,,,,,,,,,,,,,,,,,375,2023-11-09_09h44.39.653,leap3,2022.2.5,59.993082598239035,
,,,,,,,,,,,,,,,,,,,,5,0,5,0,17,0,17,0,,,,,,bengths,nw,h,lower,,,,,,,1,nw,HiDemTar,None,h,1,0.5460483012720942,None,,,,,,,,,,,,,,,,,,,,375,2023-11-09_09h44.39.653,leap3,2022.2.5,59.993082598239035,
,,,,,,,,,,,,,,,,,,,,5,0,5,0,18,0,18,0,,,,,,courier,w,g,lower,,,,,,,1,w,HiDemTar,None,g,1,0.6913325302302837,None,,,,,,,,,,,,,,,,,,,,375,2023-11-09_09h44.39.653,leap3,2022.2.5,59.993082598239035,
,,,,,,,,,,,,,,,,,,,,5,0,5,0,19,0,19,0,,,,,,bailmenz,nw,h,lower,,,,,,,1,nw,HiDemTar,None,h,1,0.5026280209422112,None,,,,,,,,,,,,,,,,,,,,375,2023-11-09_09h44.39.653,leap3,2022.2.5,59.993082598239035,
,,,,,,,,,,,,,,,,,,,,5,0,5,0,20,0,20,0,,,,,,boulder,w,g,lower,,,,,,,1,w,HiDemTar,None,g,1,0.528394041582942,None,,,,,,,,,,,,,,,,,,,,375,2023-11-09_09h44.39.653,leap3,2022.2.5,59.993082598239035,
,,,,,,,,,,,,,,,,,,,,5,0,5,0,21,0,21,0,,,,,,harfing,nw,h,lower,,,,,,,1,nw,HiDemTar,None,h,1,0.5953660132363439,None,,,,,,,,,,,,,,,,,,,,375,2023-11-09_09h44.39.653,leap3,2022.2.5,59.993082598239035,
,,,,,,,,,,,,,,,,,,,,5,0,5,0,22,0,22,0,,,,,,marvel,w,g,lower,,,,,,,1,w,HiDemTar,None,g,1,0.6015544207766652,None,,,,,,,,,,,,,,,,,,,,375,2023-11-09_09h44.39.653,leap3,2022.2.5,59.993082598239035,
,,,,,,,,,,,,,,,,,,,,5,0,5,0,23,0,23,0,,,,,,kangaroo,target,q,lower,,,,,,,1,target,HiDemTar,None,g,0,0.7202769694849849,None,,,,,,,,,,,,,,,,,,,,375,2023-11-09_09h44.39.653,leap3,2022.2.5,59.993082598239035,
,,,,,,,,,,,,,,,,,,,,5,0,5,0,24,0,24,0,,,,,,encrusted,w,g,lower,,,,,,,1,aftertar1,HiDemTar,None,g,1,1.386181378737092,None,,,,,,,,,,,,,,,,,,,,375,2023-11-09_09h44.39.653,leap3,2022.2.5,59.993082598239035,
,,,,,,,,,,,,,,,,,,,,5,0,5,0,25,0,25,0,,,,,,cassette,w,g,lower,,,,,,,1,aftertar2,HiDemTar,None,g,1,0.9535557087510824,None,,,,,,,,,,,,,,,,,,,,375,2023-11-09_09h44.39.653,leap3,2022.2.5,59.993082598239035,
,,,,,,,,,,,,,,,,,,,,5,0,5,0,26,0,26,0,,,,,,pimorous,nw,h,lower,,,,,,,1,aftertar3,HiDemTar,None,h,1,1.1050431355834007,None,,,,,,,,,,,,,,,,,,,,375,2023-11-09_09h44.39.653,leap3,2022.2.5,59.993082598239035,
,,,,,,,,,,,,,,,,,,,,5,0,5,0,27,0,27,0,,,,,,prame,nw,h,lower,,,,,,,1,nw,HiDemTar,None,h,1,0.7474957648664713,None,,,,,,,,,,,,,,,,,,,,375,2023-11-09_09h44.39.653,leap3,2022.2.5,59.993082598239035,
,,,,,,,,,,,,,,,,,,,,5,0,5,0,28,0,28,0,,,,,,category,w,g,lower,,,,,,,1,nw,HiDemTar,None,g,1,0.6281616808846593,None,,,,,,,,,,,,,,,,,,,,375,2023-11-09_09h44.39.653,leap3,2022.2.5,59.993082598239035,
,,,,,,,,,,,,,,,,,,,,5,0,5,0,29,0,29,0,,,,,,antonym,w,g,lower,,,,,,,1,w,HiDemTar,None,g,1,0.8988280445337296,None,,,,,,,,,,,,,,,,,,,,375,2023-11-09_09h44.39.653,leap3,2022.2.5,59.993082598239035,
,,,,,,,,,,,,,,,,,,,,5,0,5,0,,,,,,,,,,,,,,,,,,,,,,,,,,,,,,,,,,,,,,,,,,,,,,,375,2023-11-09_09h44.39.653,leap3,2022.2.5,59.993082598239035,
,,,,,,,,,,,,,,,,,,,,6,0,6,0,0,0,0,0,,,,,,inforl,nw,h,upper,,,,,,,3,nw,LoDemNoTar,None,h,1,0.7008913308382034,None,,,,,,,,,,,,,,,,,,,,375,2023-11-09_09h44.39.653,leap3,2022.2.5,59.993082598239035,
,,,,,,,,,,,,,,,,,,,,6,0,6,0,1,0,1,0,,,,,,arrive,w,g,upper,,,,,,,3,w,LoDemNoTar,None,g,1,0.4874736340716481,None,,,,,,,,,,,,,,,,,,,,375,2023-11-09_09h44.39.653,leap3,2022.2.5,59.993082598239035,
,,,,,,,,,,,,,,,,,,,,6,0,6,0,2,0,2,0,,,,,,caution,w,g,upper,,,,,,,3,w,LoDemNoTar,None,g,1,0.4588452251628041,None,,,,,,,,,,,,,,,,,,,,375,2023-11-09_09h44.39.653,leap3,2022.2.5,59.993082598239035,
,,,,,,,,,,,,,,,,,,,,6,0,6,0,3,0,3,0,,,,,,sopes,nw,h,upper,,,,,,,3,nw,LoDemNoTar,None,h,1,0.6714572999626398,None,,,,,,,,,,,,,,,,,,,,375,2023-11-09_09h44.39.653,leap3,2022.2.5,59.993082598239035,
,,,,,,,,,,,,,,,,,,,,6,0,6,0,4,0,4,0,,,,,,arcients,nw,h,upper,,,,,,,3,nw,LoDemNoTar,None,h,1,0.6994364410638809,None,,,,,,,,,,,,,,,,,,,,375,2023-11-09_09h44.39.653,leap3,2022.2.5,59.993082598239035,
,,,,,,,,,,,,,,,,,,,,6,0,6,0,5,0,5,0,,,,,,currowing,nw,h,upper,,,,,,,3,nw,LoDemNoTar,None,h,1,0.6546874437481165,None,,,,,,,,,,,,,,,,,,,,375,2023-11-09_09h44.39.653,leap3,2022.2.5,59.993082598239035,
,,,,,,,,,,,,,,,,,,,,6,0,6,0,6,0,6,0,,,,,,fillings,w,g,upper,,,,,,,3,w,LoDemNoTar,None,g,1,0.786364839412272,None,,,,,,,,,,,,,,,,,,,,375,2023-11-09_09h44.39.653,leap3,2022.2.5,59.993082598239035,
,,,,,,,,,,,,,,,,,,,,6,0,6,0,7,0,7,0,,,,,,pester,w,g,upper,,,,,,,3,w,LoDemNoTar,None,g,1,0.8015952911227942,None,,,,,,,,,,,,,,,,,,,,375,2023-11-09_09h44.39.653,leap3,2022.2.5,59.993082598239035,
,,,,,,,,,,,,,,,,,,,,6,0,6,0,8,0,8,0,,,,,,ringlat,nw,h,upper,,,,,,,3,nw,LoDemNoTar,None,h,1,0.560277234762907,None,,,,,,,,,,,,,,,,,,,,375,2023-11-09_09h44.39.653,leap3,2022.2.5,59.993082598239035,
,,,,,,,,,,,,,,,,,,,,6,0,6,0,9,0,9,0,,,,,,agony,w,g,upper,,,,,,,3,w,LoDemNoTar,None,g,1,0.5528923152014613,None,,,,,,,,,,,,,,,,,,,,375,2023-11-09_09h44.39.653,leap3,2022.2.5,59.993082598239035,
,,,,,,,,,,,,,,,,,,,,6,0,6,0,10,0,10,0,,,,,,unversed,w,g,upper,,,,,,,3,w,LoDemNoTar,None,h,0,1.1135560469701886,None,,,,,,,,,,,,,,,,,,,,375,2023-11-09_09h44.39.653,leap3,2022.2.5,59.993082598239035,
,,,,,,,,,,,,,,,,,,,,6,0,6,0,11,0,11,0,,,,,,omission,w,g,upper,,,,,,,3,w,LoDemNoTar,None,g,1,0.8361347131431103,None,,,,,,,,,,,,,,,,,,,,375,2023-11-09_09h44.39.653,leap3,2022.2.5,59.993082598239035,
,,,,,,,,,,,,,,,,,,,,6,0,6,0,12,0,12,0,,,,,,bropic,nw,h,upper,,,,,,,3,nw,LoDemNoTar,None,h,1,0.6974759632721543,None,,,,,,,,,,,,,,,,,,,,375,2023-11-09_09h44.39.653,leap3,2022.2.5,59.993082598239035,
,,,,,,,,,,,,,,,,,,,,6,0,6,0,13,0,13,0,,,,,,paranoid,w,g,upper,,,,,,,3,w,LoDemNoTar,None,g,1,0.69189184717834,None,,,,,,,,,,,,,,,,,,,,375,2023-11-09_09h44.39.653,leap3,2022.2.5,59.993082598239035,
,,,,,,,,,,,,,,,,,,,,6,0,6,0,14,0,14,0,,,,,,lancos,nw,h,upper,,,,,,,3,nw,LoDemNoTar,None,h,1,0.5760823972523212,None,,,,,,,,,,,,,,,,,,,,375,2023-11-09_09h44.39.653,leap3,2022.2.5,59.993082598239035,
,,,,,,,,,,,,,,,,,,,,6,0,6,0,15,0,15,0,,,,,,shurk,nw,h,upper,,,,,,,3,nw,LoDemNoTar,None,g,0,0.5750624667853117,None,,,,,,,,,,,,,,,,,,,,375,2023-11-09_09h44.39.653,leap3,2022.2.5,59.993082598239035,
,,,,,,,,,,,,,,,,,,,,6,0,6,0,16,0,16,0,,,,,,miability,nw,h,upper,,,,,,,3,nw,LoDemNoTar,None,h,1,0.6620436869561672,None,,,,,,,,,,,,,,,,,,,,375,2023-11-09_09h44.39.653,leap3,2022.2.5,59.993082598239035,
,,,,,,,,,,,,,,,,,,,,6,0,6,0,17,0,17,0,,,,,,chyme,nw,h,upper,,,,,,,3,nw,LoDemNoTar,None,h,1,0.6418400509282947,None,,,,,,,,,,,,,,,,,,,,375,2023-11-09_09h44.39.653,leap3,2022.2.5,59.993082598239035,
,,,,,,,,,,,,,,,,,,,,6,0,6,0,18,0,18,0,,,,,,chraps,nw,h,upper,,,,,,,3,nw,LoDemNoTar,None,h,1,0.5750953676179051,None,,,,,,,,,,,,,,,,,,,,375,2023-11-09_09h44.39.653,leap3,2022.2.5,59.993082598239035,
,,,,,,,,,,,,,,,,,,,,6,0,6,0,19,0,19,0,,,,,,addma,nw,h,upper,,,,,,,3,nw,LoDemNoTar,None,h,1,0.6310566682368517,None,,,,,,,,,,,,,,,,,,,,375,2023-11-09_09h44.39.653,leap3,2022.2.5,59.993082598239035,
,,,,,,,,,,,,,,,,,,,,6,0,6,0,20,0,20,0,,,,,,extruded,w,g,upper,,,,,,,3,w,LoDemNoTar,None,g,1,0.5956618199124932,None,,,,,,,,,,,,,,,,,,,,375,2023-11-09_09h44.39.653,leap3,2022.2.5,59.993082598239035,
,,,,,,,,,,,,,,,,,,,,6,0,6,0,21,0,21,0,,,,,,retreat,w,g,upper,,,,,,,3,w,LoDemNoTar,None,g,1,0.5868491791188717,None,,,,,,,,,,,,,,,,,,,,375,2023-11-09_09h44.39.653,leap3,2022.2.5,59.993082598239035,
,,,,,,,,,,,,,,,,,,,,6,0,6,0,22,0,22,0,,,,,,overwork,w,g,upper,,,,,,,3,w,LoDemNoTar,None,g,1,0.4814974209293723,None,,,,,,,,,,,,,,,,,,,,375,2023-11-09_09h44.39.653,leap3,2022.2.5,59.993082598239035,
,,,,,,,,,,,,,,,,,,,,6,0,6,0,23,0,23,0,,,,,,hustle,w,g,upper,,,,,,,3,w,LoDemNoTar,None,g,1,0.5079265926033258,None,,,,,,,,,,,,,,,,,,,,375,2023-11-09_09h44.39.653,leap3,2022.2.5,59.993082598239035,
,,,,,,,,,,,,,,,,,,,,6,0,6,0,24,0,24,0,,,,,,anterior,w,g,upper,,,,,,,3,w,LoDemNoTar,None,g,1,0.5659531122073531,None,,,,,,,,,,,,,,,,,,,,375,2023-11-09_09h44.39.653,leap3,2022.2.5,59.993082598239035,
,,,,,,,,,,,,,,,,,,,,6,0,6,0,25,0,25,0,,,,,,nearsipe,nw,h,upper,,,,,,,3,nw,LoDemNoTar,None,h,1,1.2138027139008045,None,,,,,,,,,,,,,,,,,,,,375,2023-11-09_09h44.39.653,leap3,2022.2.5,59.993082598239035,
,,,,,,,,,,,,,,,,,,,,6,0,6,0,26,0,26,0,,,,,,mebase,nw,h,upper,,,,,,,3,nw,LoDemNoTar,None,h,1,0.4924284052103758,None,,,,,,,,,,,,,,,,,,,,375,2023-11-09_09h44.39.653,leap3,2022.2.5,59.993082598239035,
,,,,,,,,,,,,,,,,,,,,6,0,6,0,27,0,27,0,,,,,,hecture,nw,h,upper,,,,,,,3,nw,LoDemNoTar,None,h,1,0.5516629051417112,None,,,,,,,,,,,,,,,,,,,,375,2023-11-09_09h44.39.653,leap3,2022.2.5,59.993082598239035,
,,,,,,,,,,,,,,,,,,,,6,0,6,0,28,0,28,0,,,,,,cobalt,w,g,upper,,,,,,,3,w,LoDemNoTar,None,g,1,0.7443580944091082,None,,,,,,,,,,,,,,,,,,,,375,2023-11-09_09h44.39.653,leap3,2022.2.5,59.993082598239035,
,,,,,,,,,,,,,,,,,,,,6,0,6,0,29,0,29,0,,,,,,whirlpool,w,g,upper,,,,,,,3,w,LoDemNoTar,None,g,1,0.4976744567975402,None,,,,,,,,,,,,,,,,,,,,375,2023-11-09_09h44.39.653,leap3,2022.2.5,59.993082598239035,
,,,,,,,,,,,,,,,,,,,,6,0,6,0,,,,,,,,,,,,,,,,,,,,,,,,,,,,,,,,,,,,,,,,,,,,,,,375,2023-11-09_09h44.39.653,leap3,2022.2.5,59.993082598239035,
,,,,,,,,,,,,,,,,,,,,7,0,7,0,0,0,0,0,,,,,,derisury,nw,h,lower,,,,,,,1,nw,HiDemTar,None,h,1,0.6358001492917538,None,,,,,,,,,,,,,,,,,,,,375,2023-11-09_09h44.39.653,leap3,2022.2.5,59.993082598239035,
,,,,,,,,,,,,,,,,,,,,7,0,7,0,1,0,1,0,,,,,,itself,w,g,lower,,,,,,,1,w,HiDemTar,None,g,1,0.5291673662140965,None,,,,,,,,,,,,,,,,,,,,375,2023-11-09_09h44.39.653,leap3,2022.2.5,59.993082598239035,
,,,,,,,,,,,,,,,,,,,,7,0,7,0,2,0,2,0,,,,,,roaned,nw,h,lower,,,,,,,1,nw,HiDemTar,None,h,1,0.5391596145927906,None,,,,,,,,,,,,,,,,,,,,375,2023-11-09_09h44.39.653,leap3,2022.2.5,59.993082598239035,
,,,,,,,,,,,,,,,,,,,,7,0,7,0,3,0,3,0,,,,,,traze,nw,h,lower,,,,,,,1,nw,HiDemTar,None,h,1,0.5005975151434541,None,,,,,,,,,,,,,,,,,,,,375,2023-11-09_09h44.39.653,leap3,2022.2.5,59.993082598239035,
,,,,,,,,,,,,,,,,,,,,7,0,7,0,4,0,4,0,,,,,,anonymous,w,g,lower,,,,,,,1,w,HiDemTar,None,g,1,0.6391288861632347,None,,,,,,,,,,,,,,,,,,,,375,2023-11-09_09h44.39.653,leap3,2022.2.5,59.993082598239035,
,,,,,,,,,,,,,,,,,,,,7,0,7,0,5,0,5,0,,,,,,geborn,nw,h,lower,,,,,,,1,nw,HiDemTar,None,h,1,0.5244057737290859,None,,,,,,,,,,,,,,,,,,,,375,2023-11-09_09h44.39.653,leap3,2022.2.5,59.993082598239035,
,,,,,,,,,,,,,,,,,,,,7,0,7,0,6,0,6,0,,,,,,persona,w,g,lower,,,,,,,1,w,HiDemTar,None,g,1,0.7103631999343634,None,,,,,,,,,,,,,,,,,,,,375,2023-11-09_09h44.39.653,leap3,2022.2.5,59.993082598239035,
,,,,,,,,,,,,,,,,,,,,7,0,7,0,7,0,7,0,,,,,,poughest,nw,h,lower,,,,,,,1,nw,HiDemTar,None,h,1,0.5118662621825933,None,,,,,,,,,,,,,,,,,,,,375,2023-11-09_09h44.39.653,leap3,2022.2.5,59.993082598239035,
,,,,,,,,,,,,,,,,,,,,7,0,7,0,8,0,8,0,,,,,,arrival,w,g,lower,,,,,,,1,w,HiDemTar,None,g,1,0.4328377302736044,None,,,,,,,,,,,,,,,,,,,,375,2023-11-09_09h44.39.653,leap3,2022.2.5,59.993082598239035,
,,,,,,,,,,,,,,,,,,,,7,0,7,0,9,0,9,0,,,,,,educate,w,g,lower,,,,,,,1,w,HiDemTar,None,g,1,0.5346228964626789,None,,,,,,,,,,,,,,,,,,,,375,2023-11-09_09h44.39.653,leap3,2022.2.5,59.993082598239035,
,,,,,,,,,,,,,,,,,,,,7,0,7,0,10,0,10,0,,,,,,kiner,nw,h,lower,,,,,,,1,nw,HiDemTar,None,h,1,0.5283560082316399,None,,,,,,,,,,,,,,,,,,,,375,2023-11-09_09h44.39.653,leap3,2022.2.5,59.993082598239035,
,,,,,,,,,,,,,,,,,,,,7,0,7,0,11,0,11,0,,,,,,inversion,w,g,lower,,,,,,,1,w,HiDemTar,None,g,1,0.5536976363509893,None,,,,,,,,,,,,,,,,,,,,375,2023-11-09_09h44.39.653,leap3,2022.2.5,59.993082598239035,
,,,,,,,,,,,,,,,,,,,,7,0,7,0,12,0,12,0,,,,,,impirt,nw,h,lower,,,,,,,1,nw,HiDemTar,None,g,0,0.7058403678238392,None,,,,,,,,,,,,,,,,,,,,375,2023-11-09_09h44.39.653,leap3,2022.2.5,59.993082598239035,
,,,,,,,,,,,,,,,,,,,,7,0,7,0,13,0,13,0,,,,,,fravity,nw,h,lower,,,,,,,1,nw,HiDemTar,None,h,1,0.6199279762804508,None,,,,,,,,,,,,,,,,,,,,375,2023-11-09_09h44.39.653,leap3,2022.2.5,59.993082598239035,
,,,,,,,,,,,,,,,,,,,,7,0,7,0,14,0,14,0,,,,,,forbid,w,g,lower,,,,,,,1,w,HiDemTar,None,g,1,0.6891652895137668,None,,,,,,,,,,,,,,,,,,,,375,2023-11-09_09h44.39.653,leap3,2022.2.5,59.993082598239035,
,,,,,,,,,,,,,,,,,,,,7,0,7,0,15,0,15,0,,,,,,tiery,nw,h,lower,,,,,,,1,nw,HiDemTar,None,h,1,0.5556526808068156,None,,,,,,,,,,,,,,,,,,,,375,2023-11-09_09h44.39.653,leap3,2022.2.5,59.993082598239035,
,,,,,,,,,,,,,,,,,,,,7,0,7,0,16,0,16,0,,,,,,glapula,nw,h,lower,,,,,,,1,nw,HiDemTar,None,h,1,0.5558226183056831,None,,,,,,,,,,,,,,,,,,,,375,2023-11-09_09h44.39.653,leap3,2022.2.5,59.993082598239035,
,,,,,,,,,,,,,,,,,,,,7,0,7,0,17,0,17,0,,,,,,resent,w,g,lower,,,,,,,1,w,HiDemTar,None,g,1,0.5723485853523016,None,,,,,,,,,,,,,,,,,,,,375,2023-11-09_09h44.39.653,leap3,2022.2.5,59.993082598239035,
,,,,,,,,,,,,,,,,,,,,7,0,7,0,18,0,18,0,,,,,,horks,nw,h,lower,,,,,,,1,nw,HiDemTar,None,h,1,0.6283442974090576,None,,,,,,,,,,,,,,,,,,,,375,2023-11-09_09h44.39.653,leap3,2022.2.5,59.993082598239035,
,,,,,,,,,,,,,,,,,,,,7,0,7,0,19,0,19,0,,,,,,aefated,nw,h,lower,,,,,,,1,nw,HiDemTar,None,h,1,0.5845455043017864,None,,,,,,,,,,,,,,,,,,,,375,2023-11-09_09h44.39.653,leap3,2022.2.5,59.993082598239035,
,,,,,,,,,,,,,,,,,,,,7,0,7,0,20,0,20,0,,,,,,ulcer,w,g,lower,,,,,,,1,w,HiDemTar,None,g,1,0.607859643176198,None,,,,,,,,,,,,,,,,,,,,375,2023-11-09_09h44.39.653,leap3,2022.2.5,59.993082598239035,
,,,,,,,,,,,,,,,,,,,,7,0,7,0,21,0,21,0,,,,,,companion,w,g,lower,,,,,,,1,w,HiDemTar,None,g,1,0.6865510167554021,None,,,,,,,,,,,,,,,,,,,,375,2023-11-09_09h44.39.653,leap3,2022.2.5,59.993082598239035,
,,,,,,,,,,,,,,,,,,,,7,0,7,0,22,0,22,0,,,,,,equitable,w,g,lower,,,,,,,1,w,HiDemTar,None,g,1,0.513850586488843,None,,,,,,,,,,,,,,,,,,,,375,2023-11-09_09h44.39.653,leap3,2022.2.5,59.993082598239035,
,,,,,,,,,,,,,,,,,,,,7,0,7,0,23,0,23,0,,,,,,legalize,w,g,lower,,,,,,,1,w,HiDemTar,None,g,1,0.6357029555365443,None,,,,,,,,,,,,,,,,,,,,375,2023-11-09_09h44.39.653,leap3,2022.2.5,59.993082598239035,
,,,,,,,,,,,,,,,,,,,,7,0,7,0,24,0,24,0,,,,,,gigoho,nw,h,lower,,,,,,,1,nw,HiDemTar,None,h,1,0.5770715409889817,None,,,,,,,,,,,,,,,,,,,,375,2023-11-09_09h44.39.653,leap3,2022.2.5,59.993082598239035,
,,,,,,,,,,,,,,,,,,,,7,0,7,0,25,0,25,0,,,,,,duplex,w,g,lower,,,,,,,1,w,HiDemTar,None,g,1,0.5683361710980535,None,,,,,,,,,,,,,,,,,,,,375,2023-11-09_09h44.39.653,leap3,2022.2.5,59.993082598239035,
,,,,,,,,,,,,,,,,,,,,7,0,7,0,26,0,26,0,,,,,,pranny,nw,h,lower,,,,,,,1,nw,HiDemTar,None,h,1,0.968326753936708,None,,,,,,,,,,,,,,,,,,,,375,2023-11-09_09h44.39.653,leap3,2022.2.5,59.993082598239035,
,,,,,,,,,,,,,,,,,,,,7,0,7,0,27,0,27,0,,,,,,flamingo,target,q,lower,,,,,,,1,target,HiDemTar,None,g,0,0.5034399824216962,None,,,,,,,,,,,,,,,,,,,,375,2023-11-09_09h44.39.653,leap3,2022.2.5,59.993082598239035,
,,,,,,,,,,,,,,,,,,,,7,0,7,0,28,0,28,0,,,,,,stranded,w,g,lower,,,,,,,1,aftertar1,HiDemTar,None,q,0,0.4583260538056493,None,q,1,,,,,,,,,,,,,,,,,,375,2023-11-09_09h44.39.653,leap3,2022.2.5,59.993082598239035,
,,,,,,,,,,,,,,,,,,,,7,0,7,0,29,0,29,0,,,,,,dingly,nw,h,lower,,,,,,,1,aftertar2,HiDemTar,None,h,1,0.8932397020980716,None,,,,,,,,,,,,,,,,,,,,375,2023-11-09_09h44.39.653,leap3,2022.2.5,59.993082598239035,
,,,,,,,,,,,,,,,,,,,,7,0,7,0,,,,,,,,,,,,,,,,,,,,,,,,,,,,,,,,,,,,,,,,,,,,,,,375,2023-11-09_09h44.39.653,leap3,2022.2.5,59.993082598239035,
,,,,,,,,,,,,,,,,,,,,8,0,8,0,0,0,0,0,,,,,,decency,w,g,upper,,,,,,,4,w,LoDemTar,None,g,1,0.6805129265412688,None,,,,,,,,,,,,,,,,,,,,375,2023-11-09_09h44.39.653,leap3,2022.2.5,59.993082598239035,
,,,,,,,,,,,,,,,,,,,,8,0,8,0,1,0,1,0,,,,,,ronic,nw,h,upper,,,,,,,4,nw,LoDemTar,None,h,1,0.684424826875329,None,,,,,,,,,,,,,,,,,,,,375,2023-11-09_09h44.39.653,leap3,2022.2.5,59.993082598239035,
,,,,,,,,,,,,,,,,,,,,8,0,8,0,2,0,2,0,,,,,,acting,w,g,upper,,,,,,,4,w,LoDemTar,None,g,1,0.6157420016825199,None,,,,,,,,,,,,,,,,,,,,375,2023-11-09_09h44.39.653,leap3,2022.2.5,59.993082598239035,
,,,,,,,,,,,,,,,,,,,,8,0,8,0,3,0,3,0,,,,,,usage,w,g,upper,,,,,,,4,w,LoDemTar,None,g,1,0.557724236510694,None,,,,,,,,,,,,,,,,,,,,375,2023-11-09_09h44.39.653,leap3,2022.2.5,59.993082598239035,
,,,,,,,,,,,,,,,,,,,,8,0,8,0,4,0,4,0,,,,,,drine,nw,h,upper,,,,,,,4,nw,LoDemTar,None,h,1,0.548715396784246,None,,,,,,,,,,,,,,,,,,,,375,2023-11-09_09h44.39.653,leap3,2022.2.5,59.993082598239035,
,,,,,,,,,,,,,,,,,,,,8,0,8,0,5,0,5,0,,,,,,huests,nw,h,upper,,,,,,,4,nw,LoDemTar,None,h,1,0.8852815814316273,None,,,,,,,,,,,,,,,,,,,,375,2023-11-09_09h44.39.653,leap3,2022.2.5,59.993082598239035,
,,,,,,,,,,,,,,,,,,,,8,0,8,0,6,0,6,0,,,,,,bullet,w,g,upper,,,,,,,4,w,LoDemTar,None,g,1,0.5686280550435185,None,,,,,,,,,,,,,,,,,,,,375,2023-11-09_09h44.39.653,leap3,2022.2.5,59.993082598239035,
,,,,,,,,,,,,,,,,,,,,8,0,8,0,7,0,7,0,,,,,,urique,nw,h,upper,,,,,,,4,nw,LoDemTar,None,h,1,0.6645646896213293,None,,,,,,,,,,,,,,,,,,,,375,2023-11-09_09h44.39.653,leap3,2022.2.5,59.993082598239035,
,,,,,,,,,,,,,,,,,,,,8,0,8,0,8,0,8,0,,,,,,vented,w,g,upper,,,,,,,4,w,LoDemTar,None,g,1,0.6205153651535511,None,,,,,,,,,,,,,,,,,,,,375,2023-11-09_09h44.39.653,leap3,2022.2.5,59.993082598239035,
,,,,,,,,,,,,,,,,,,,,8,0,8,0,9,0,9,0,,,,,,movie,w,g,upper,,,,,,,4,w,LoDemTar,None,g,1,0.5698628993704915,None,,,,,,,,,,,,,,,,,,,,375,2023-11-09_09h44.39.653,leap3,2022.2.5,59.993082598239035,
,,,,,,,,,,,,,,,,,,,,8,0,8,0,10,0,10,0,,,,,,redefloy,nw,h,upper,,,,,,,4,nw,LoDemTar,None,h,1,0.6410836298018694,None,,,,,,,,,,,,,,,,,,,,375,2023-11-09_09h44.39.653,leap3,2022.2.5,59.993082598239035,
,,,,,,,,,,,,,,,,,,,,8,0,8,0,11,0,11,0,,,,,,monkey,target,q,upper,,,,,,,4,target,LoDemTar,None,q,1,0.8537838431075215,None,q,1,,,,,,,,,,,,,,,,,,375,2023-11-09_09h44.39.653,leap3,2022.2.5,59.993082598239035,
,,,,,,,,,,,,,,,,,,,,8,0,8,0,12,0,12,0,,,,,,gettle,nw,h,upper,,,,,,,4,aftertar1,LoDemTar,None,h,1,0.760775095783174,None,,,,,,,,,,,,,,,,,,,,375,2023-11-09_09h44.39.653,leap3,2022.2.5,59.993082598239035,
,,,,,,,,,,,,,,,,,,,,8,0,8,0,13,0,13,0,,,,,,crudios,nw,h,upper,,,,,,,4,aftertar2,LoDemTar,None,h,1,0.7447375133633614,None,,,,,,,,,,,,,,,,,,,,375,2023-11-09_09h44.39.653,leap3,2022.2.5,59.993082598239035,
,,,,,,,,,,,,,,,,,,,,8,0,8,0,14,0,14,0,,,,,,tining,nw,h,upper,,,,,,,4,aftertar3,LoDemTar,None,h,1,0.6653549177572131,None,,,,,,,,,,,,,,,,,,,,375,2023-11-09_09h44.39.653,leap3,2022.2.5,59.993082598239035,
,,,,,,,,,,,,,,,,,,,,8,0,8,0,15,0,15,0,,,,,,senalize,nw,h,upper,,,,,,,4,nw,LoDemTar,None,h,1,0.8133005052804947,None,,,,,,,,,,,,,,,,,,,,375,2023-11-09_09h44.39.653,leap3,2022.2.5,59.993082598239035,
,,,,,,,,,,,,,,,,,,,,8,0,8,0,16,0,16,0,,,,,,provide,w,g,upper,,,,,,,4,nw,LoDemTar,None,g,1,0.5232910634949803,None,,,,,,,,,,,,,,,,,,,,375,2023-11-09_09h44.39.653,leap3,2022.2.5,59.993082598239035,
,,,,,,,,,,,,,,,,,,,,8,0,8,0,17,0,17,0,,,,,,rowel,nw,h,upper,,,,,,,4,w,LoDemTar,None,h,1,0.5885316580533981,None,,,,,,,,,,,,,,,,,,,,375,2023-11-09_09h44.39.653,leap3,2022.2.5,59.993082598239035,
,,,,,,,,,,,,,,,,,,,,8,0,8,0,18,0,18,0,,,,,,amms,nw,h,upper,,,,,,,4,nw,LoDemTar,None,h,1,0.6191000184044242,None,,,,,,,,,,,,,,,,,,,,375,2023-11-09_09h44.39.653,leap3,2022.2.5,59.993082598239035,
,,,,,,,,,,,,,,,,,,,,8,0,8,0,19,0,19,0,,,,,,outflow,w,g,upper,,,,,,,4,nw,LoDemTar,None,g,1,0.6164383571594954,None,,,,,,,,,,,,,,,,,,,,375,2023-11-09_09h44.39.653,leap3,2022.2.5,59.993082598239035,
,,,,,,,,,,,,,,,,,,,,8,0,8,0,20,0,20,0,,,,,,tucker,w,g,upper,,,,,,,4,w,LoDemTar,None,h,0,0.8785018604248762,None,,,,,,,,,,,,,,,,,,,,375,2023-11-09_09h44.39.653,leap3,2022.2.5,59.993082598239035,
,,,,,,,,,,,,,,,,,,,,8,0,8,0,21,0,21,0,,,,,,exclusion,w,g,upper,,,,,,,4,w,LoDemTar,None,g,1,0.4657155005261302,None,,,,,,,,,,,,,,,,,,,,375,2023-11-09_09h44.39.653,leap3,2022.2.5,59.993082598239035,
,,,,,,,,,,,,,,,,,,,,8,0,8,0,22,0,22,0,,,,,,lonnote,nw,h,upper,,,,,,,4,w,LoDemTar,None,h,1,0.5315259760245681,None,,,,,,,,,,,,,,,,,,,,375,2023-11-09_09h44.39.653,leap3,2022.2.5,59.993082598239035,
,,,,,,,,,,,,,,,,,,,,8,0,8,0,23,0,23,0,,,,,,igiom,nw,h,upper,,,,,,,4,nw,LoDemTar,None,h,1,0.5008326517418027,None,,,,,,,,,,,,,,,,,,,,375,2023-11-09_09h44.39.653,leap3,2022.2.5,59.993082598239035,
,,,,,,,,,,,,,,,,,,,,8,0,8,0,24,0,24,0,,,,,,frequency,w,g,upper,,,,,,,4,nw,LoDemTar,None,g,1,0.5519541837275028,None,,,,,,,,,,,,,,,,,,,,375,2023-11-09_09h44.39.653,leap3,2022.2.5,59.993082598239035,
,,,,,,,,,,,,,,,,,,,,8,0,8,0,25,0,25,0,,,,,,penalize,w,g,upper,,,,,,,4,w,LoDemTar,None,g,1,0.7214351445436478,None,,,,,,,,,,,,,,,,,,,,375,2023-11-09_09h44.39.653,leap3,2022.2.5,59.993082598239035,
,,,,,,,,,,,,,,,,,,,,8,0,8,0,26,0,26,0,,,,,,forgery,w,g,upper,,,,,,,4,w,LoDemTar,None,h,0,0.5866342652589083,None,,,,,,,,,,,,,,,,,,,,375,2023-11-09_09h44.39.653,leap3,2022.2.5,59.993082598239035,
,,,,,,,,,,,,,,,,,,,,8,0,8,0,27,0,27,0,,,,,,charcoal,w,g,upper,,,,,,,4,w,LoDemTar,None,g,1,0.7691035801544785,None,,,,,,,,,,,,,,,,,,,,375,2023-11-09_09h44.39.653,leap3,2022.2.5,59.993082598239035,
,,,,,,,,,,,,,,,,,,,,8,0,8,0,28,0,28,0,,,,,,except,w,g,upper,,,,,,,4,w,LoDemTar,None,g,1,0.6965154949575663,None,,,,,,,,,,,,,,,,,,,,375,2023-11-09_09h44.39.653,leap3,2022.2.5,59.993082598239035,
,,,,,,,,,,,,,,,,,,,,8,0,8,0,29,0,29,0,,,,,,fudden,nw,h,upper,,,,,,,4,w,LoDemTar,None,h,1,0.6351572209969163,None,,,,,,,,,,,,,,,,,,,,375,2023-11-09_09h44.39.653,leap3,2022.2.5,59.993082598239035,
,,,,,,,,,,,,,,,,,,,,8,0,8,0,,,,,,,,,,,,,,,,,,,,,,,,,,,,,,,,,,,,,,,,,,,,,,,375,2023-11-09_09h44.39.653,leap3,2022.2.5,59.993082598239035,
,,,,,,,,,,,,,,,,,,,,9,0,9,0,0,0,0,0,,,,,,throttle,w,g,lower,,,,,,,1,w,HiDemTar,None,g,1,0.7113097831606865,None,,,,,,,,,,,,,,,,,,,,375,2023-11-09_09h44.39.653,leap3,2022.2.5,59.993082598239035,
,,,,,,,,,,,,,,,,,,,,9,0,9,0,1,0,1,0,,,,,,favoting,nw,h,lower,,,,,,,1,nw,HiDemTar,None,h,1,0.8333278642967343,None,,,,,,,,,,,,,,,,,,,,375,2023-11-09_09h44.39.653,leap3,2022.2.5,59.993082598239035,
,,,,,,,,,,,,,,,,,,,,9,0,9,0,2,0,2,0,,,,,,oldest,w,g,lower,,,,,,,1,w,HiDemTar,None,g,1,0.5585977733135223,None,,,,,,,,,,,,,,,,,,,,375,2023-11-09_09h44.39.653,leap3,2022.2.5,59.993082598239035,
,,,,,,,,,,,,,,,,,,,,9,0,9,0,3,0,3,0,,,,,,graiking,nw,h,lower,,,,,,,1,nw,HiDemTar,None,h,1,0.5505264615640044,None,,,,,,,,,,,,,,,,,,,,375,2023-11-09_09h44.39.653,leap3,2022.2.5,59.993082598239035,
,,,,,,,,,,,,,,,,,,,,9,0,9,0,4,0,4,0,,,,,,batire,nw,h,lower,,,,,,,1,nw,HiDemTar,None,h,1,0.5511669749394059,None,,,,,,,,,,,,,,,,,,,,375,2023-11-09_09h44.39.653,leap3,2022.2.5,59.993082598239035,
,,,,,,,,,,,,,,,,,,,,9,0,9,0,5,0,5,0,,,,,,castaway,w,g,lower,,,,,,,1,w,HiDemTar,None,g,1,0.5758629571646452,None,,,,,,,,,,,,,,,,,,,,375,2023-11-09_09h44.39.653,leap3,2022.2.5,59.993082598239035,
,,,,,,,,,,,,,,,,,,,,9,0,9,0,6,0,6,0,,,,,,oleandur,nw,h,lower,,,,,,,1,nw,HiDemTar,None,h,1,0.5582720842212439,None,,,,,,,,,,,,,,,,,,,,375,2023-11-09_09h44.39.653,leap3,2022.2.5,59.993082598239035,
,,,,,,,,,,,,,,,,,,,,9,0,9,0,7,0,7,0,,,,,,explosion,w,g,lower,,,,,,,1,w,HiDemTar,None,g,1,0.558290496468544,None,,,,,,,,,,,,,,,,,,,,375,2023-11-09_09h44.39.653,leap3,2022.2.5,59.993082598239035,
,,,,,,,,,,,,,,,,,,,,9,0,9,0,8,0,8,0,,,,,,overcoat,w,g,lower,,,,,,,1,w,HiDemTar,None,g,1,0.5261160228401423,None,,,,,,,,,,,,,,,,,,,,375,2023-11-09_09h44.39.653,leap3,2022.2.5,59.993082598239035,
,,,,,,,,,,,,,,,,,,,,9,0,9,0,9,0,9,0,,,,,,ameld,nw,h,lower,,,,,,,1,nw,HiDemTar,None,h,1,0.7034678719937801,None,,,,,,,,,,,,,,,,,,,,375,2023-11-09_09h44.39.653,leap3,2022.2.5,59.993082598239035,
,,,,,,,,,,,,,,,,,,,,9,0,9,0,10,0,10,0,,,,,,standard,w,g,lower,,,,,,,1,w,HiDemTar,None,g,1,0.49739162903279066,None,,,,,,,,,,,,,,,,,,,,375,2023-11-09_09h44.39.653,leap3,2022.2.5,59.993082598239035,
,,,,,,,,,,,,,,,,,,,,9,0,9,0,11,0,11,0,,,,,,fuhrek,nw,h,lower,,,,,,,1,nw,HiDemTar,None,h,1,0.596019203774631,None,,,,,,,,,,,,,,,,,,,,375,2023-11-09_09h44.39.653,leap3,2022.2.5,59.993082598239035,
,,,,,,,,,,,,,,,,,,,,9,0,9,0,12,0,12,0,,,,,,butled,nw,h,lower,,,,,,,1,nw,HiDemTar,None,h,1,0.6186979617923498,None,,,,,,,,,,,,,,,,,,,,375,2023-11-09_09h44.39.653,leap3,2022.2.5,59.993082598239035,
,,,,,,,,,,,,,,,,,,,,9,0,9,0,13,0,13,0,,,,,,olgies,nw,h,lower,,,,,,,1,nw,HiDemTar,None,h,1,0.5995429325848818,None,,,,,,,,,,,,,,,,,,,,375,2023-11-09_09h44.39.653,leap3,2022.2.5,59.993082598239035,
,,,,,,,,,,,,,,,,,,,,9,0,9,0,14,0,14,0,,,,,,terming,w,g,lower,,,,,,,1,w,HiDemTar,None,h,0,0.566236543469131,None,,,,,,,,,,,,,,,,,,,,375,2023-11-09_09h44.39.653,leap3,2022.2.5,59.993082598239035,
,,,,,,,,,,,,,,,,,,,,9,0,9,0,15,0,15,0,,,,,,legalosm,nw,h,lower,,,,,,,1,nw,HiDemTar,None,h,1,0.734768807888031,None,,,,,,,,,,,,,,,,,,,,375,2023-11-09_09h44.39.653,leap3,2022.2.5,59.993082598239035,
,,,,,,,,,,,,,,,,,,,,9,0,9,0,16,0,16,0,,,,,,kraums,nw,h,lower,,,,,,,1,nw,HiDemTar,None,h,1,0.696629592217505,None,,,,,,,,,,,,,,,,,,,,375,2023-11-09_09h44.39.653,leap3,2022.2.5,59.993082598239035,
,,,,,,,,,,,,,,,,,,,,9,0,9,0,17,0,17,0,,,,,,anemic,w,g,lower,,,,,,,1,w,HiDemTar,None,g,1,0.7622073469683528,None,,,,,,,,,,,,,,,,,,,,375,2023-11-09_09h44.39.653,leap3,2022.2.5,59.993082598239035,
,,,,,,,,,,,,,,,,,,,,9,0,9,0,18,0,18,0,,,,,,tapling,nw,h,lower,,,,,,,1,nw,HiDemTar,None,h,1,0.666204608976841,None,,,,,,,,,,,,,,,,,,,,375,2023-11-09_09h44.39.653,leap3,2022.2.5,59.993082598239035,
,,,,,,,,,,,,,,,,,,,,9,0,9,0,19,0,19,0,,,,,,gorilla,target,q,lower,,,,,,,1,target,HiDemTar,None,q,1,0.8061661180108786,None,q,1,,,,,,,,,,,,,,,,,,375,2023-11-09_09h44.39.653,leap3,2022.2.5,59.993082598239035,
,,,,,,,,,,,,,,,,,,,,9,0,9,0,20,0,20,0,,,,,,slooping,nw,h,lower,,,,,,,1,aftertar1,HiDemTar,None,g,0,1.3397224331274629,None,,,,,,,,,,,,,,,,,,,,375,2023-11-09_09h44.39.653,leap3,2022.2.5,59.993082598239035,
,,,,,,,,,,,,,,,,,,,,9,0,9,0,21,0,21,0,,,,,,clume,nw,h,lower,,,,,,,1,aftertar2,HiDemTar,None,h,1,0.5967315565794706,None,,,,,,,,,,,,,,,,,,,,375,2023-11-09_09h44.39.653,leap3,2022.2.5,59.993082598239035,
,,,,,,,,,,,,,,,,,,,,9,0,9,0,22,0,22,0,,,,,,index,w,g,lower,,,,,,,1,aftertar3,HiDemTar,None,g,1,0.5554483318701386,None,,,,,,,,,,,,,,,,,,,,375,2023-11-09_09h44.39.653,leap3,2022.2.5,59.993082598239035,
,,,,,,,,,,,,,,,,,,,,9,0,9,0,23,0,23,0,,,,,,shamrock,w,g,lower,,,,,,,1,w,HiDemTar,None,g,1,0.627363302744925,None,,,,,,,,,,,,,,,,,,,,375,2023-11-09_09h44.39.653,leap3,2022.2.5,59.993082598239035,
,,,,,,,,,,,,,,,,,,,,9,0,9,0,24,0,24,0,,,,,,eaglot,nw,h,lower,,,,,,,1,w,HiDemTar,None,h,1,0.6326027140021324,None,,,,,,,,,,,,,,,,,,,,375,2023-11-09_09h44.39.653,leap3,2022.2.5,59.993082598239035,
,,,,,,,,,,,,,,,,,,,,9,0,9,0,25,0,25,0,,,,,,retain,w,g,lower,,,,,,,1,nw,HiDemTar,None,g,1,0.6210112953558564,None,,,,,,,,,,,,,,,,,,,,375,2023-11-09_09h44.39.653,leap3,2022.2.5,59.993082598239035,
,,,,,,,,,,,,,,,,,,,,9,0,9,0,26,0,26,0,,,,,,pillage,w,g,lower,,,,,,,1,w,HiDemTar,None,h,0,0.826240262016654,None,,,,,,,,,,,,,,,,,,,,375,2023-11-09_09h44.39.653,leap3,2022.2.5,59.993082598239035,
,,,,,,,,,,,,,,,,,,,,9,0,9,0,27,0,27,0,,,,,,enunciate,w,g,lower,,,,,,,1,w,HiDemTar,None,h,0,0.6795409880578518,None,,,,,,,,,,,,,,,,,,,,375,2023-11-09_09h44.39.653,leap3,2022.2.5,59.993082598239035,
,,,,,,,,,,,,,,,,,,,,9,0,9,0,28,0,28,0,,,,,,potter,w,g,lower,,,,,,,1,w,HiDemTar,None,g,1,0.8748721843585372,None,,,,,,,,,,,,,,,,,,,,375,2023-11-09_09h44.39.653,leap3,2022.2.5,59.993082598239035,
,,,,,,,,,,,,,,,,,,,,9,0,9,0,29,0,29,0,,,,,,eggays,nw,h,lower,,,,,,,1,w,HiDemTar,None,h,1,0.5748113319277763,None,,,,,,,,,,,,,,,,,,,,375,2023-11-09_09h44.39.653,leap3,2022.2.5,59.993082598239035,
,,,,,,,,,,,,,,,,,,,,9,0,9,0,,,,,,,,,,,,,,,,,,,,,,,,,,,,,,,,,,,,,,,,,,,,,,,375,2023-11-09_09h44.39.653,leap3,2022.2.5,59.993082598239035,
,,,,,,,,,,,,,,,,,,,,10,0,10,0,0,0,0,0,,,,,,committed,w,g,lower,,,,,,,1,w,HiDemTar,None,g,1,0.5027294410392642,None,,,,,,,,,,,,,,,,,,,,375,2023-11-09_09h44.39.653,leap3,2022.2.5,59.993082598239035,
,,,,,,,,,,,,,,,,,,,,10,0,10,0,1,0,1,0,,,,,,bentler,nw,h,lower,,,,,,,1,nw,HiDemTar,None,h,1,0.5198159320279956,None,,,,,,,,,,,,,,,,,,,,375,2023-11-09_09h44.39.653,leap3,2022.2.5,59.993082598239035,
,,,,,,,,,,,,,,,,,,,,10,0,10,0,2,0,2,0,,,,,,atch,nw,h,lower,,,,,,,1,nw,HiDemTar,None,h,1,0.5609802296385169,None,,,,,,,,,,,,,,,,,,,,375,2023-11-09_09h44.39.653,leap3,2022.2.5,59.993082598239035,
,,,,,,,,,,,,,,,,,,,,10,0,10,0,3,0,3,0,,,,,,flooted,nw,h,lower,,,,,,,1,nw,HiDemTar,None,h,1,0.6078379116952419,None,,,,,,,,,,,,,,,,,,,,375,2023-11-09_09h44.39.653,leap3,2022.2.5,59.993082598239035,
,,,,,,,,,,,,,,,,,,,,10,0,10,0,4,0,4,0,,,,,,rationale,w,g,lower,,,,,,,1,w,HiDemTar,None,h,0,0.5099341589957476,None,,,,,,,,,,,,,,,,,,,,375,2023-11-09_09h44.39.653,leap3,2022.2.5,59.993082598239035,
,,,,,,,,,,,,,,,,,,,,10,0,10,0,5,0,5,0,,,,,,suspect,w,g,lower,,,,,,,1,w,HiDemTar,None,g,1,0.656324646435678,None,,,,,,,,,,,,,,,,,,,,375,2023-11-09_09h44.39.653,leap3,2022.2.5,59.993082598239035,
,,,,,,,,,,,,,,,,,,,,10,0,10,0,6,0,6,0,,,,,,hodels,nw,h,lower,,,,,,,1,nw,HiDemTar,None,h,1,0.5890242671594024,None,,,,,,,,,,,,,,,,,,,,375,2023-11-09_09h44.39.653,leap3,2022.2.5,59.993082598239035,
,,,,,,,,,,,,,,,,,,,,10,0,10,0,7,0,7,0,,,,,,labitable,nw,h,lower,,,,,,,1,nw,HiDemTar,None,h,1,0.7875945521518588,None,,,,,,,,,,,,,,,,,,,,375,2023-11-09_09h44.39.653,leap3,2022.2.5,59.993082598239035,
,,,,,,,,,,,,,,,,,,,,10,0,10,0,8,0,8,0,,,,,,stalemate,w,g,lower,,,,,,,1,w,HiDemTar,None,g,1,0.7620902312919497,None,,,,,,,,,,,,,,,,,,,,375,2023-11-09_09h44.39.653,leap3,2022.2.5,59.993082598239035,
,,,,,,,,,,,,,,,,,,,,10,0,10,0,9,0,9,0,,,,,,surface,w,g,lower,,,,,,,1,w,HiDemTar,None,g,1,0.5773003390058875,None,,,,,,,,,,,,,,,,,,,,375,2023-11-09_09h44.39.653,leap3,2022.2.5,59.993082598239035,
,,,,,,,,,,,,,,,,,,,,10,0,10,0,10,0,10,0,,,,,,solidity,w,g,lower,,,,,,,1,w,HiDemTar,None,g,1,0.4894866328686476,None,,,,,,,,,,,,,,,,,,,,375,2023-11-09_09h44.39.653,leap3,2022.2.5,59.993082598239035,
,,,,,,,,,,,,,,,,,,,,10,0,10,0,11,0,11,0,,,,,,giraffe,target,q,lower,,,,,,,1,target,HiDemTar,None,g,0,0.4671275271102786,None,,,,,,,,,,,,,,,,,,,,375,2023-11-09_09h44.39.653,leap3,2022.2.5,59.993082598239035,
,,,,,,,,,,,,,,,,,,,,10,0,10,0,12,0,12,0,,,,,,enabled,w,g,lower,,,,,,,1,aftertar1,HiDemTar,None,q,0,0.8791429763659835,None,q,1,,,,,,,,,,,,,,,,,,375,2023-11-09_09h44.39.653,leap3,2022.2.5,59.993082598239035,
,,,,,,,,,,,,,,,,,,,,10,0,10,0,13,0,13,0,,,,,,trooper,w,g,lower,,,,,,,1,aftertar2,HiDemTar,None,g,1,0.6104645589366555,None,,,,,,,,,,,,,,,,,,,,375,2023-11-09_09h44.39.653,leap3,2022.2.5,59.993082598239035,
,,,,,,,,,,,,,,,,,,,,10,0,10,0,14,0,14,0,,,,,,antique,w,g,lower,,,,,,,1,aftertar3,HiDemTar,None,g,1,0.6483381511643529,None,,,,,,,,,,,,,,,,,,,,375,2023-11-09_09h44.39.653,leap3,2022.2.5,59.993082598239035,
,,,,,,,,,,,,,,,,,,,,10,0,10,0,15,0,15,0,,,,,,brouhuha,nw,h,lower,,,,,,,1,w,HiDemTar,None,h,1,0.7569775953888893,None,,,,,,,,,,,,,,,,,,,,375,2023-11-09_09h44.39.653,leap3,2022.2.5,59.993082598239035,
,,,,,,,,,,,,,,,,,,,,10,0,10,0,16,0,16,0,,,,,,lovud,nw,h,lower,,,,,,,1,nw,HiDemTar,None,h,1,0.6449710801243782,None,,,,,,,,,,,,,,,,,,,,375,2023-11-09_09h44.39.653,leap3,2022.2.5,59.993082598239035,
,,,,,,,,,,,,,,,,,,,,10,0,10,0,17,0,17,0,,,,,,gymnasium,w,g,lower,,,,,,,1,nw,HiDemTar,None,g,1,0.6655812999233603,None,,,,,,,,,,,,,,,,,,,,375,2023-11-09_09h44.39.653,leap3,2022.2.5,59.993082598239035,
,,,,,,,,,,,,,,,,,,,,10,0,10,0,18,0,18,0,,,,,,erlighten,nw,h,lower,,,,,,,1,w,HiDemTar,None,h,1,0.7575390255078673,None,,,,,,,,,,,,,,,,,,,,375,2023-11-09_09h44.39.653,leap3,2022.2.5,59.993082598239035,
,,,,,,,,,,,,,,,,,,,,10,0,10,0,19,0,19,0,,,,,,expounded,w,g,lower,,,,,,,1,nw,HiDemTar,None,g,1,0.6376136289909482,None,,,,,,,,,,,,,,,,,,,,375,2023-11-09_09h44.39.653,leap3,2022.2.5,59.993082598239035,
,,,,,,,,,,,,,,,,,,,,10,0,10,0,20,0,20,0,,,,,,felevance,nw,h,lower,,,,,,,1,w,HiDemTar,None,h,1,0.609191682189703,None,,,,,,,,,,,,,,,,,,,,375,2023-11-09_09h44.39.653,leap3,2022.2.5,59.993082598239035,
,,,,,,,,,,,,,,,,,,,,10,0,10,0,21,0,21,0,,,,,,forgive,w,g,lower,,,,,,,1,nw,HiDemTar,None,g,1,0.5751258535310626,None,,,,,,,,,,,,,,,,,,,,375,2023-11-09_09h44.39.653,leap3,2022.2.5,59.993082598239035,
,,,,,,,,,,,,,,,,,,,,10,0,10,0,22,0,22,0,,,,,,threaded,w,g,lower,,,,,,,1,w,HiDemTar,None,g,1,0.9904649090021849,None,,,,,,,,,,,,,,,,,,,,375,2023-11-09_09h44.39.653,leap3,2022.2.5,59.993082598239035,
,,,,,,,,,,,,,,,,,,,,10,0,10,0,23,0,23,0,,,,,,spiud,nw,h,lower,,,,,,,1,w,HiDemTar,None,h,1,0.6450812537223101,None,,,,,,,,,,,,,,,,,,,,375,2023-11-09_09h44.39.653,leap3,2022.2.5,59.993082598239035,
,,,,,,,,,,,,,,,,,,,,10,0,10,0,24,0,24,0,,,,,,tharcely,nw,h,lower,,,,,,,1,nw,HiDemTar,None,h,1,0.7537656715139747,None,,,,,,,,,,,,,,,,,,,,375,2023-11-09_09h44.39.653,leap3,2022.2.5,59.993082598239035,
,,,,,,,,,,,,,,,,,,,,10,0,10,0,25,0,25,0,,,,,,lentils,w,g,lower,,,,,,,1,nw,HiDemTar,None,g,1,0.7297168429940939,None,,,,,,,,,,,,,,,,,,,,375,2023-11-09_09h44.39.653,leap3,2022.2.5,59.993082598239035,
,,,,,,,,,,,,,,,,,,,,10,0,10,0,26,0,26,0,,,,,,contusiok,nw,h,lower,,,,,,,1,w,HiDemTar,None,h,1,0.6190707394853234,None,,,,,,,,,,,,,,,,,,,,375,2023-11-09_09h44.39.653,leap3,2022.2.5,59.993082598239035,
,,,,,,,,,,,,,,,,,,,,10,0,10,0,27,0,27,0,,,,,,eyesight,w,g,lower,,,,,,,1,nw,HiDemTar,None,g,1,0.6550520705059171,None,,,,,,,,,,,,,,,,,,,,375,2023-11-09_09h44.39.653,leap3,2022.2.5,59.993082598239035,
,,,,,,,,,,,,,,,,,,,,10,0,10,0,28,0,28,0,,,,,,dusmy,nw,h,lower,,,,,,,1,w,HiDemTar,None,h,1,0.571795909665525,None,,,,,,,,,,,,,,,,,,,,375,2023-11-09_09h44.39.653,leap3,2022.2.5,59.993082598239035,
,,,,,,,,,,,,,,,,,,,,10,0,10,0,29,0,29,0,,,,,,ipiocy,nw,h,lower,,,,,,,1,nw,HiDemTar,None,h,1,0.7069451166316867,None,,,,,,,,,,,,,,,,,,,,375,2023-11-09_09h44.39.653,leap3,2022.2.5,59.993082598239035,
,,,,,,,,,,,,,,,,,,,,10,0,10,0,,,,,,,,,,,,,,,,,,,,,,,,,,,,,,,,,,,,,,,,,,,,,,,375,2023-11-09_09h44.39.653,leap3,2022.2.5,59.993082598239035,
,,,,,,,,,,,,,,,,,,,,11,0,11,0,0,0,0,0,,,,,,fomrade,nw,h,lower,,,,,,,2,nw,HiDemNoTar,None,h,1,0.5496601676568389,None,,,,,,,,,,,,,,,,,,,,375,2023-11-09_09h44.39.653,leap3,2022.2.5,59.993082598239035,
,,,,,,,,,,,,,,,,,,,,11,0,11,0,1,0,1,0,,,,,,result,w,g,lower,,,,,,,2,w,HiDemNoTar,None,g,1,0.502263393253088,None,,,,,,,,,,,,,,,,,,,,375,2023-11-09_09h44.39.653,leap3,2022.2.5,59.993082598239035,
,,,,,,,,,,,,,,,,,,,,11,0,11,0,2,0,2,0,,,,,,blanned,nw,h,lower,,,,,,,2,nw,HiDemNoTar,None,h,1,0.872912310063839,None,,,,,,,,,,,,,,,,,,,,375,2023-11-09_09h44.39.653,leap3,2022.2.5,59.993082598239035,
,,,,,,,,,,,,,,,,,,,,11,0,11,0,3,0,3,0,,,,,,rodeo,w,g,lower,,,,,,,2,w,HiDemNoTar,None,g,1,0.6281719440594316,None,,,,,,,,,,,,,,,,,,,,375,2023-11-09_09h44.39.653,leap3,2022.2.5,59.993082598239035,
,,,,,,,,,,,,,,,,,,,,11,0,11,0,4,0,4,0,,,,,,tentacle,w,g,lower,,,,,,,2,w,HiDemNoTar,None,g,1,0.5934559423476458,None,,,,,,,,,,,,,,,,,,,,375,2023-11-09_09h44.39.653,leap3,2022.2.5,59.993082598239035,
,,,,,,,,,,,,,,,,,,,,11,0,11,0,5,0,5,0,,,,,,alchemist,w,g,lower,,,,,,,2,w,HiDemNoTar,None,g,1,0.5990708479657769,None,,,,,,,,,,,,,,,,,,,,375,2023-11-09_09h44.39.653,leap3,2022.2.5,59.993082598239035,
,,,,,,,,,,,,,,,,,,,,11,0,11,0,6,0,6,0,,,,,,handed,w,g,lower,,,,,,,2,w,HiDemNoTar,None,g,1,0.5737473322078586,None,,,,,,,,,,,,,,,,,,,,375,2023-11-09_09h44.39.653,leap3,2022.2.5,59.993082598239035,
,,,,,,,,,,,,,,,,,,,,11,0,11,0,7,0,7,0,,,,,,valif,nw,h,lower,,,,,,,2,nw,HiDemNoTar,None,h,1,0.7970489142462611,None,,,,,,,,,,,,,,,,,,,,375,2023-11-09_09h44.39.653,leap3,2022.2.5,59.993082598239035,
,,,,,,,,,,,,,,,,,,,,11,0,11,0,8,0,8,0,,,,,,ganter,nw,h,lower,,,,,,,2,nw,HiDemNoTar,None,g,0,0.8356547811999917,None,,,,,,,,,,,,,,,,,,,,375,2023-11-09_09h44.39.653,leap3,2022.2.5,59.993082598239035,
,,,,,,,,,,,,,,,,,,,,11,0,11,0,9,0,9,0,,,,,,arbitrary,w,g,lower,,,,,,,2,w,HiDemNoTar,None,g,1,0.8171197399497032,None,,,,,,,,,,,,,,,,,,,,375,2023-11-09_09h44.39.653,leap3,2022.2.5,59.993082598239035,
,,,,,,,,,,,,,,,,,,,,11,0,11,0,10,0,10,0,,,,,,mandlers,nw,h,lower,,,,,,,2,nw,HiDemNoTar,None,h,1,0.663044904358685,None,,,,,,,,,,,,,,,,,,,,375,2023-11-09_09h44.39.653,leap3,2022.2.5,59.993082598239035,
,,,,,,,,,,,,,,,,,,,,11,0,11,0,11,0,11,0,,,,,,publish,w,g,lower,,,,,,,2,w,HiDemNoTar,None,g,1,0.5550227323547006,None,,,,,,,,,,,,,,,,,,,,375,2023-11-09_09h44.39.653,leap3,2022.2.5,59.993082598239035,
,,,,,,,,,,,,,,,,,,,,11,0,11,0,12,0,12,0,,,,,,epic,w,g,lower,,,,,,,2,w,HiDemNoTar,None,g,1,0.6341668702661991,None,,,,,,,,,,,,,,,,,,,,375,2023-11-09_09h44.39.653,leap3,2022.2.5,59.993082598239035,
,,,,,,,,,,,,,,,,,,,,11,0,11,0,13,0,13,0,,,,,,rootsie,nw,h,lower,,,,,,,2,nw,HiDemNoTar,None,h,1,0.9512490155175328,None,,,,,,,,,,,,,,,,,,,,375,2023-11-09_09h44.39.653,leap3,2022.2.5,59.993082598239035,
,,,,,,,,,,,,,,,,,,,,11,0,11,0,14,0,14,0,,,,,,lenie,nw,h,lower,,,,,,,2,nw,HiDemNoTar,None,h,1,0.5998173085972667,None,,,,,,,,,,,,,,,,,,,,375,2023-11-09_09h44.39.653,leap3,2022.2.5,59.993082598239035,
,,,,,,,,,,,,,,,,,,,,11,0,11,0,15,0,15,0,,,,,,deakers,nw,h,lower,,,,,,,2,nw,HiDemNoTar,None,h,1,0.638559608720243,None,,,,,,,,,,,,,,,,,,,,375,2023-11-09_09h44.39.653,leap3,2022.2.5,59.993082598239035,
,,,,,,,,,,,,,,,,,,,,11,0,11,0,16,0,16,0,,,,,,happen,w,g,lower,,,,,,,2,w,HiDemNoTar,None,g,1,0.7230599718168378,None,,,,,,,,,,,,,,,,,,,,375,2023-11-09_09h44.39.653,leap3,2022.2.5,59.993082598239035,
,,,,,,,,,,,,,,,,,,,,11,0,11,0,17,0,17,0,,,,,,mitro,nw,h,lower,,,,,,,2,nw,HiDemNoTar,None,h,1,0.5872098822146654,None,,,,,,,,,,,,,,,,,,,,375,2023-11-09_09h44.39.653,leap3,2022.2.5,59.993082598239035,
,,,,,,,,,,,,,,,,,,,,11,0,11,0,18,0,18,0,,,,,,uncorked,w,g,lower,,,,,,,2,w,HiDemNoTar,None,g,1,0.7541619930416346,None,,,,,,,,,,,,,,,,,,,,375,2023-11-09_09h44.39.653,leap3,2022.2.5,59.993082598239035,
,,,,,,,,,,,,,,,,,,,,11,0,11,0,19,0,19,0,,,,,,dialogues,w,g,lower,,,,,,,2,w,HiDemNoTar,None,g,1,0.7784423362463713,None,,,,,,,,,,,,,,,,,,,,375,2023-11-09_09h44.39.653,leap3,2022.2.5,59.993082598239035,
,,,,,,,,,,,,,,,,,,,,11,0,11,0,20,0,20,0,,,,,,atble,nw,h,lower,,,,,,,2,nw,HiDemNoTar,None,h,1,0.7702173851430416,None,,,,,,,,,,,,,,,,,,,,375,2023-11-09_09h44.39.653,leap3,2022.2.5,59.993082598239035,
,,,,,,,,,,,,,,,,,,,,11,0,11,0,21,0,21,0,,,,,,wrestle,w,g,lower,,,,,,,2,w,HiDemNoTar,None,g,1,0.6725868014618754,None,,,,,,,,,,,,,,,,,,,,375,2023-11-09_09h44.39.653,leap3,2022.2.5,59.993082598239035,
,,,,,,,,,,,,,,,,,,,,11,0,11,0,22,0,22,0,,,,,,frader,nw,h,lower,,,,,,,2,nw,HiDemNoTar,None,h,1,0.6045082677155733,None,,,,,,,,,,,,,,,,,,,,375,2023-11-09_09h44.39.653,leap3,2022.2.5,59.993082598239035,
,,,,,,,,,,,,,,,,,,,,11,0,11,0,23,0,23,0,,,,,,twarfs,nw,h,lower,,,,,,,2,nw,HiDemNoTar,None,h,1,0.5693286349996924,None,,,,,,,,,,,,,,,,,,,,375,2023-11-09_09h44.39.653,leap3,2022.2.5,59.993082598239035,
,,,,,,,,,,,,,,,,,,,,11,0,11,0,24,0,24,0,,,,,,larger,w,g,lower,,,,,,,2,w,HiDemNoTar,None,g,1,0.5844649113714695,None,,,,,,,,,,,,,,,,,,,,375,2023-11-09_09h44.39.653,leap3,2022.2.5,59.993082598239035,
,,,,,,,,,,,,,,,,,,,,11,0,11,0,25,0,25,0,,,,,,prawls,nw,h,lower,,,,,,,2,nw,HiDemNoTar,None,h,1,0.631741251796484,None,,,,,,,,,,,,,,,,,,,,375,2023-11-09_09h44.39.653,leap3,2022.2.5,59.993082598239035,
,,,,,,,,,,,,,,,,,,,,11,0,11,0,26,0,26,0,,,,,,purpose,w,g,lower,,,,,,,2,w,HiDemNoTar,None,g,1,0.6530119068920612,None,,,,,,,,,,,,,,,,,,,,375,2023-11-09_09h44.39.653,leap3,2022.2.5,59.993082598239035,
,,,,,,,,,,,,,,,,,,,,11,0,11,0,27,0,27,0,,,,,,company,w,g,lower,,,,,,,2,w,HiDemNoTar,None,g,1,0.8889085398986936,None,,,,,,,,,,,,,,,,,,,,375,2023-11-09_09h44.39.653,leap3,2022.2.5,59.993082598239035,
,,,,,,,,,,,,,,,,,,,,11,0,11,0,28,0,28,0,,,,,,gelented,nw,h,lower,,,,,,,2,nw,HiDemNoTar,None,h,1,0.6674367366358638,None,,,,,,,,,,,,,,,,,,,,375,2023-11-09_09h44.39.653,leap3,2022.2.5,59.993082598239035,
,,,,,,,,,,,,,,,,,,,,11,0,11,0,29,0,29,0,,,,,,scrooner,nw,h,lower,,,,,,,2,nw,HiDemNoTar,None,h,1,0.5115710599347949,None,,,,,,,,,,,,,,,,,,,,375,2023-11-09_09h44.39.653,leap3,2022.2.5,59.993082598239035,
,,,,,,,,,,,,,,,,,,,,11,0,11,0,,,,,,,,,,,,,,,,,,,,,,,,,,,,,,,,,,,,,,,,,,,,,,,375,2023-11-09_09h44.39.653,leap3,2022.2.5,59.993082598239035,
,,,,,,,,,,,,,,,,,,,,12,0,12,0,0,0,0,0,,,,,,miurnal,nw,h,upper,,,,,,,3,nw,LoDemNoTar,None,h,1,0.6890252334997058,None,,,,,,,,,,,,,,,,,,,,375,2023-11-09_09h44.39.653,leap3,2022.2.5,59.993082598239035,
,,,,,,,,,,,,,,,,,,,,12,0,12,0,1,0,1,0,,,,,,entropy,w,g,upper,,,,,,,3,w,LoDemNoTar,None,g,1,0.6996733890846372,None,,,,,,,,,,,,,,,,,,,,375,2023-11-09_09h44.39.653,leap3,2022.2.5,59.993082598239035,
,,,,,,,,,,,,,,,,,,,,12,0,12,0,2,0,2,0,,,,,,tinion,nw,h,upper,,,,,,,3,nw,LoDemNoTar,None,h,1,0.49431372433900833,None,,,,,,,,,,,,,,,,,,,,375,2023-11-09_09h44.39.653,leap3,2022.2.5,59.993082598239035,
,,,,,,,,,,,,,,,,,,,,12,0,12,0,3,0,3,0,,,,,,grieving,w,g,upper,,,,,,,3,w,LoDemNoTar,None,g,1,0.6010669432580471,None,,,,,,,,,,,,,,,,,,,,375,2023-11-09_09h44.39.653,leap3,2022.2.5,59.993082598239035,
,,,,,,,,,,,,,,,,,,,,12,0,12,0,4,0,4,0,,,,,,practice,w,g,upper,,,,,,,3,w,LoDemNoTar,None,g,1,0.44762507546693087,None,,,,,,,,,,,,,,,,,,,,375,2023-11-09_09h44.39.653,leap3,2022.2.5,59.993082598239035,
,,,,,,,,,,,,,,,,,,,,12,0,12,0,5,0,5,0,,,,,,bookend,w,g,upper,,,,,,,3,w,LoDemNoTar,None,h,0,0.5562500292435288,None,,,,,,,,,,,,,,,,,,,,375,2023-11-09_09h44.39.653,leap3,2022.2.5,59.993082598239035,
,,,,,,,,,,,,,,,,,,,,12,0,12,0,6,0,6,0,,,,,,elormity,nw,h,upper,,,,,,,3,nw,LoDemNoTar,None,h,1,0.5871307989582419,None,,,,,,,,,,,,,,,,,,,,375,2023-11-09_09h44.39.653,leap3,2022.2.5,59.993082598239035,
,,,,,,,,,,,,,,,,,,,,12,0,12,0,7,0,7,0,,,,,,embrace,w,g,upper,,,,,,,3,w,LoDemNoTar,None,g,1,0.5055441372096539,None,,,,,,,,,,,,,,,,,,,,375,2023-11-09_09h44.39.653,leap3,2022.2.5,59.993082598239035,
,,,,,,,,,,,,,,,,,,,,12,0,12,0,8,0,8,0,,,,,,drauns,nw,h,upper,,,,,,,3,nw,LoDemNoTar,None,h,1,0.5873547680675983,None,,,,,,,,,,,,,,,,,,,,375,2023-11-09_09h44.39.653,leap3,2022.2.5,59.993082598239035,
,,,,,,,,,,,,,,,,,,,,12,0,12,0,9,0,9,0,,,,,,misobeyed,nw,h,upper,,,,,,,3,nw,LoDemNoTar,None,g,0,0.6507073268294334,None,,,,,,,,,,,,,,,,,,,,375,2023-11-09_09h44.39.653,leap3,2022.2.5,59.993082598239035,
,,,,,,,,,,,,,,,,,,,,12,0,12,0,10,0,10,0,,,,,,pived,nw,h,upper,,,,,,,3,nw,LoDemNoTar,None,h,1,0.5349929574877024,None,,,,,,,,,,,,,,,,,,,,375,2023-11-09_09h44.39.653,leap3,2022.2.5,59.993082598239035,
,,,,,,,,,,,,,,,,,,,,12,0,12,0,11,0,11,0,,,,,,icepick,w,g,upper,,,,,,,3,w,LoDemNoTar,None,h,0,0.5683391904458404,None,,,,,,,,,,,,,,,,,,,,375,2023-11-09_09h44.39.653,leap3,2022.2.5,59.993082598239035,
,,,,,,,,,,,,,,,,,,,,12,0,12,0,12,0,12,0,,,,,,defeat,w,g,upper,,,,,,,3,w,LoDemNoTar,None,g,1,0.5683177588507533,None,,,,,,,,,,,,,,,,,,,,375,2023-11-09_09h44.39.653,leap3,2022.2.5,59.993082598239035,
,,,,,,,,,,,,,,,,,,,,12,0,12,0,13,0,13,0,,,,,,pressures,w,g,upper,,,,,,,3,w,LoDemNoTar,None,g,1,0.5442849276587367,None,,,,,,,,,,,,,,,,,,,,375,2023-11-09_09h44.39.653,leap3,2022.2.5,59.993082598239035,
,,,,,,,,,,,,,,,,,,,,12,0,12,0,14,0,14,0,,,,,,geadpan,nw,h,upper,,,,,,,3,nw,LoDemNoTar,None,h,1,0.736993701197207,None,,,,,,,,,,,,,,,,,,,,375,2023-11-09_09h44.39.653,leap3,2022.2.5,59.993082598239035,
,,,,,,,,,,,,,,,,,,,,12,0,12,0,15,0,15,0,,,,,,smolvers,nw,h,upper,,,,,,,3,nw,LoDemNoTar,None,h,1,0.6416021976619959,None,,,,,,,,,,,,,,,,,,,,375,2023-11-09_09h44.39.653,leap3,2022.2.5,59.993082598239035,
,,,,,,,,,,,,,,,,,,,,12,0,12,0,16,0,16,0,,,,,,cripet,nw,h,upper,,,,,,,3,nw,LoDemNoTar,None,h,1,0.6533397091552615,None,,,,,,,,,,,,,,,,,,,,375,2023-11-09_09h44.39.653,leap3,2022.2.5,59.993082598239035,
,,,,,,,,,,,,,,,,,,,,12,0,12,0,17,0,17,0,,,,,,rebool,nw,h,upper,,,,,,,3,nw,LoDemNoTar,None,h,1,0.5051692463457584,None,,,,,,,,,,,,,,,,,,,,375,2023-11-09_09h44.39.653,leap3,2022.2.5,59.993082598239035,
,,,,,,,,,,,,,,,,,,,,12,0,12,0,18,0,18,0,,,,,,target,w,g,upper,,,,,,,3,w,LoDemNoTar,None,g,1,0.5710627296939492,None,,,,,,,,,,,,,,,,,,,,375,2023-11-09_09h44.39.653,leap3,2022.2.5,59.993082598239035,
,,,,,,,,,,,,,,,,,,,,12,0,12,0,19,0,19,0,,,,,,doxing,nw,h,upper,,,,,,,3,nw,LoDemNoTar,None,h,1,0.794417136348784,None,,,,,,,,,,,,,,,,,,,,375,2023-11-09_09h44.39.653,leap3,2022.2.5,59.993082598239035,
,,,,,,,,,,,,,,,,,,,,12,0,12,0,20,0,20,0,,,,,,eugenifs,nw,h,upper,,,,,,,3,nw,LoDemNoTar,None,h,1,0.6010331371799111,None,,,,,,,,,,,,,,,,,,,,375,2023-11-09_09h44.39.653,leap3,2022.2.5,59.993082598239035,
,,,,,,,,,,,,,,,,,,,,12,0,12,0,21,0,21,0,,,,,,populace,w,g,upper,,,,,,,3,w,LoDemNoTar,None,h,0,0.6477178623899817,None,,,,,,,,,,,,,,,,,,,,375,2023-11-09_09h44.39.653,leap3,2022.2.5,59.993082598239035,
,,,,,,,,,,,,,,,,,,,,12,0,12,0,22,0,22,0,,,,,,grummer,nw,h,upper,,,,,,,3,nw,LoDemNoTar,None,h,1,0.6043359152972698,None,,,,,,,,,,,,,,,,,,,,375,2023-11-09_09h44.39.653,leap3,2022.2.5,59.993082598239035,
,,,,,,,,,,,,,,,,,,,,12,0,12,0,23,0,23,0,,,,,,unmarked,w,g,upper,,,,,,,3,w,LoDemNoTar,None,g,1,0.5463634273037314,None,,,,,,,,,,,,,,,,,,,,375,2023-11-09_09h44.39.653,leap3,2022.2.5,59.993082598239035,
,,,,,,,,,,,,,,,,,,,,12,0,12,0,24,0,24,0,,,,,,metebing,nw,h,upper,,,,,,,3,nw,LoDemNoTar,None,h,1,0.5389513419941068,None,,,,,,,,,,,,,,,,,,,,375,2023-11-09_09h44.39.653,leap3,2022.2.5,59.993082598239035,
,,,,,,,,,,,,,,,,,,,,12,0,12,0,25,0,25,0,,,,,,staircase,w,g,upper,,,,,,,3,w,LoDemNoTar,None,g,1,0.674736836925149,None,,,,,,,,,,,,,,,,,,,,375,2023-11-09_09h44.39.653,leap3,2022.2.5,59.993082598239035,
,,,,,,,,,,,,,,,,,,,,12,0,12,0,26,0,26,0,,,,,,forecast,w,g,upper,,,,,,,3,w,LoDemNoTar,None,g,1,0.5269850324839354,None,,,,,,,,,,,,,,,,,,,,375,2023-11-09_09h44.39.653,leap3,2022.2.5,59.993082598239035,
,,,,,,,,,,,,,,,,,,,,12,0,12,0,27,0,27,0,,,,,,baults,nw,h,upper,,,,,,,3,nw,LoDemNoTar,None,h,1,0.4792417408898473,None,,,,,,,,,,,,,,,,,,,,375,2023-11-09_09h44.39.653,leap3,2022.2.5,59.993082598239035,
,,,,,,,,,,,,,,,,,,,,12,0,12,0,28,0,28,0,,,,,,expired,w,g,upper,,,,,,,3,w,LoDemNoTar,None,g,1,0.5546218818053603,None,,,,,,,,,,,,,,,,,,,,375,2023-11-09_09h44.39.653,leap3,2022.2.5,59.993082598239035,
,,,,,,,,,,,,,,,,,,,,12,0,12,0,29,0,29,0,,,,,,warmer,w,g,upper,,,,,,,3,w,LoDemNoTar,None,g,1,0.5385405318811536,None,,,,,,,,,,,,,,,,,,,,375,2023-11-09_09h44.39.653,leap3,2022.2.5,59.993082598239035,
,,,,,,,,,,,,,,,,,,,,12,0,12,0,,,,,,,,,,,,,,,,,,,,,,,,,,,,,,,,,,,,,,,,,,,,,,,375,2023-11-09_09h44.39.653,leap3,2022.2.5,59.993082598239035,
,,,,,,,,,,,,,,,,,,,,13,0,13,0,0,0,0,0,,,,,,ilterfere,nw,h,upper,,,,,,,3,nw,LoDemNoTar,None,h,1,0.5632461737841368,None,,,,,,,,,,,,,,,,,,,,375,2023-11-09_09h44.39.653,leap3,2022.2.5,59.993082598239035,
,,,,,,,,,,,,,,,,,,,,13,0,13,0,1,0,1,0,,,,,,amidst,w,g,upper,,,,,,,3,w,LoDemNoTar,None,g,1,0.6908287517726421,None,,,,,,,,,,,,,,,,,,,,375,2023-11-09_09h44.39.653,leap3,2022.2.5,59.993082598239035,
,,,,,,,,,,,,,,,,,,,,13,0,13,0,2,0,2,0,,,,,,flougy,nw,h,upper,,,,,,,3,nw,LoDemNoTar,None,h,1,0.614406643435359,None,,,,,,,,,,,,,,,,,,,,375,2023-11-09_09h44.39.653,leap3,2022.2.5,59.993082598239035,
,,,,,,,,,,,,,,,,,,,,13,0,13,0,3,0,3,0,,,,,,garment,w,g,upper,,,,,,,3,w,LoDemNoTar,None,g,1,0.651343010365963,None,,,,,,,,,,,,,,,,,,,,375,2023-11-09_09h44.39.653,leap3,2022.2.5,59.993082598239035,
,,,,,,,,,,,,,,,,,,,,13,0,13,0,4,0,4,0,,,,,,smallash,nw,h,upper,,,,,,,3,nw,LoDemNoTar,None,h,1,0.5758659755811095,None,,,,,,,,,,,,,,,,,,,,375,2023-11-09_09h44.39.653,leap3,2022.2.5,59.993082598239035,
,,,,,,,,,,,,,,,,,,,,13,0,13,0,5,0,5,0,,,,,,obviously,w,g,upper,,,,,,,3,w,LoDemNoTar,None,g,1,0.5671927854418755,None,,,,,,,,,,,,,,,,,,,,375,2023-11-09_09h44.39.653,leap3,2022.2.5,59.993082598239035,
,,,,,,,,,,,,,,,,,,,,13,0,13,0,6,0,6,0,,,,,,actual,w,g,upper,,,,,,,3,w,LoDemNoTar,None,g,1,0.5189119093120098,None,,,,,,,,,,,,,,,,,,,,375,2023-11-09_09h44.39.653,leap3,2022.2.5,59.993082598239035,
,,,,,,,,,,,,,,,,,,,,13,0,13,0,7,0,7,0,,,,,,joses,nw,h,upper,,,,,,,3,nw,LoDemNoTar,None,h,1,0.5449598506093025,None,,,,,,,,,,,,,,,,,,,,375,2023-11-09_09h44.39.653,leap3,2022.2.5,59.993082598239035,
,,,,,,,,,,,,,,,,,,,,13,0,13,0,8,0,8,0,,,,,,matter,w,g,upper,,,,,,,3,w,LoDemNoTar,None,g,1,0.6095831738784909,None,,,,,,,,,,,,,,,,,,,,375,2023-11-09_09h44.39.653,leap3,2022.2.5,59.993082598239035,
,,,,,,,,,,,,,,,,,,,,13,0,13,0,9,0,9,0,,,,,,incidonts,nw,h,upper,,,,,,,3,nw,LoDemNoTar,None,h,1,0.5355130359530449,None,,,,,,,,,,,,,,,,,,,,375,2023-11-09_09h44.39.653,leap3,2022.2.5,59.993082598239035,
,,,,,,,,,,,,,,,,,,,,13,0,13,0,10,0,10,0,,,,,,neally,nw,h,upper,,,,,,,3,nw,LoDemNoTar,None,h,1,0.512070007622242,None,,,,,,,,,,,,,,,,,,,,375,2023-11-09_09h44.39.653,leap3,2022.2.5,59.993082598239035,
,,,,,,,,,,,,,,,,,,,,13,0,13,0,11,0,11,0,,,,,,theles,nw,h,upper,,,,,,,3,nw,LoDemNoTar,None,h,1,0.4907975411042571,None,,,,,,,,,,,,,,,,,,,,375,2023-11-09_09h44.39.653,leap3,2022.2.5,59.993082598239035,
,,,,,,,,,,,,,,,,,,,,13,0,13,0,12,0,12,0,,,,,,remover,w,g,upper,,,,,,,3,w,LoDemNoTar,None,g,1,0.4374864315614104,None,,,,,,,,,,,,,,,,,,,,375,2023-11-09_09h44.39.653,leap3,2022.2.5,59.993082598239035,
,,,,,,,,,,,,,,,,,,,,13,0,13,0,13,0,13,0,,,,,,browting,nw,h,upper,,,,,,,3,nw,LoDemNoTar,None,h,1,0.6172445826232433,None,,,,,,,,,,,,,,,,,,,,375,2023-11-09_09h44.39.653,leap3,2022.2.5,59.993082598239035,
,,,,,,,,,,,,,,,,,,,,13,0,13,0,14,0,14,0,,,,,,fisco,nw,h,upper,,,,,,,3,nw,LoDemNoTar,None,h,1,0.5028631575405598,None,,,,,,,,,,,,,,,,,,,,375,2023-11-09_09h44.39.653,leap3,2022.2.5,59.993082598239035,
,,,,,,,,,,,,,,,,,,,,13,0,13,0,15,0,15,0,,,,,,obtuse,w,g,upper,,,,,,,3,w,LoDemNoTar,None,h,0,0.8808384351432323,None,,,,,,,,,,,,,,,,,,,,375,2023-11-09_09h44.39.653,leap3,2022.2.5,59.993082598239035,
,,,,,,,,,,,,,,,,,,,,13,0,13,0,16,0,16,0,,,,,,binder,w,g,upper,,,,,,,3,w,LoDemNoTar,None,g,1,0.6842292314395308,None,,,,,,,,,,,,,,,,,,,,375,2023-11-09_09h44.39.653,leap3,2022.2.5,59.993082598239035,
,,,,,,,,,,,,,,,,,,,,13,0,13,0,17,0,17,0,,,,,,balign,nw,h,upper,,,,,,,3,nw,LoDemNoTar,None,h,1,0.5352404695004225,None,,,,,,,,,,,,,,,,,,,,375,2023-11-09_09h44.39.653,leap3,2022.2.5,59.993082598239035,
,,,,,,,,,,,,,,,,,,,,13,0,13,0,18,0,18,0,,,,,,showdown,w,g,upper,,,,,,,3,w,LoDemNoTar,None,g,1,0.6318918708711863,None,,,,,,,,,,,,,,,,,,,,375,2023-11-09_09h44.39.653,leap3,2022.2.5,59.993082598239035,
,,,,,,,,,,,,,,,,,,,,13,0,13,0,19,0,19,0,,,,,,latter,w,g,upper,,,,,,,3,w,LoDemNoTar,None,g,1,0.6532582109794021,None,,,,,,,,,,,,,,,,,,,,375,2023-11-09_09h44.39.653,leap3,2022.2.5,59.993082598239035,
,,,,,,,,,,,,,,,,,,,,13,0,13,0,20,0,20,0,,,,,,kilotin,nw,h,upper,,,,,,,3,nw,LoDemNoTar,None,h,1,0.5292165670543909,None,,,,,,,,,,,,,,,,,,,,375,2023-11-09_09h44.39.653,leap3,2022.2.5,59.993082598239035,
,,,,,,,,,,,,,,,,,,,,13,0,13,0,21,0,21,0,,,,,,probable,w,g,upper,,,,,,,3,w,LoDemNoTar,None,g,1,0.46502488013356924,None,,,,,,,,,,,,,,,,,,,,375,2023-11-09_09h44.39.653,leap3,2022.2.5,59.993082598239035,
,,,,,,,,,,,,,,,,,,,,13,0,13,0,22,0,22,0,,,,,,acoustic,w,g,upper,,,,,,,3,w,LoDemNoTar,None,g,1,0.5402936432510614,None,,,,,,,,,,,,,,,,,,,,375,2023-11-09_09h44.39.653,leap3,2022.2.5,59.993082598239035,
,,,,,,,,,,,,,,,,,,,,13,0,13,0,23,0,23,0,,,,,,brimitive,nw,h,upper,,,,,,,3,nw,LoDemNoTar,None,h,1,0.6294076945632696,None,,,,,,,,,,,,,,,,,,,,375,2023-11-09_09h44.39.653,leap3,2022.2.5,59.993082598239035,
,,,,,,,,,,,,,,,,,,,,13,0,13,0,24,0,24,0,,,,,,chrik,nw,h,upper,,,,,,,3,nw,LoDemNoTar,None,h,1,0.6190653061494231,None,,,,,,,,,,,,,,,,,,,,375,2023-11-09_09h44.39.653,leap3,2022.2.5,59.993082598239035,
,,,,,,,,,,,,,,,,,,,,13,0,13,0,25,0,25,0,,,,,,infested,w,g,upper,,,,,,,3,w,LoDemNoTar,None,g,1,0.552337828092277,None,,,,,,,,,,,,,,,,,,,,375,2023-11-09_09h44.39.653,leap3,2022.2.5,59.993082598239035,
,,,,,,,,,,,,,,,,,,,,13,0,13,0,26,0,26,0,,,,,,shimble,nw,h,upper,,,,,,,3,nw,LoDemNoTar,None,h,1,0.6881169844418764,None,,,,,,,,,,,,,,,,,,,,375,2023-11-09_09h44.39.653,leap3,2022.2.5,59.993082598239035,
,,,,,,,,,,,,,,,,,,,,13,0,13,0,27,0,27,0,,,,,,expected,w,g,upper,,,,,,,3,w,LoDemNoTar,None,g,1,0.7384721348062158,None,,,,,,,,,,,,,,,,,,,,375,2023-11-09_09h44.39.653,leap3,2022.2.5,59.993082598239035,
,,,,,,,,,,,,,,,,,,,,13,0,13,0,28,0,28,0,,,,,,image,w,g,upper,,,,,,,3,w,LoDemNoTar,None,g,1,0.5315286926925182,None,,,,,,,,,,,,,,,,,,,,375,2023-11-09_09h44.39.653,leap3,2022.2.5,59.993082598239035,
,,,,,,,,,,,,,,,,,,,,13,0,13,0,29,0,29,0,,,,,,nimp,nw,h,upper,,,,,,,3,nw,LoDemNoTar,None,h,1,0.5328800482675433,None,,,,,,,,,,,,,,,,,,,,375,2023-11-09_09h44.39.653,leap3,2022.2.5,59.993082598239035,
,,,,,,,,,,,,,,,,,,,,13,0,13,0,,,,,,,,,,,,,,,,,,,,,,,,,,,,,,,,,,,,,,,,,,,,,,,375,2023-11-09_09h44.39.653,leap3,2022.2.5,59.993082598239035,
,,,,,,,,,,,,,,,,,,,,14,0,14,0,0,0,0,0,,,,,,visible,w,g,upper,,,,,,,3,w,LoDemNoTar,None,g,1,0.5097367521375418,None,,,,,,,,,,,,,,,,,,,,375,2023-11-09_09h44.39.653,leap3,2022.2.5,59.993082598239035,
,,,,,,,,,,,,,,,,,,,,14,0,14,0,1,0,1,0,,,,,,plogging,nw,h,upper,,,,,,,3,nw,LoDemNoTar,None,h,1,0.7438054187223315,None,,,,,,,,,,,,,,,,,,,,375,2023-11-09_09h44.39.653,leap3,2022.2.5,59.993082598239035,
,,,,,,,,,,,,,,,,,,,,14,0,14,0,2,0,2,0,,,,,,gumdrep,nw,h,upper,,,,,,,3,nw,LoDemNoTar,None,h,1,0.5923949610441923,None,,,,,,,,,,,,,,,,,,,,375,2023-11-09_09h44.39.653,leap3,2022.2.5,59.993082598239035,
,,,,,,,,,,,,,,,,,,,,14,0,14,0,3,0,3,0,,,,,,frunted,nw,h,upper,,,,,,,3,nw,LoDemNoTar,None,h,1,0.5910348519682884,None,,,,,,,,,,,,,,,,,,,,375,2023-11-09_09h44.39.653,leap3,2022.2.5,59.993082598239035,
,,,,,,,,,,,,,,,,,,,,14,0,14,0,4,0,4,0,,,,,,brimitar,nw,h,upper,,,,,,,3,nw,LoDemNoTar,None,h,1,0.6137498300522566,None,,,,,,,,,,,,,,,,,,,,375,2023-11-09_09h44.39.653,leap3,2022.2.5,59.993082598239035,
,,,,,,,,,,,,,,,,,,,,14,0,14,0,5,0,5,0,,,,,,dealer,w,g,upper,,,,,,,3,w,LoDemNoTar,None,g,1,0.7956688832491636,None,,,,,,,,,,,,,,,,,,,,375,2023-11-09_09h44.39.653,leap3,2022.2.5,59.993082598239035,
,,,,,,,,,,,,,,,,,,,,14,0,14,0,6,0,6,0,,,,,,paying,w,g,upper,,,,,,,3,w,LoDemNoTar,None,g,1,0.8982560504227877,None,,,,,,,,,,,,,,,,,,,,375,2023-11-09_09h44.39.653,leap3,2022.2.5,59.993082598239035,
,,,,,,,,,,,,,,,,,,,,14,0,14,0,7,0,7,0,,,,,,grenavier,nw,h,upper,,,,,,,3,nw,LoDemNoTar,None,h,1,0.5880813067778945,None,,,,,,,,,,,,,,,,,,,,375,2023-11-09_09h44.39.653,leap3,2022.2.5,59.993082598239035,
,,,,,,,,,,,,,,,,,,,,14,0,14,0,8,0,8,0,,,,,,hostade,nw,h,upper,,,,,,,3,nw,LoDemNoTar,None,h,1,0.49853290151804686,None,,,,,,,,,,,,,,,,,,,,375,2023-11-09_09h44.39.653,leap3,2022.2.5,59.993082598239035,
,,,,,,,,,,,,,,,,,,,,14,0,14,0,9,0,9,0,,,,,,parlayid,nw,h,upper,,,,,,,3,nw,LoDemNoTar,None,h,1,0.4932376490905881,None,,,,,,,,,,,,,,,,,,,,375,2023-11-09_09h44.39.653,leap3,2022.2.5,59.993082598239035,
,,,,,,,,,,,,,,,,,,,,14,0,14,0,10,0,10,0,,,,,,minister,w,g,upper,,,,,,,3,w,LoDemNoTar,None,h,0,0.679857924580574,None,,,,,,,,,,,,,,,,,,,,375,2023-11-09_09h44.39.653,leap3,2022.2.5,59.993082598239035,
,,,,,,,,,,,,,,,,,,,,14,0,14,0,11,0,11,0,,,,,,plunging,w,g,upper,,,,,,,3,w,LoDemNoTar,None,g,1,0.8591799102723598,None,,,,,,,,,,,,,,,,,,,,375,2023-11-09_09h44.39.653,leap3,2022.2.5,59.993082598239035,
,,,,,,,,,,,,,,,,,,,,14,0,14,0,12,0,12,0,,,,,,trophy,w,g,upper,,,,,,,3,w,LoDemNoTar,None,g,1,0.8540579173713923,None,,,,,,,,,,,,,,,,,,,,375,2023-11-09_09h44.39.653,leap3,2022.2.5,59.993082598239035,
,,,,,,,,,,,,,,,,,,,,14,0,14,0,13,0,13,0,,,,,,corg,nw,h,upper,,,,,,,3,nw,LoDemNoTar,None,h,1,0.5142704509198666,None,,,,,,,,,,,,,,,,,,,,375,2023-11-09_09h44.39.653,leap3,2022.2.5,59.993082598239035,
,,,,,,,,,,,,,,,,,,,,14,0,14,0,14,0,14,0,,,,,,fission,w,g,upper,,,,,,,3,w,LoDemNoTar,None,g,1,0.5249442644417286,None,,,,,,,,,,,,,,,,,,,,375,2023-11-09_09h44.39.653,leap3,2022.2.5,59.993082598239035,
,,,,,,,,,,,,,,,,,,,,14,0,14,0,15,0,15,0,,,,,,buttress,w,g,upper,,,,,,,3,w,LoDemNoTar,None,g,1,0.789556841365993,None,,,,,,,,,,,,,,,,,,,,375,2023-11-09_09h44.39.653,leap3,2022.2.5,59.993082598239035,
,,,,,,,,,,,,,,,,,,,,14,0,14,0,16,0,16,0,,,,,,combat,w,g,upper,,,,,,,3,w,LoDemNoTar,None,g,1,0.5081553906202316,None,,,,,,,,,,,,,,,,,,,,375,2023-11-09_09h44.39.653,leap3,2022.2.5,59.993082598239035,
,,,,,,,,,,,,,,,,,,,,14,0,14,0,17,0,17,0,,,,,,boutique,w,g,upper,,,,,,,3,w,LoDemNoTar,None,g,1,0.4931362299248576,None,,,,,,,,,,,,,,,,,,,,375,2023-11-09_09h44.39.653,leap3,2022.2.5,59.993082598239035,
,,,,,,,,,,,,,,,,,,,,14,0,14,0,18,0,18,0,,,,,,peems,nw,h,upper,,,,,,,3,nw,LoDemNoTar,None,h,1,0.5926439827308059,None,,,,,,,,,,,,,,,,,,,,375,2023-11-09_09h44.39.653,leap3,2022.2.5,59.993082598239035,
,,,,,,,,,,,,,,,,,,,,14,0,14,0,19,0,19,0,,,,,,massacre,w,g,upper,,,,,,,3,w,LoDemNoTar,None,g,1,0.5753084700554609,None,,,,,,,,,,,,,,,,,,,,375,2023-11-09_09h44.39.653,leap3,2022.2.5,59.993082598239035,
,,,,,,,,,,,,,,,,,,,,14,0,14,0,20,0,20,0,,,,,,pypecast,nw,h,upper,,,,,,,3,nw,LoDemNoTar,None,h,1,0.5105988197028637,None,,,,,,,,,,,,,,,,,,,,375,2023-11-09_09h44.39.653,leap3,2022.2.5,59.993082598239035,
,,,,,,,,,,,,,,,,,,,,14,0,14,0,21,0,21,0,,,,,,divider,w,g,upper,,,,,,,3,w,LoDemNoTar,None,g,1,0.5526034506037831,None,,,,,,,,,,,,,,,,,,,,375,2023-11-09_09h44.39.653,leap3,2022.2.5,59.993082598239035,
,,,,,,,,,,,,,,,,,,,,14,0,14,0,22,0,22,0,,,,,,pender,nw,h,upper,,,,,,,3,nw,LoDemNoTar,None,h,1,0.6005471674725413,None,,,,,,,,,,,,,,,,,,,,375,2023-11-09_09h44.39.653,leap3,2022.2.5,59.993082598239035,
,,,,,,,,,,,,,,,,,,,,14,0,14,0,23,0,23,0,,,,,,brongs,nw,h,upper,,,,,,,3,nw,LoDemNoTar,None,h,1,0.566571893170476,None,,,,,,,,,,,,,,,,,,,,375,2023-11-09_09h44.39.653,leap3,2022.2.5,59.993082598239035,
,,,,,,,,,,,,,,,,,,,,14,0,14,0,24,0,24,0,,,,,,efficient,w,g,upper,,,,,,,3,w,LoDemNoTar,None,g,1,0.5424901628866792,None,,,,,,,,,,,,,,,,,,,,375,2023-11-09_09h44.39.653,leap3,2022.2.5,59.993082598239035,
,,,,,,,,,,,,,,,,,,,,14,0,14,0,25,0,25,0,,,,,,dumult,nw,h,upper,,,,,,,3,nw,LoDemNoTar,None,h,1,0.5271718744188547,None,,,,,,,,,,,,,,,,,,,,375,2023-11-09_09h44.39.653,leap3,2022.2.5,59.993082598239035,
,,,,,,,,,,,,,,,,,,,,14,0,14,0,26,0,26,0,,,,,,clooped,nw,h,upper,,,,,,,3,nw,LoDemNoTar,None,h,1,0.7354250168427825,None,,,,,,,,,,,,,,,,,,,,375,2023-11-09_09h44.39.653,leap3,2022.2.5,59.993082598239035,
,,,,,,,,,,,,,,,,,,,,14,0,14,0,27,0,27,0,,,,,,nores,nw,h,upper,,,,,,,3,nw,LoDemNoTar,None,h,1,0.4720910517498851,None,,,,,,,,,,,,,,,,,,,,375,2023-11-09_09h44.39.653,leap3,2022.2.5,59.993082598239035,
,,,,,,,,,,,,,,,,,,,,14,0,14,0,28,0,28,0,,,,,,oppose,w,g,upper,,,,,,,3,w,LoDemNoTar,None,g,1,0.6353983944281936,None,,,,,,,,,,,,,,,,,,,,375,2023-11-09_09h44.39.653,leap3,2022.2.5,59.993082598239035,
,,,,,,,,,,,,,,,,,,,,14,0,14,0,29,0,29,0,,,,,,issue,w,g,upper,,,,,,,3,w,LoDemNoTar,None,g,1,0.4720729412510991,None,,,,,,,,,,,,,,,,,,,,375,2023-11-09_09h44.39.653,leap3,2022.2.5,59.993082598239035,
,,,,,,,,,,,,,,,,,,,,14,0,14,0,,,,,,,,,,,,,,,,,,,,,,,,,,,,,,,,,,,,,,,,,,,,,,,375,2023-11-09_09h44.39.653,leap3,2022.2.5,59.993082598239035,
,,,,,,,,,,,,,,,,,,,,15,0,15,0,0,0,0,0,,,,,,suburb,w,g,lower,,,,,,,1,w,HiDemTar,None,g,1,1.8030531983822584,None,,,,,,,,,,,,,,,,,,,,375,2023-11-09_09h44.39.653,leap3,2022.2.5,59.993082598239035,
,,,,,,,,,,,,,,,,,,,,15,0,15,0,1,0,1,0,,,,,,ephically,nw,h,lower,,,,,,,1,nw,HiDemTar,None,h,1,0.9449287010356784,None,,,,,,,,,,,,,,,,,,,,375,2023-11-09_09h44.39.653,leap3,2022.2.5,59.993082598239035,
,,,,,,,,,,,,,,,,,,,,15,0,15,0,2,0,2,0,,,,,,plashed,nw,h,lower,,,,,,,1,nw,HiDemTar,None,h,1,0.6805050782859325,None,,,,,,,,,,,,,,,,,,,,375,2023-11-09_09h44.39.653,leap3,2022.2.5,59.993082598239035,
,,,,,,,,,,,,,,,,,,,,15,0,15,0,3,0,3,0,,,,,,setwixt,nw,h,lower,,,,,,,1,nw,HiDemTar,None,h,1,0.6352378139272332,None,,,,,,,,,,,,,,,,,,,,375,2023-11-09_09h44.39.653,leap3,2022.2.5,59.993082598239035,
,,,,,,,,,,,,,,,,,,,,15,0,15,0,4,0,4,0,,,,,,sorping,nw,h,lower,,,,,,,1,nw,HiDemTar,None,h,1,0.5530598387122154,None,,,,,,,,,,,,,,,,,,,,375,2023-11-09_09h44.39.653,leap3,2022.2.5,59.993082598239035,
,,,,,,,,,,,,,,,,,,,,15,0,15,0,5,0,5,0,,,,,,organize,w,g,lower,,,,,,,1,w,HiDemTar,None,g,1,0.5935715502128005,None,,,,,,,,,,,,,,,,,,,,375,2023-11-09_09h44.39.653,leap3,2022.2.5,59.993082598239035,
,,,,,,,,,,,,,,,,,,,,15,0,15,0,6,0,6,0,,,,,,moyeur,nw,h,lower,,,,,,,1,nw,HiDemTar,None,h,1,0.520208933390677,None,,,,,,,,,,,,,,,,,,,,375,2023-11-09_09h44.39.653,leap3,2022.2.5,59.993082598239035,
,,,,,,,,,,,,,,,,,,,,15,0,15,0,7,0,7,0,,,,,,alarm,w,g,lower,,,,,,,1,w,HiDemTar,None,g,1,0.6654089465737343,None,,,,,,,,,,,,,,,,,,,,375,2023-11-09_09h44.39.653,leap3,2022.2.5,59.993082598239035,
