demoRace_loop.thisRepN,demoRace_loop.thisTrialN,demoRace_loop.thisN,demoRace_loop.thisIndex,LDTunderstand.thisRepN,LDTunderstand.thisTrialN,LDTunderstand.thisN,LDTunderstand.thisIndex,pracBlocks.thisRepN,pracBlocks.thisTrialN,pracBlocks.thisN,pracBlocks.thisIndex,pracTrial.thisRepN,pracTrial.thisTrialN,pracTrial.thisN,pracTrial.thisIndex,PMunderstand.thisRepN,PMunderstand.thisTrialN,PMunderstand.thisN,PMunderstand.thisIndex,LDT_block.thisRepN,LDT_block.thisTrialN,LDT_block.thisN,LDT_block.thisIndex,LDT_trial.thisRepN,LDT_trial.thisTrialN,LDT_trial.thisN,LDT_trial.thisIndex,ageTextbox.text,genderTextbox.text,race,raceResp,LDTunderstand,stim,word_type,corr_key,stim_location,LDTpracKey.keys,LDTpracKey.corr,LDTpracKey.rt,PMunderstand,cueTextbox.text,intentionTextbox.text,block_type,role,block_desc,lateQResp.keys,LDTResp.keys,LDTResp.corr,LDTResp.rt,blankQResp.keys,pressedQ,PM_corr,blankQResp.rt,postQ1,Q2Textbox.text,Q3Textbox.text,Q4,Q5,Q6Key.keys,Q6Key.rt,postQ7_correct,postQ7,Q8Textbox.text,education,medTextbox.text,health,healthLimit,psych,participant,date,expName,psychopyVersion,frameRate,
0,0,0,0,,,,,,,,,,,,,,,,,,,,,,,,,18 ,Female,American Indian or Alaska Native,n,,,,,,,,,,,,,,,,,,,,,,,,,,,,,,,,,,,,,,376,2023-11-09_09h54.26.752,leap3,2022.2.5,59.99473014569988,
1,0,1,0,,,,,,,,,,,,,,,,,,,,,,,,,,,Asian,n,,,,,,,,,,,,,,,,,,,,,,,,,,,,,,,,,,,,,,376,2023-11-09_09h54.26.752,leap3,2022.2.5,59.99473014569988,
2,0,2,0,,,,,,,,,,,,,,,,,,,,,,,,,,,Black or African American,n,,,,,,,,,,,,,,,,,,,,,,,,,,,,,,,,,,,,,,376,2023-11-09_09h54.26.752,leap3,2022.2.5,59.99473014569988,
3,0,3,0,,,,,,,,,,,,,,,,,,,,,,,,,,,Native Hawaiian or other Pacific Islander,n,,,,,,,,,,,,,,,,,,,,,,,,,,,,,,,,,,,,,,376,2023-11-09_09h54.26.752,leap3,2022.2.5,59.99473014569988,
4,0,4,0,,,,,,,,,,,,,,,,,,,,,,,,,,,White,y,,,,,,,,,,,,,,,,,,,,,,,,,,,,,,,,,,,,,,376,2023-11-09_09h54.26.752,leap3,2022.2.5,59.99473014569988,
,,,,0,0,0,0,,,,,,,,,,,,,,,,,,,,,,,,,y,,,,,,,,,,,,,,,,,,,,,,,,,,,,,,,,,,,,,376,2023-11-09_09h54.26.752,leap3,2022.2.5,59.99473014569988,
,,,,,,,,0,0,0,0,0,0,0,0,,,,,,,,,,,,,,,,,,revival,w,g,upper,h,0,4.961824055761099,,,,,,,,,,,,,,,,,,,,,,,,,,,,,,376,2023-11-09_09h54.26.752,leap3,2022.2.5,59.99473014569988,
,,,,,,,,0,0,0,0,1,0,1,0,,,,,,,,,,,,,,,,,,grimace,w,g,upper,g,1,0.527137512806803,,,,,,,,,,,,,,,,,,,,,,,,,,,,,,376,2023-11-09_09h54.26.752,leap3,2022.2.5,59.99473014569988,
,,,,,,,,0,0,0,0,2,0,2,0,,,,,,,,,,,,,,,,,,julled,nw,h,upper,h,1,0.8413566998206079,,,,,,,,,,,,,,,,,,,,,,,,,,,,,,376,2023-11-09_09h54.26.752,leap3,2022.2.5,59.99473014569988,
,,,,,,,,0,0,0,0,3,0,3,0,,,,,,,,,,,,,,,,,,overshoot,w,g,upper,g,1,0.4994186204858124,,,,,,,,,,,,,,,,,,,,,,,,,,,,,,376,2023-11-09_09h54.26.752,leap3,2022.2.5,59.99473014569988,
,,,,,,,,0,0,0,0,4,0,4,0,,,,,,,,,,,,,,,,,,lumbigo,nw,h,upper,g,0,0.4085545865818858,,,,,,,,,,,,,,,,,,,,,,,,,,,,,,376,2023-11-09_09h54.26.752,leap3,2022.2.5,59.99473014569988,
,,,,,,,,0,0,0,0,5,0,5,0,,,,,,,,,,,,,,,,,,turative,nw,h,upper,h,1,0.7744710734114051,,,,,,,,,,,,,,,,,,,,,,,,,,,,,,376,2023-11-09_09h54.26.752,leap3,2022.2.5,59.99473014569988,
,,,,,,,,0,0,0,0,6,0,6,0,,,,,,,,,,,,,,,,,,infinity,w,g,upper,h,0,0.6049991934560239,,,,,,,,,,,,,,,,,,,,,,,,,,,,,,376,2023-11-09_09h54.26.752,leap3,2022.2.5,59.99473014569988,
,,,,,,,,0,0,0,0,7,0,7,0,,,,,,,,,,,,,,,,,,alolition,nw,h,upper,g,0,0.3881901912391186,,,,,,,,,,,,,,,,,,,,,,,,,,,,,,376,2023-11-09_09h54.26.752,leap3,2022.2.5,59.99473014569988,
,,,,,,,,0,0,0,0,8,0,8,0,,,,,,,,,,,,,,,,,,picture,w,g,upper,h,0,0.3949147341772914,,,,,,,,,,,,,,,,,,,,,,,,,,,,,,376,2023-11-09_09h54.26.752,leap3,2022.2.5,59.99473014569988,
,,,,,,,,0,0,0,0,9,0,9,0,,,,,,,,,,,,,,,,,,grocus,nw,h,upper,h,1,0.38453875109553337,,,,,,,,,,,,,,,,,,,,,,,,,,,,,,376,2023-11-09_09h54.26.752,leap3,2022.2.5,59.99473014569988,
,,,,,,,,0,0,0,0,10,0,10,0,,,,,,,,,,,,,,,,,,unscrew,w,g,upper,h,0,0.463178894482553,,,,,,,,,,,,,,,,,,,,,,,,,,,,,,376,2023-11-09_09h54.26.752,leap3,2022.2.5,59.99473014569988,
,,,,,,,,0,0,0,0,11,0,11,0,,,,,,,,,,,,,,,,,,busted,w,g,upper,g,1,0.3711174353957176,,,,,,,,,,,,,,,,,,,,,,,,,,,,,,376,2023-11-09_09h54.26.752,leap3,2022.2.5,59.99473014569988,
,,,,,,,,0,0,0,0,12,0,12,0,,,,,,,,,,,,,,,,,,raestro,nw,h,upper,h,1,0.6744257663376629,,,,,,,,,,,,,,,,,,,,,,,,,,,,,,376,2023-11-09_09h54.26.752,leap3,2022.2.5,59.99473014569988,
,,,,,,,,0,0,0,0,13,0,13,0,,,,,,,,,,,,,,,,,,treeps,nw,h,upper,g,0,0.27776195807382464,,,,,,,,,,,,,,,,,,,,,,,,,,,,,,376,2023-11-09_09h54.26.752,leap3,2022.2.5,59.99473014569988,
,,,,,,,,0,0,0,0,,,,,,,,,,,,,,,,,,,,,,,,,,,,,,,,,,,,,,,,,,,,,,,,,,,,,,,,,,376,2023-11-09_09h54.26.752,leap3,2022.2.5,59.99473014569988,
,,,,,,,,1,0,1,0,0,0,0,0,,,,,,,,,,,,,,,,,,sponsor,w,g,lower,g,1,0.6715530906803906,,,,,,,,,,,,,,,,,,,,,,,,,,,,,,376,2023-11-09_09h54.26.752,leap3,2022.2.5,59.99473014569988,
,,,,,,,,1,0,1,0,1,0,1,0,,,,,,,,,,,,,,,,,,reputable,w,g,lower,g,1,0.49097656924277544,,,,,,,,,,,,,,,,,,,,,,,,,,,,,,376,2023-11-09_09h54.26.752,leap3,2022.2.5,59.99473014569988,
,,,,,,,,1,0,1,0,2,0,2,0,,,,,,,,,,,,,,,,,,latador,nw,h,lower,h,1,0.558921979740262,,,,,,,,,,,,,,,,,,,,,,,,,,,,,,376,2023-11-09_09h54.26.752,leap3,2022.2.5,59.99473014569988,
,,,,,,,,1,0,1,0,3,0,3,0,,,,,,,,,,,,,,,,,,tricycle,w,g,lower,h,0,0.6388944750651717,,,,,,,,,,,,,,,,,,,,,,,,,,,,,,376,2023-11-09_09h54.26.752,leap3,2022.2.5,59.99473014569988,
,,,,,,,,1,0,1,0,4,0,4,0,,,,,,,,,,,,,,,,,,curlecs,nw,h,lower,g,0,0.8585363100282848,,,,,,,,,,,,,,,,,,,,,,,,,,,,,,376,2023-11-09_09h54.26.752,leap3,2022.2.5,59.99473014569988,
,,,,,,,,1,0,1,0,5,0,5,0,,,,,,,,,,,,,,,,,,hasking,nw,h,lower,g,0,0.7173097431659698,,,,,,,,,,,,,,,,,,,,,,,,,,,,,,376,2023-11-09_09h54.26.752,leap3,2022.2.5,59.99473014569988,
,,,,,,,,1,0,1,0,6,0,6,0,,,,,,,,,,,,,,,,,,summary,w,g,lower,h,0,0.671757138799876,,,,,,,,,,,,,,,,,,,,,,,,,,,,,,376,2023-11-09_09h54.26.752,leap3,2022.2.5,59.99473014569988,
,,,,,,,,1,0,1,0,7,0,7,0,,,,,,,,,,,,,,,,,,lurshing,nw,h,lower,h,1,0.5631508529186249,,,,,,,,,,,,,,,,,,,,,,,,,,,,,,376,2023-11-09_09h54.26.752,leap3,2022.2.5,59.99473014569988,
,,,,,,,,1,0,1,0,8,0,8,0,,,,,,,,,,,,,,,,,,hiring,w,g,lower,h,0,0.48308237036690116,,,,,,,,,,,,,,,,,,,,,,,,,,,,,,376,2023-11-09_09h54.26.752,leap3,2022.2.5,59.99473014569988,
,,,,,,,,1,0,1,0,9,0,9,0,,,,,,,,,,,,,,,,,,grutch,nw,h,lower,g,0,0.6064531896263361,,,,,,,,,,,,,,,,,,,,,,,,,,,,,,376,2023-11-09_09h54.26.752,leap3,2022.2.5,59.99473014569988,
,,,,,,,,1,0,1,0,10,0,10,0,,,,,,,,,,,,,,,,,,umpire,w,g,lower,h,0,0.39564248686656356,,,,,,,,,,,,,,,,,,,,,,,,,,,,,,376,2023-11-09_09h54.26.752,leap3,2022.2.5,59.99473014569988,
,,,,,,,,1,0,1,0,11,0,11,0,,,,,,,,,,,,,,,,,,slumber,w,g,lower,g,1,0.3061660430394113,,,,,,,,,,,,,,,,,,,,,,,,,,,,,,376,2023-11-09_09h54.26.752,leap3,2022.2.5,59.99473014569988,
,,,,,,,,1,0,1,0,12,0,12,0,,,,,,,,,,,,,,,,,,crinklo,nw,h,lower,h,1,0.7161482367664576,,,,,,,,,,,,,,,,,,,,,,,,,,,,,,376,2023-11-09_09h54.26.752,leap3,2022.2.5,59.99473014569988,
,,,,,,,,1,0,1,0,13,0,13,0,,,,,,,,,,,,,,,,,,trotch,nw,h,lower,h,1,0.6142043136060238,,,,,,,,,,,,,,,,,,,,,,,,,,,,,,376,2023-11-09_09h54.26.752,leap3,2022.2.5,59.99473014569988,
,,,,,,,,1,0,1,0,,,,,,,,,,,,,,,,,,,,,,,,,,,,,,,,,,,,,,,,,,,,,,,,,,,,,,,,,,376,2023-11-09_09h54.26.752,leap3,2022.2.5,59.99473014569988,
,,,,,,,,,,,,,,,,0,0,0,0,,,,,,,,,,,,,,,,,,,,,n,,,,,,,,,,,,,,,,,,,,,,,,,,,,,376,2023-11-09_09h54.26.752,leap3,2022.2.5,59.99473014569988,
,,,,,,,,,,,,,,,,1,0,1,0,,,,,,,,,,,,,,,,,,,,,y,,,,,,,,,,,,,,,,,,,,,,,,,,,,,376,2023-11-09_09h54.26.752,leap3,2022.2.5,59.99473014569988,
,,,,,,,,,,,,,,,,,,,,0,0,0,0,0,0,0,0,,,,,,roodies,nw,h,lower,,,,,animal,"
q
",3,nw,LoDemNoTar,None,h,1,0.7092259847559035,None,,,,,,,,,,,,,,,,,,,376,2023-11-09_09h54.26.752,leap3,2022.2.5,59.99473014569988,
,,,,,,,,,,,,,,,,,,,,0,0,0,0,1,0,1,0,,,,,,talate,nw,h,lower,,,,,,,3,nw,LoDemNoTar,None,h,1,0.6398317096754909,None,,,,,,,,,,,,,,,,,,,376,2023-11-09_09h54.26.752,leap3,2022.2.5,59.99473014569988,
,,,,,,,,,,,,,,,,,,,,0,0,0,0,2,0,2,0,,,,,,usually,w,g,lower,,,,,,,3,w,LoDemNoTar,None,g,1,0.6291559925302863,None,,,,,,,,,,,,,,,,,,,376,2023-11-09_09h54.26.752,leap3,2022.2.5,59.99473014569988,
,,,,,,,,,,,,,,,,,,,,0,0,0,0,3,0,3,0,,,,,,chappef,nw,h,lower,,,,,,,3,nw,LoDemNoTar,None,h,1,0.603193546179682,None,,,,,,,,,,,,,,,,,,,376,2023-11-09_09h54.26.752,leap3,2022.2.5,59.99473014569988,
,,,,,,,,,,,,,,,,,,,,0,0,0,0,4,0,4,0,,,,,,trallion,nw,h,lower,,,,,,,3,nw,LoDemNoTar,None,h,1,1.0817477847449481,None,,,,,,,,,,,,,,,,,,,376,2023-11-09_09h54.26.752,leap3,2022.2.5,59.99473014569988,
,,,,,,,,,,,,,,,,,,,,0,0,0,0,5,0,5,0,,,,,,renown,w,g,lower,,,,,,,3,w,LoDemNoTar,None,g,1,0.620848867110908,None,,,,,,,,,,,,,,,,,,,376,2023-11-09_09h54.26.752,leap3,2022.2.5,59.99473014569988,
,,,,,,,,,,,,,,,,,,,,0,0,0,0,6,0,6,0,,,,,,boulder,w,g,lower,,,,,,,3,w,LoDemNoTar,None,g,1,0.5227737133391201,None,,,,,,,,,,,,,,,,,,,376,2023-11-09_09h54.26.752,leap3,2022.2.5,59.99473014569988,
,,,,,,,,,,,,,,,,,,,,0,0,0,0,7,0,7,0,,,,,,glocked,nw,h,lower,,,,,,,3,nw,LoDemNoTar,None,g,0,0.628851127345115,None,,,,,,,,,,,,,,,,,,,376,2023-11-09_09h54.26.752,leap3,2022.2.5,59.99473014569988,
,,,,,,,,,,,,,,,,,,,,0,0,0,0,8,0,8,0,,,,,,gymnasium,w,g,lower,,,,,,,3,w,LoDemNoTar,None,g,1,0.5530414003878832,None,,,,,,,,,,,,,,,,,,,376,2023-11-09_09h54.26.752,leap3,2022.2.5,59.99473014569988,
,,,,,,,,,,,,,,,,,,,,0,0,0,0,9,0,9,0,,,,,,congraks,nw,h,lower,,,,,,,3,nw,LoDemNoTar,None,h,1,0.9222905775532126,None,,,,,,,,,,,,,,,,,,,376,2023-11-09_09h54.26.752,leap3,2022.2.5,59.99473014569988,
,,,,,,,,,,,,,,,,,,,,0,0,0,0,10,0,10,0,,,,,,menarthe,nw,h,lower,,,,,,,3,nw,LoDemNoTar,None,h,1,0.7571094501763582,None,,,,,,,,,,,,,,,,,,,376,2023-11-09_09h54.26.752,leap3,2022.2.5,59.99473014569988,
,,,,,,,,,,,,,,,,,,,,0,0,0,0,11,0,11,0,,,,,,penalize,w,g,lower,,,,,,,3,w,LoDemNoTar,None,g,1,0.5794478631578386,None,,,,,,,,,,,,,,,,,,,376,2023-11-09_09h54.26.752,leap3,2022.2.5,59.99473014569988,
,,,,,,,,,,,,,,,,,,,,0,0,0,0,12,0,12,0,,,,,,redefloy,nw,h,lower,,,,,,,3,nw,LoDemNoTar,None,h,1,0.558185473550111,None,,,,,,,,,,,,,,,,,,,376,2023-11-09_09h54.26.752,leap3,2022.2.5,59.99473014569988,
,,,,,,,,,,,,,,,,,,,,0,0,0,0,13,0,13,0,,,,,,suddenly,w,g,lower,,,,,,,3,w,LoDemNoTar,None,g,1,0.5585449729114771,None,,,,,,,,,,,,,,,,,,,376,2023-11-09_09h54.26.752,leap3,2022.2.5,59.99473014569988,
,,,,,,,,,,,,,,,,,,,,0,0,0,0,14,0,14,0,,,,,,ottans,nw,h,lower,,,,,,,3,nw,LoDemNoTar,None,h,1,0.6466881595551968,None,,,,,,,,,,,,,,,,,,,376,2023-11-09_09h54.26.752,leap3,2022.2.5,59.99473014569988,
,,,,,,,,,,,,,,,,,,,,0,0,0,0,15,0,15,0,,,,,,veirs,nw,h,lower,,,,,,,3,nw,LoDemNoTar,None,g,0,0.8118182746693492,None,,,,,,,,,,,,,,,,,,,376,2023-11-09_09h54.26.752,leap3,2022.2.5,59.99473014569988,
,,,,,,,,,,,,,,,,,,,,0,0,0,0,16,0,16,0,,,,,,glapula,nw,h,lower,,,,,,,3,nw,LoDemNoTar,None,g,0,1.1466363929212093,None,,,,,,,,,,,,,,,,,,,376,2023-11-09_09h54.26.752,leap3,2022.2.5,59.99473014569988,
,,,,,,,,,,,,,,,,,,,,0,0,0,0,17,0,17,0,,,,,,listless,w,g,lower,,,,,,,3,w,LoDemNoTar,None,g,1,0.5639066775329411,None,,,,,,,,,,,,,,,,,,,376,2023-11-09_09h54.26.752,leap3,2022.2.5,59.99473014569988,
,,,,,,,,,,,,,,,,,,,,0,0,0,0,18,0,18,0,,,,,,mystery,w,g,lower,,,,,,,3,w,LoDemNoTar,None,g,1,0.6045041647739708,None,,,,,,,,,,,,,,,,,,,376,2023-11-09_09h54.26.752,leap3,2022.2.5,59.99473014569988,
,,,,,,,,,,,,,,,,,,,,0,0,0,0,19,0,19,0,,,,,,derived,w,g,lower,,,,,,,3,w,LoDemNoTar,None,g,1,0.4831327786669135,None,,,,,,,,,,,,,,,,,,,376,2023-11-09_09h54.26.752,leap3,2022.2.5,59.99473014569988,
,,,,,,,,,,,,,,,,,,,,0,0,0,0,20,0,20,0,,,,,,ignore,w,g,lower,,,,,,,3,w,LoDemNoTar,None,g,1,0.775125477463007,None,,,,,,,,,,,,,,,,,,,376,2023-11-09_09h54.26.752,leap3,2022.2.5,59.99473014569988,
,,,,,,,,,,,,,,,,,,,,0,0,0,0,21,0,21,0,,,,,,intrude,w,g,lower,,,,,,,3,w,LoDemNoTar,None,g,1,0.5031382781453431,None,,,,,,,,,,,,,,,,,,,376,2023-11-09_09h54.26.752,leap3,2022.2.5,59.99473014569988,
,,,,,,,,,,,,,,,,,,,,0,0,0,0,22,0,22,0,,,,,,criminal,w,g,lower,,,,,,,3,w,LoDemNoTar,None,g,1,0.5288909408263862,None,,,,,,,,,,,,,,,,,,,376,2023-11-09_09h54.26.752,leap3,2022.2.5,59.99473014569988,
,,,,,,,,,,,,,,,,,,,,0,0,0,0,23,0,23,0,,,,,,moozy,nw,h,lower,,,,,,,3,nw,LoDemNoTar,None,h,1,0.6909346729516983,None,,,,,,,,,,,,,,,,,,,376,2023-11-09_09h54.26.752,leap3,2022.2.5,59.99473014569988,
,,,,,,,,,,,,,,,,,,,,0,0,0,0,24,0,24,0,,,,,,enacted,w,g,lower,,,,,,,3,w,LoDemNoTar,None,g,1,0.5501521229743958,None,,,,,,,,,,,,,,,,,,,376,2023-11-09_09h54.26.752,leap3,2022.2.5,59.99473014569988,
,,,,,,,,,,,,,,,,,,,,0,0,0,0,25,0,25,0,,,,,,goltish,nw,h,lower,,,,,,,3,nw,LoDemNoTar,None,h,1,0.8154461719095707,None,,,,,,,,,,,,,,,,,,,376,2023-11-09_09h54.26.752,leap3,2022.2.5,59.99473014569988,
,,,,,,,,,,,,,,,,,,,,0,0,0,0,26,0,26,0,,,,,,guitar,w,g,lower,,,,,,,3,w,LoDemNoTar,None,g,1,0.4941193978302181,None,,,,,,,,,,,,,,,,,,,376,2023-11-09_09h54.26.752,leap3,2022.2.5,59.99473014569988,
,,,,,,,,,,,,,,,,,,,,0,0,0,0,27,0,27,0,,,,,,angry,w,g,lower,,,,,,,3,w,LoDemNoTar,None,g,1,0.4413701626472175,None,,,,,,,,,,,,,,,,,,,376,2023-11-09_09h54.26.752,leap3,2022.2.5,59.99473014569988,
,,,,,,,,,,,,,,,,,,,,0,0,0,0,28,0,28,0,,,,,,duries,nw,h,lower,,,,,,,3,nw,LoDemNoTar,None,h,1,0.6467545656487346,None,,,,,,,,,,,,,,,,,,,376,2023-11-09_09h54.26.752,leap3,2022.2.5,59.99473014569988,
,,,,,,,,,,,,,,,,,,,,0,0,0,0,29,0,29,0,,,,,,lovud,nw,h,lower,,,,,,,3,nw,LoDemNoTar,None,h,1,0.7080898331478238,None,,,,,,,,,,,,,,,,,,,376,2023-11-09_09h54.26.752,leap3,2022.2.5,59.99473014569988,
,,,,,,,,,,,,,,,,,,,,0,0,0,0,,,,,,,,,,,,,,,,,,,,,,,,,,,,,,,,,,,,,,,,,,,,,,376,2023-11-09_09h54.26.752,leap3,2022.2.5,59.99473014569988,
,,,,,,,,,,,,,,,,,,,,1,0,1,0,0,0,0,0,,,,,,sheepish,w,g,upper,,,,,,,2,w,HiDemNoTar,None,g,1,1.4846607269719243,None,,,,,,,,,,,,,,,,,,,376,2023-11-09_09h54.26.752,leap3,2022.2.5,59.99473014569988,
,,,,,,,,,,,,,,,,,,,,1,0,1,0,1,0,1,0,,,,,,sprea,nw,h,upper,,,,,,,2,nw,HiDemNoTar,None,h,1,0.7844440913759172,None,,,,,,,,,,,,,,,,,,,376,2023-11-09_09h54.26.752,leap3,2022.2.5,59.99473014569988,
,,,,,,,,,,,,,,,,,,,,1,0,1,0,2,0,2,0,,,,,,begut,nw,h,upper,,,,,,,2,nw,HiDemNoTar,None,g,0,1.1285080784000456,None,,,,,,,,,,,,,,,,,,,376,2023-11-09_09h54.26.752,leap3,2022.2.5,59.99473014569988,
,,,,,,,,,,,,,,,,,,,,1,0,1,0,3,0,3,0,,,,,,solidity,w,g,upper,,,,,,,2,w,HiDemNoTar,None,g,1,0.9224529713392258,None,,,,,,,,,,,,,,,,,,,376,2023-11-09_09h54.26.752,leap3,2022.2.5,59.99473014569988,
,,,,,,,,,,,,,,,,,,,,1,0,1,0,4,0,4,0,,,,,,snife,nw,h,upper,,,,,,,2,nw,HiDemNoTar,None,h,1,0.9324969230219722,None,,,,,,,,,,,,,,,,,,,376,2023-11-09_09h54.26.752,leap3,2022.2.5,59.99473014569988,
,,,,,,,,,,,,,,,,,,,,1,0,1,0,5,0,5,0,,,,,,runabouk,nw,h,upper,,,,,,,2,nw,HiDemNoTar,None,h,1,1.062470641452819,None,,,,,,,,,,,,,,,,,,,376,2023-11-09_09h54.26.752,leap3,2022.2.5,59.99473014569988,
,,,,,,,,,,,,,,,,,,,,1,0,1,0,6,0,6,0,,,,,,flooted,nw,h,upper,,,,,,,2,nw,HiDemNoTar,None,g,0,0.7062274385243654,None,,,,,,,,,,,,,,,,,,,376,2023-11-09_09h54.26.752,leap3,2022.2.5,59.99473014569988,
,,,,,,,,,,,,,,,,,,,,1,0,1,0,7,0,7,0,,,,,,nature,w,g,upper,,,,,,,2,w,HiDemNoTar,None,g,1,0.4848412317223847,None,,,,,,,,,,,,,,,,,,,376,2023-11-09_09h54.26.752,leap3,2022.2.5,59.99473014569988,
,,,,,,,,,,,,,,,,,,,,1,0,1,0,8,0,8,0,,,,,,partner,w,g,upper,,,,,,,2,w,HiDemNoTar,None,g,1,0.504203193821013,None,,,,,,,,,,,,,,,,,,,376,2023-11-09_09h54.26.752,leap3,2022.2.5,59.99473014569988,
,,,,,,,,,,,,,,,,,,,,1,0,1,0,9,0,9,0,,,,,,rarren,nw,h,upper,,,,,,,2,nw,HiDemNoTar,None,g,0,0.4668445219285786,None,,,,,,,,,,,,,,,,,,,376,2023-11-09_09h54.26.752,leap3,2022.2.5,59.99473014569988,
,,,,,,,,,,,,,,,,,,,,1,0,1,0,10,0,10,0,,,,,,nameplate,w,g,upper,,,,,,,2,w,HiDemNoTar,None,h,0,1.1035058065317571,None,,,,,,,,,,,,,,,,,,,376,2023-11-09_09h54.26.752,leap3,2022.2.5,59.99473014569988,
,,,,,,,,,,,,,,,,,,,,1,0,1,0,11,0,11,0,,,,,,sonnet,w,g,upper,,,,,,,2,w,HiDemNoTar,None,h,0,0.6981216450221837,None,,,,,,,,,,,,,,,,,,,376,2023-11-09_09h54.26.752,leap3,2022.2.5,59.99473014569988,
,,,,,,,,,,,,,,,,,,,,1,0,1,0,12,0,12,0,,,,,,insole,w,g,upper,,,,,,,2,w,HiDemNoTar,None,g,1,0.9095019330270588,None,,,,,,,,,,,,,,,,,,,376,2023-11-09_09h54.26.752,leap3,2022.2.5,59.99473014569988,
,,,,,,,,,,,,,,,,,,,,1,0,1,0,13,0,13,0,,,,,,planofoad,nw,h,upper,,,,,,,2,nw,HiDemNoTar,None,h,1,0.8561508147977293,None,,,,,,,,,,,,,,,,,,,376,2023-11-09_09h54.26.752,leap3,2022.2.5,59.99473014569988,
,,,,,,,,,,,,,,,,,,,,1,0,1,0,14,0,14,0,,,,,,euphoric,w,g,upper,,,,,,,2,w,HiDemNoTar,None,g,1,0.7247916194610298,None,,,,,,,,,,,,,,,,,,,376,2023-11-09_09h54.26.752,leap3,2022.2.5,59.99473014569988,
,,,,,,,,,,,,,,,,,,,,1,0,1,0,15,0,15,0,,,,,,vopings,nw,h,upper,,,,,,,2,nw,HiDemNoTar,None,h,1,0.6618755804374814,None,,,,,,,,,,,,,,,,,,,376,2023-11-09_09h54.26.752,leap3,2022.2.5,59.99473014569988,
,,,,,,,,,,,,,,,,,,,,1,0,1,0,16,0,16,0,,,,,,brimitar,nw,h,upper,,,,,,,2,nw,HiDemNoTar,None,h,1,0.6585845449008048,None,,,,,,,,,,,,,,,,,,,376,2023-11-09_09h54.26.752,leap3,2022.2.5,59.99473014569988,
,,,,,,,,,,,,,,,,,,,,1,0,1,0,17,0,17,0,,,,,,airbis,nw,h,upper,,,,,,,2,nw,HiDemNoTar,None,g,0,0.6471255356445909,None,,,,,,,,,,,,,,,,,,,376,2023-11-09_09h54.26.752,leap3,2022.2.5,59.99473014569988,
,,,,,,,,,,,,,,,,,,,,1,0,1,0,18,0,18,0,,,,,,issue,w,g,upper,,,,,,,2,w,HiDemNoTar,None,g,1,0.5564453266561031,None,,,,,,,,,,,,,,,,,,,376,2023-11-09_09h54.26.752,leap3,2022.2.5,59.99473014569988,
,,,,,,,,,,,,,,,,,,,,1,0,1,0,19,0,19,0,,,,,,vintnel,nw,h,upper,,,,,,,2,nw,HiDemNoTar,None,h,1,0.5651880172081292,None,,,,,,,,,,,,,,,,,,,376,2023-11-09_09h54.26.752,leap3,2022.2.5,59.99473014569988,
,,,,,,,,,,,,,,,,,,,,1,0,1,0,20,0,20,0,,,,,,fictional,w,g,upper,,,,,,,2,w,HiDemNoTar,None,g,1,0.5499070235528052,None,,,,,,,,,,,,,,,,,,,376,2023-11-09_09h54.26.752,leap3,2022.2.5,59.99473014569988,
,,,,,,,,,,,,,,,,,,,,1,0,1,0,21,0,21,0,,,,,,forgive,w,g,upper,,,,,,,2,w,HiDemNoTar,None,g,1,0.45523126842454076,None,,,,,,,,,,,,,,,,,,,376,2023-11-09_09h54.26.752,leap3,2022.2.5,59.99473014569988,
,,,,,,,,,,,,,,,,,,,,1,0,1,0,22,0,22,0,,,,,,expected,w,g,upper,,,,,,,2,w,HiDemNoTar,None,g,1,0.5369122177362442,None,,,,,,,,,,,,,,,,,,,376,2023-11-09_09h54.26.752,leap3,2022.2.5,59.99473014569988,
,,,,,,,,,,,,,,,,,,,,1,0,1,0,23,0,23,0,,,,,,telecast,w,g,upper,,,,,,,2,w,HiDemNoTar,None,g,1,0.5720607666298747,None,,,,,,,,,,,,,,,,,,,376,2023-11-09_09h54.26.752,leap3,2022.2.5,59.99473014569988,
,,,,,,,,,,,,,,,,,,,,1,0,1,0,24,0,24,0,,,,,,chrik,nw,h,upper,,,,,,,2,nw,HiDemNoTar,None,h,1,0.9390400564298034,None,,,,,,,,,,,,,,,,,,,376,2023-11-09_09h54.26.752,leap3,2022.2.5,59.99473014569988,
,,,,,,,,,,,,,,,,,,,,1,0,1,0,25,0,25,0,,,,,,decant,w,g,upper,,,,,,,2,w,HiDemNoTar,None,g,1,0.8846638663671911,None,,,,,,,,,,,,,,,,,,,376,2023-11-09_09h54.26.752,leap3,2022.2.5,59.99473014569988,
,,,,,,,,,,,,,,,,,,,,1,0,1,0,26,0,26,0,,,,,,series,w,g,upper,,,,,,,2,w,HiDemNoTar,None,g,1,0.4086919268593192,None,,,,,,,,,,,,,,,,,,,376,2023-11-09_09h54.26.752,leap3,2022.2.5,59.99473014569988,
,,,,,,,,,,,,,,,,,,,,1,0,1,0,27,0,27,0,,,,,,bamps,nw,h,upper,,,,,,,2,nw,HiDemNoTar,None,h,1,0.5996257169172168,None,,,,,,,,,,,,,,,,,,,376,2023-11-09_09h54.26.752,leap3,2022.2.5,59.99473014569988,
,,,,,,,,,,,,,,,,,,,,1,0,1,0,28,0,28,0,,,,,,spiud,nw,h,upper,,,,,,,2,nw,HiDemNoTar,None,h,1,1.2948428643867373,None,,,,,,,,,,,,,,,,,,,376,2023-11-09_09h54.26.752,leap3,2022.2.5,59.99473014569988,
,,,,,,,,,,,,,,,,,,,,1,0,1,0,29,0,29,0,,,,,,nauling,nw,h,upper,,,,,,,2,nw,HiDemNoTar,None,g,0,0.6902343882247806,None,,,,,,,,,,,,,,,,,,,376,2023-11-09_09h54.26.752,leap3,2022.2.5,59.99473014569988,
,,,,,,,,,,,,,,,,,,,,1,0,1,0,,,,,,,,,,,,,,,,,,,,,,,,,,,,,,,,,,,,,,,,,,,,,,376,2023-11-09_09h54.26.752,leap3,2022.2.5,59.99473014569988,
,,,,,,,,,,,,,,,,,,,,2,0,2,0,0,0,0,0,,,,,,smallash,nw,h,lower,,,,,,,3,nw,LoDemNoTar,None,h,1,1.1174749745987356,None,,,,,,,,,,,,,,,,,,,376,2023-11-09_09h54.26.752,leap3,2022.2.5,59.99473014569988,
,,,,,,,,,,,,,,,,,,,,2,0,2,0,1,0,1,0,,,,,,hatred,w,g,lower,,,,,,,3,w,LoDemNoTar,None,g,1,0.6944514899514616,None,,,,,,,,,,,,,,,,,,,376,2023-11-09_09h54.26.752,leap3,2022.2.5,59.99473014569988,
,,,,,,,,,,,,,,,,,,,,2,0,2,0,2,0,2,0,,,,,,lutton,nw,h,lower,,,,,,,3,nw,LoDemNoTar,None,h,1,0.609813348390162,None,,,,,,,,,,,,,,,,,,,376,2023-11-09_09h54.26.752,leap3,2022.2.5,59.99473014569988,
,,,,,,,,,,,,,,,,,,,,2,0,2,0,3,0,3,0,,,,,,overflow,w,g,lower,,,,,,,3,w,LoDemNoTar,None,g,1,0.52047816850245,None,,,,,,,,,,,,,,,,,,,376,2023-11-09_09h54.26.752,leap3,2022.2.5,59.99473014569988,
,,,,,,,,,,,,,,,,,,,,2,0,2,0,4,0,4,0,,,,,,outset,w,g,lower,,,,,,,3,w,LoDemNoTar,None,g,1,0.450574376154691,None,,,,,,,,,,,,,,,,,,,376,2023-11-09_09h54.26.752,leap3,2022.2.5,59.99473014569988,
,,,,,,,,,,,,,,,,,,,,2,0,2,0,5,0,5,0,,,,,,bedding,w,g,lower,,,,,,,3,w,LoDemNoTar,None,g,1,0.48720861598849297,None,,,,,,,,,,,,,,,,,,,376,2023-11-09_09h54.26.752,leap3,2022.2.5,59.99473014569988,
,,,,,,,,,,,,,,,,,,,,2,0,2,0,6,0,6,0,,,,,,leuter,nw,h,lower,,,,,,,3,nw,LoDemNoTar,None,h,1,0.9705522572621703,None,,,,,,,,,,,,,,,,,,,376,2023-11-09_09h54.26.752,leap3,2022.2.5,59.99473014569988,
,,,,,,,,,,,,,,,,,,,,2,0,2,0,7,0,7,0,,,,,,desert,w,g,lower,,,,,,,3,w,LoDemNoTar,None,g,1,0.530469901394099,None,,,,,,,,,,,,,,,,,,,376,2023-11-09_09h54.26.752,leap3,2022.2.5,59.99473014569988,
,,,,,,,,,,,,,,,,,,,,2,0,2,0,8,0,8,0,,,,,,endgume,nw,h,lower,,,,,,,3,nw,LoDemNoTar,None,h,1,1.3244673158042133,None,,,,,,,,,,,,,,,,,,,376,2023-11-09_09h54.26.752,leap3,2022.2.5,59.99473014569988,
,,,,,,,,,,,,,,,,,,,,2,0,2,0,9,0,9,0,,,,,,fuack,nw,h,lower,,,,,,,3,nw,LoDemNoTar,None,h,1,0.685599229298532,None,,,,,,,,,,,,,,,,,,,376,2023-11-09_09h54.26.752,leap3,2022.2.5,59.99473014569988,
,,,,,,,,,,,,,,,,,,,,2,0,2,0,10,0,10,0,,,,,,gremieres,nw,h,lower,,,,,,,3,nw,LoDemNoTar,None,g,0,1.0008401675149798,None,,,,,,,,,,,,,,,,,,,376,2023-11-09_09h54.26.752,leap3,2022.2.5,59.99473014569988,
,,,,,,,,,,,,,,,,,,,,2,0,2,0,11,0,11,0,,,,,,ounwit,nw,h,lower,,,,,,,3,nw,LoDemNoTar,None,h,1,0.7114819874987006,None,,,,,,,,,,,,,,,,,,,376,2023-11-09_09h54.26.752,leap3,2022.2.5,59.99473014569988,
,,,,,,,,,,,,,,,,,,,,2,0,2,0,12,0,12,0,,,,,,tharcely,nw,h,lower,,,,,,,3,nw,LoDemNoTar,None,h,1,0.84215840511024,None,,,,,,,,,,,,,,,,,,,376,2023-11-09_09h54.26.752,leap3,2022.2.5,59.99473014569988,
,,,,,,,,,,,,,,,,,,,,2,0,2,0,13,0,13,0,,,,,,sequence,w,g,lower,,,,,,,3,w,LoDemNoTar,None,g,1,0.5476627927273512,None,,,,,,,,,,,,,,,,,,,376,2023-11-09_09h54.26.752,leap3,2022.2.5,59.99473014569988,
,,,,,,,,,,,,,,,,,,,,2,0,2,0,14,0,14,0,,,,,,scrib,nw,h,lower,,,,,,,3,nw,LoDemNoTar,None,g,0,0.9516602703370154,None,,,,,,,,,,,,,,,,,,,376,2023-11-09_09h54.26.752,leap3,2022.2.5,59.99473014569988,
,,,,,,,,,,,,,,,,,,,,2,0,2,0,15,0,15,0,,,,,,reloant,nw,h,lower,,,,,,,3,nw,LoDemNoTar,None,g,0,0.6805339381098747,None,,,,,,,,,,,,,,,,,,,376,2023-11-09_09h54.26.752,leap3,2022.2.5,59.99473014569988,
,,,,,,,,,,,,,,,,,,,,2,0,2,0,16,0,16,0,,,,,,unsmilung,nw,h,lower,,,,,,,3,nw,LoDemNoTar,None,h,1,0.9572716020047665,None,,,,,,,,,,,,,,,,,,,376,2023-11-09_09h54.26.752,leap3,2022.2.5,59.99473014569988,
,,,,,,,,,,,,,,,,,,,,2,0,2,0,17,0,17,0,,,,,,abstain,w,g,lower,,,,,,,3,w,LoDemNoTar,None,g,1,0.685284704901278,None,,,,,,,,,,,,,,,,,,,376,2023-11-09_09h54.26.752,leap3,2022.2.5,59.99473014569988,
,,,,,,,,,,,,,,,,,,,,2,0,2,0,18,0,18,0,,,,,,slogan,w,g,lower,,,,,,,3,w,LoDemNoTar,None,g,1,0.7206481690518558,None,,,,,,,,,,,,,,,,,,,376,2023-11-09_09h54.26.752,leap3,2022.2.5,59.99473014569988,
,,,,,,,,,,,,,,,,,,,,2,0,2,0,19,0,19,0,,,,,,static,w,g,lower,,,,,,,3,w,LoDemNoTar,None,g,1,0.5544953965581954,None,,,,,,,,,,,,,,,,,,,376,2023-11-09_09h54.26.752,leap3,2022.2.5,59.99473014569988,
,,,,,,,,,,,,,,,,,,,,2,0,2,0,20,0,20,0,,,,,,sefine,nw,h,lower,,,,,,,3,nw,LoDemNoTar,None,h,1,0.9711740617640316,None,,,,,,,,,,,,,,,,,,,376,2023-11-09_09h54.26.752,leap3,2022.2.5,59.99473014569988,
,,,,,,,,,,,,,,,,,,,,2,0,2,0,21,0,21,0,,,,,,eyesight,w,g,lower,,,,,,,3,w,LoDemNoTar,None,g,1,0.5632097129710019,None,,,,,,,,,,,,,,,,,,,376,2023-11-09_09h54.26.752,leap3,2022.2.5,59.99473014569988,
,,,,,,,,,,,,,,,,,,,,2,0,2,0,22,0,22,0,,,,,,rarely,w,g,lower,,,,,,,3,w,LoDemNoTar,None,g,1,0.5479365675710142,None,,,,,,,,,,,,,,,,,,,376,2023-11-09_09h54.26.752,leap3,2022.2.5,59.99473014569988,
,,,,,,,,,,,,,,,,,,,,2,0,2,0,23,0,23,0,,,,,,levels,w,g,lower,,,,,,,3,w,LoDemNoTar,None,g,1,0.45324300415813923,None,,,,,,,,,,,,,,,,,,,376,2023-11-09_09h54.26.752,leap3,2022.2.5,59.99473014569988,
,,,,,,,,,,,,,,,,,,,,2,0,2,0,24,0,24,0,,,,,,carnival,w,g,lower,,,,,,,3,w,LoDemNoTar,None,g,1,0.4979087822139263,None,,,,,,,,,,,,,,,,,,,376,2023-11-09_09h54.26.752,leap3,2022.2.5,59.99473014569988,
,,,,,,,,,,,,,,,,,,,,2,0,2,0,25,0,25,0,,,,,,sefraud,nw,h,lower,,,,,,,3,nw,LoDemNoTar,None,h,1,0.6771755907684565,None,,,,,,,,,,,,,,,,,,,376,2023-11-09_09h54.26.752,leap3,2022.2.5,59.99473014569988,
,,,,,,,,,,,,,,,,,,,,2,0,2,0,26,0,26,0,,,,,,tunneg,nw,h,lower,,,,,,,3,nw,LoDemNoTar,None,h,1,0.6331473123282194,None,,,,,,,,,,,,,,,,,,,376,2023-11-09_09h54.26.752,leap3,2022.2.5,59.99473014569988,
,,,,,,,,,,,,,,,,,,,,2,0,2,0,27,0,27,0,,,,,,zears,nw,h,lower,,,,,,,3,nw,LoDemNoTar,None,h,1,0.551139765419066,None,,,,,,,,,,,,,,,,,,,376,2023-11-09_09h54.26.752,leap3,2022.2.5,59.99473014569988,
,,,,,,,,,,,,,,,,,,,,2,0,2,0,28,0,28,0,,,,,,bypassed,w,g,lower,,,,,,,3,w,LoDemNoTar,None,g,1,0.6148641505278647,None,,,,,,,,,,,,,,,,,,,376,2023-11-09_09h54.26.752,leap3,2022.2.5,59.99473014569988,
,,,,,,,,,,,,,,,,,,,,2,0,2,0,29,0,29,0,,,,,,matter,w,g,lower,,,,,,,3,w,LoDemNoTar,None,g,1,0.5254897307604551,None,,,,,,,,,,,,,,,,,,,376,2023-11-09_09h54.26.752,leap3,2022.2.5,59.99473014569988,
,,,,,,,,,,,,,,,,,,,,2,0,2,0,,,,,,,,,,,,,,,,,,,,,,,,,,,,,,,,,,,,,,,,,,,,,,376,2023-11-09_09h54.26.752,leap3,2022.2.5,59.99473014569988,
,,,,,,,,,,,,,,,,,,,,3,0,3,0,0,0,0,0,,,,,,earmaff,nw,h,upper,,,,,,,1,nw,HiDemTar,None,h,1,0.7034767088480294,None,,,,,,,,,,,,,,,,,,,376,2023-11-09_09h54.26.752,leap3,2022.2.5,59.99473014569988,
,,,,,,,,,,,,,,,,,,,,3,0,3,0,1,0,1,0,,,,,,volition,w,g,upper,,,,,,,1,w,HiDemTar,None,g,1,0.5142121315002441,None,,,,,,,,,,,,,,,,,,,376,2023-11-09_09h54.26.752,leap3,2022.2.5,59.99473014569988,
,,,,,,,,,,,,,,,,,,,,3,0,3,0,2,0,2,0,,,,,,submit,w,g,upper,,,,,,,1,w,HiDemTar,None,g,1,0.4528602622449398,None,,,,,,,,,,,,,,,,,,,376,2023-11-09_09h54.26.752,leap3,2022.2.5,59.99473014569988,
,,,,,,,,,,,,,,,,,,,,3,0,3,0,3,0,3,0,,,,,,exploit,w,g,upper,,,,,,,1,w,HiDemTar,None,g,1,0.4006220530718565,None,,,,,,,,,,,,,,,,,,,376,2023-11-09_09h54.26.752,leap3,2022.2.5,59.99473014569988,
,,,,,,,,,,,,,,,,,,,,3,0,3,0,4,0,4,0,,,,,,grieving,w,g,upper,,,,,,,1,w,HiDemTar,None,g,1,0.48733599530532956,None,,,,,,,,,,,,,,,,,,,376,2023-11-09_09h54.26.752,leap3,2022.2.5,59.99473014569988,
,,,,,,,,,,,,,,,,,,,,3,0,3,0,5,0,5,0,,,,,,pariah,w,g,upper,,,,,,,1,w,HiDemTar,None,g,1,0.3464969997294247,None,,,,,,,,,,,,,,,,,,,376,2023-11-09_09h54.26.752,leap3,2022.2.5,59.99473014569988,
,,,,,,,,,,,,,,,,,,,,3,0,3,0,6,0,6,0,,,,,,walsams,nw,h,upper,,,,,,,1,nw,HiDemTar,None,h,1,0.8025376941077411,None,,,,,,,,,,,,,,,,,,,376,2023-11-09_09h54.26.752,leap3,2022.2.5,59.99473014569988,
,,,,,,,,,,,,,,,,,,,,3,0,3,0,7,0,7,0,,,,,,puyer,nw,h,upper,,,,,,,1,nw,HiDemTar,None,g,0,0.6891791322268546,None,,,,,,,,,,,,,,,,,,,376,2023-11-09_09h54.26.752,leap3,2022.2.5,59.99473014569988,
,,,,,,,,,,,,,,,,,,,,3,0,3,0,8,0,8,0,,,,,,balign,nw,h,upper,,,,,,,1,nw,HiDemTar,None,g,0,0.5172770833596587,None,,,,,,,,,,,,,,,,,,,376,2023-11-09_09h54.26.752,leap3,2022.2.5,59.99473014569988,
,,,,,,,,,,,,,,,,,,,,3,0,3,0,9,0,9,0,,,,,,opert,nw,h,upper,,,,,,,1,nw,HiDemTar,None,g,0,0.5199179411865771,None,,,,,,,,,,,,,,,,,,,376,2023-11-09_09h54.26.752,leap3,2022.2.5,59.99473014569988,
,,,,,,,,,,,,,,,,,,,,3,0,3,0,10,0,10,0,,,,,,colicky,w,g,upper,,,,,,,1,w,HiDemTar,None,h,0,0.9378184820525348,None,,,,,,,,,,,,,,,,,,,376,2023-11-09_09h54.26.752,leap3,2022.2.5,59.99473014569988,
,,,,,,,,,,,,,,,,,,,,3,0,3,0,11,0,11,0,,,,,,paterways,nw,h,upper,,,,,,,1,nw,HiDemTar,None,h,1,0.9054351509548724,None,,,,,,,,,,,,,,,,,,,376,2023-11-09_09h54.26.752,leap3,2022.2.5,59.99473014569988,
,,,,,,,,,,,,,,,,,,,,3,0,3,0,12,0,12,0,,,,,,lavilion,nw,h,upper,,,,,,,1,nw,HiDemTar,None,h,1,0.564892509020865,None,,,,,,,,,,,,,,,,,,,376,2023-11-09_09h54.26.752,leap3,2022.2.5,59.99473014569988,
,,,,,,,,,,,,,,,,,,,,3,0,3,0,13,0,13,0,,,,,,spigat,nw,h,upper,,,,,,,1,nw,HiDemTar,None,h,1,0.629571333527565,None,,,,,,,,,,,,,,,,,,,376,2023-11-09_09h54.26.752,leap3,2022.2.5,59.99473014569988,
,,,,,,,,,,,,,,,,,,,,3,0,3,0,14,0,14,0,,,,,,disperse,w,g,upper,,,,,,,1,w,HiDemTar,None,g,1,0.5315474942326546,None,,,,,,,,,,,,,,,,,,,376,2023-11-09_09h54.26.752,leap3,2022.2.5,59.99473014569988,
,,,,,,,,,,,,,,,,,,,,3,0,3,0,15,0,15,0,,,,,,cemoir,nw,h,upper,,,,,,,1,nw,HiDemTar,None,g,0,0.7735591945238411,None,,,,,,,,,,,,,,,,,,,376,2023-11-09_09h54.26.752,leap3,2022.2.5,59.99473014569988,
,,,,,,,,,,,,,,,,,,,,3,0,3,0,16,0,16,0,,,,,,supplier,w,g,upper,,,,,,,1,w,HiDemTar,None,g,1,0.5735195921733975,None,,,,,,,,,,,,,,,,,,,376,2023-11-09_09h54.26.752,leap3,2022.2.5,59.99473014569988,
,,,,,,,,,,,,,,,,,,,,3,0,3,0,17,0,17,0,,,,,,retona,nw,h,upper,,,,,,,1,nw,HiDemTar,None,g,0,0.75749641796574,None,,,,,,,,,,,,,,,,,,,376,2023-11-09_09h54.26.752,leap3,2022.2.5,59.99473014569988,
,,,,,,,,,,,,,,,,,,,,3,0,3,0,18,0,18,0,,,,,,ahead,w,g,upper,,,,,,,1,w,HiDemTar,None,g,1,0.4461843171156943,None,,,,,,,,,,,,,,,,,,,376,2023-11-09_09h54.26.752,leap3,2022.2.5,59.99473014569988,
,,,,,,,,,,,,,,,,,,,,3,0,3,0,19,0,19,0,,,,,,personify,w,g,upper,,,,,,,1,w,HiDemTar,None,g,1,0.5234685651957989,None,,,,,,,,,,,,,,,,,,,376,2023-11-09_09h54.26.752,leap3,2022.2.5,59.99473014569988,
,,,,,,,,,,,,,,,,,,,,3,0,3,0,20,0,20,0,,,,,,brighten,w,g,upper,,,,,,,1,w,HiDemTar,None,g,1,0.3814550838433206,None,,,,,,,,,,,,,,,,,,,376,2023-11-09_09h54.26.752,leap3,2022.2.5,59.99473014569988,
,,,,,,,,,,,,,,,,,,,,3,0,3,0,21,0,21,0,,,,,,seighing,nw,h,upper,,,,,,,1,nw,HiDemTar,None,h,1,1.0526047786697745,None,,,,,,,,,,,,,,,,,,,376,2023-11-09_09h54.26.752,leap3,2022.2.5,59.99473014569988,
,,,,,,,,,,,,,,,,,,,,3,0,3,0,22,0,22,0,,,,,,handbook,w,g,upper,,,,,,,1,w,HiDemTar,None,g,1,0.9051305875182152,None,,,,,,,,,,,,,,,,,,,376,2023-11-09_09h54.26.752,leap3,2022.2.5,59.99473014569988,
,,,,,,,,,,,,,,,,,,,,3,0,3,0,23,0,23,0,,,,,,fallint,nw,h,upper,,,,,,,1,nw,HiDemTar,None,h,1,1.2118503917008638,None,,,,,,,,,,,,,,,,,,,376,2023-11-09_09h54.26.752,leap3,2022.2.5,59.99473014569988,
,,,,,,,,,,,,,,,,,,,,3,0,3,0,24,0,24,0,,,,,,mopping,w,g,upper,,,,,,,1,w,HiDemTar,None,g,1,0.5544884540140629,None,,,,,,,,,,,,,,,,,,,376,2023-11-09_09h54.26.752,leap3,2022.2.5,59.99473014569988,
,,,,,,,,,,,,,,,,,,,,3,0,3,0,25,0,25,0,,,,,,smolvers,nw,h,upper,,,,,,,1,nw,HiDemTar,None,g,0,0.8111753412522376,None,,,,,,,,,,,,,,,,,,,376,2023-11-09_09h54.26.752,leap3,2022.2.5,59.99473014569988,
,,,,,,,,,,,,,,,,,,,,3,0,3,0,26,0,26,0,,,,,,remover,w,g,upper,,,,,,,1,w,HiDemTar,None,g,1,0.48186924820765853,None,,,,,,,,,,,,,,,,,,,376,2023-11-09_09h54.26.752,leap3,2022.2.5,59.99473014569988,
,,,,,,,,,,,,,,,,,,,,3,0,3,0,27,0,27,0,,,,,,jaguar,target,q,upper,,,,,,,1,target,HiDemTar,None,q,1,0.7099000085145235,None,q,1,,,,,,,,,,,,,,,,,376,2023-11-09_09h54.26.752,leap3,2022.2.5,59.99473014569988,
,,,,,,,,,,,,,,,,,,,,3,0,3,0,28,0,28,0,,,,,,shamrock,w,g,upper,,,,,,,1,aftertar1,HiDemTar,None,g,1,0.864502009935677,None,,,,,,,,,,,,,,,,,,,376,2023-11-09_09h54.26.752,leap3,2022.2.5,59.99473014569988,
,,,,,,,,,,,,,,,,,,,,3,0,3,0,29,0,29,0,,,,,,favoting,nw,h,upper,,,,,,,1,aftertar2,HiDemTar,None,h,1,0.7891885191202164,None,,,,,,,,,,,,,,,,,,,376,2023-11-09_09h54.26.752,leap3,2022.2.5,59.99473014569988,
,,,,,,,,,,,,,,,,,,,,3,0,3,0,,,,,,,,,,,,,,,,,,,,,,,,,,,,,,,,,,,,,,,,,,,,,,376,2023-11-09_09h54.26.752,leap3,2022.2.5,59.99473014569988,
,,,,,,,,,,,,,,,,,,,,4,0,4,0,0,0,0,0,,,,,,plogging,nw,h,upper,,,,,,,1,nw,HiDemTar,None,g,0,0.7474914034828544,None,,,,,,,,,,,,,,,,,,,376,2023-11-09_09h54.26.752,leap3,2022.2.5,59.99473014569988,
,,,,,,,,,,,,,,,,,,,,4,0,4,0,1,0,1,0,,,,,,chone,nw,h,upper,,,,,,,1,nw,HiDemTar,None,g,0,0.5729291797615588,None,,,,,,,,,,,,,,,,,,,376,2023-11-09_09h54.26.752,leap3,2022.2.5,59.99473014569988,
,,,,,,,,,,,,,,,,,,,,4,0,4,0,2,0,2,0,,,,,,miracle,w,g,upper,,,,,,,1,w,HiDemTar,None,g,1,0.5408247555606067,None,,,,,,,,,,,,,,,,,,,376,2023-11-09_09h54.26.752,leap3,2022.2.5,59.99473014569988,
,,,,,,,,,,,,,,,,,,,,4,0,4,0,3,0,3,0,,,,,,arcients,nw,h,upper,,,,,,,1,nw,HiDemTar,None,h,1,0.6222020462155342,None,,,,,,,,,,,,,,,,,,,376,2023-11-09_09h54.26.752,leap3,2022.2.5,59.99473014569988,
,,,,,,,,,,,,,,,,,,,,4,0,4,0,4,0,4,0,,,,,,destroy,w,g,upper,,,,,,,1,w,HiDemTar,None,g,1,0.5162163940258324,None,,,,,,,,,,,,,,,,,,,376,2023-11-09_09h54.26.752,leap3,2022.2.5,59.99473014569988,
,,,,,,,,,,,,,,,,,,,,4,0,4,0,5,0,5,0,,,,,,pepperoni,w,g,upper,,,,,,,1,w,HiDemTar,None,g,1,0.5106539609842002,None,,,,,,,,,,,,,,,,,,,376,2023-11-09_09h54.26.752,leap3,2022.2.5,59.99473014569988,
,,,,,,,,,,,,,,,,,,,,4,0,4,0,6,0,6,0,,,,,,fashing,nw,h,upper,,,,,,,1,nw,HiDemTar,None,h,1,0.9854924655519426,None,,,,,,,,,,,,,,,,,,,376,2023-11-09_09h54.26.752,leap3,2022.2.5,59.99473014569988,
,,,,,,,,,,,,,,,,,,,,4,0,4,0,7,0,7,0,,,,,,region,w,g,upper,,,,,,,1,w,HiDemTar,None,g,1,0.46387253887951374,None,,,,,,,,,,,,,,,,,,,376,2023-11-09_09h54.26.752,leap3,2022.2.5,59.99473014569988,
,,,,,,,,,,,,,,,,,,,,4,0,4,0,8,0,8,0,,,,,,correct,w,g,upper,,,,,,,1,w,HiDemTar,None,g,1,0.644536595325917,None,,,,,,,,,,,,,,,,,,,376,2023-11-09_09h54.26.752,leap3,2022.2.5,59.99473014569988,
,,,,,,,,,,,,,,,,,,,,4,0,4,0,9,0,9,0,,,,,,susher,nw,h,upper,,,,,,,1,nw,HiDemTar,None,g,0,0.4657485163770616,None,,,,,,,,,,,,,,,,,,,376,2023-11-09_09h54.26.752,leap3,2022.2.5,59.99473014569988,
,,,,,,,,,,,,,,,,,,,,4,0,4,0,10,0,10,0,,,,,,colored,w,g,upper,,,,,,,1,w,HiDemTar,None,g,1,0.5584785668179393,None,,,,,,,,,,,,,,,,,,,376,2023-11-09_09h54.26.752,leap3,2022.2.5,59.99473014569988,
,,,,,,,,,,,,,,,,,,,,4,0,4,0,11,0,11,0,,,,,,newstrint,nw,h,upper,,,,,,,1,nw,HiDemTar,None,h,1,0.6071836589835584,None,,,,,,,,,,,,,,,,,,,376,2023-11-09_09h54.26.752,leap3,2022.2.5,59.99473014569988,
,,,,,,,,,,,,,,,,,,,,4,0,4,0,12,0,12,0,,,,,,emotion,w,g,upper,,,,,,,1,w,HiDemTar,None,g,1,0.4618483539670706,None,,,,,,,,,,,,,,,,,,,376,2023-11-09_09h54.26.752,leap3,2022.2.5,59.99473014569988,
,,,,,,,,,,,,,,,,,,,,4,0,4,0,13,0,13,0,,,,,,turntable,w,g,upper,,,,,,,1,w,HiDemTar,None,g,1,0.858537819236517,None,,,,,,,,,,,,,,,,,,,376,2023-11-09_09h54.26.752,leap3,2022.2.5,59.99473014569988,
,,,,,,,,,,,,,,,,,,,,4,0,4,0,14,0,14,0,,,,,,pocket,w,g,upper,,,,,,,1,w,HiDemTar,None,g,1,0.4711998696438968,None,,,,,,,,,,,,,,,,,,,376,2023-11-09_09h54.26.752,leap3,2022.2.5,59.99473014569988,
,,,,,,,,,,,,,,,,,,,,4,0,4,0,15,0,15,0,,,,,,paying,w,g,upper,,,,,,,1,w,HiDemTar,None,g,1,0.5711911460384727,None,,,,,,,,,,,,,,,,,,,376,2023-11-09_09h54.26.752,leap3,2022.2.5,59.99473014569988,
,,,,,,,,,,,,,,,,,,,,4,0,4,0,16,0,16,0,,,,,,monkey,target,q,upper,,,,,,,1,target,HiDemTar,None,g,0,0.5551781738176942,q,q,,0.4669930310919881,,,,,,,,,,,,,,,,376,2023-11-09_09h54.26.752,leap3,2022.2.5,59.99473014569988,
,,,,,,,,,,,,,,,,,,,,4,0,4,0,17,0,17,0,,,,,,fullity,nw,h,upper,,,,,,,1,aftertar1,HiDemTar,None,h,1,1.5468770852312446,None,,,,,,,,,,,,,,,,,,,376,2023-11-09_09h54.26.752,leap3,2022.2.5,59.99473014569988,
,,,,,,,,,,,,,,,,,,,,4,0,4,0,18,0,18,0,,,,,,spaceship,w,g,upper,,,,,,,1,aftertar2,HiDemTar,None,g,1,0.9082414209842682,None,,,,,,,,,,,,,,,,,,,376,2023-11-09_09h54.26.752,leap3,2022.2.5,59.99473014569988,
,,,,,,,,,,,,,,,,,,,,4,0,4,0,19,0,19,0,,,,,,micron,w,g,upper,,,,,,,1,aftertar3,HiDemTar,None,h,0,0.9028468145988882,None,,,,,,,,,,,,,,,,,,,376,2023-11-09_09h54.26.752,leap3,2022.2.5,59.99473014569988,
,,,,,,,,,,,,,,,,,,,,4,0,4,0,20,0,20,0,,,,,,slowning,nw,h,upper,,,,,,,1,w,HiDemTar,None,h,1,1.0815449436195195,None,,,,,,,,,,,,,,,,,,,376,2023-11-09_09h54.26.752,leap3,2022.2.5,59.99473014569988,
,,,,,,,,,,,,,,,,,,,,4,0,4,0,21,0,21,0,,,,,,ragtam,nw,h,upper,,,,,,,1,nw,HiDemTar,None,h,1,0.885533185210079,None,,,,,,,,,,,,,,,,,,,376,2023-11-09_09h54.26.752,leap3,2022.2.5,59.99473014569988,
,,,,,,,,,,,,,,,,,,,,4,0,4,0,22,0,22,0,,,,,,couple,w,g,upper,,,,,,,1,nw,HiDemTar,None,g,1,0.5917284996248782,None,,,,,,,,,,,,,,,,,,,376,2023-11-09_09h54.26.752,leap3,2022.2.5,59.99473014569988,
,,,,,,,,,,,,,,,,,,,,4,0,4,0,23,0,23,0,,,,,,priant,nw,h,upper,,,,,,,1,w,HiDemTar,None,h,1,0.6463902369141579,None,,,,,,,,,,,,,,,,,,,376,2023-11-09_09h54.26.752,leap3,2022.2.5,59.99473014569988,
,,,,,,,,,,,,,,,,,,,,4,0,4,0,24,0,24,0,,,,,,pracking,nw,h,upper,,,,,,,1,nw,HiDemTar,None,h,1,0.804362659342587,None,,,,,,,,,,,,,,,,,,,376,2023-11-09_09h54.26.752,leap3,2022.2.5,59.99473014569988,
,,,,,,,,,,,,,,,,,,,,4,0,4,0,25,0,25,0,,,,,,seeming,w,g,upper,,,,,,,1,nw,HiDemTar,None,g,1,0.579150544013828,None,,,,,,,,,,,,,,,,,,,376,2023-11-09_09h54.26.752,leap3,2022.2.5,59.99473014569988,
,,,,,,,,,,,,,,,,,,,,4,0,4,0,26,0,26,0,,,,,,shests,nw,h,upper,,,,,,,1,w,HiDemTar,None,h,1,0.6111770919524133,None,,,,,,,,,,,,,,,,,,,376,2023-11-09_09h54.26.752,leap3,2022.2.5,59.99473014569988,
,,,,,,,,,,,,,,,,,,,,4,0,4,0,27,0,27,0,,,,,,scabry,nw,h,upper,,,,,,,1,nw,HiDemTar,None,h,1,0.5938885151408613,None,,,,,,,,,,,,,,,,,,,376,2023-11-09_09h54.26.752,leap3,2022.2.5,59.99473014569988,
,,,,,,,,,,,,,,,,,,,,4,0,4,0,28,0,28,0,,,,,,imprives,nw,h,upper,,,,,,,1,nw,HiDemTar,None,g,0,0.4973216908983886,None,,,,,,,,,,,,,,,,,,,376,2023-11-09_09h54.26.752,leap3,2022.2.5,59.99473014569988,
,,,,,,,,,,,,,,,,,,,,4,0,4,0,29,0,29,0,,,,,,tibs,nw,h,upper,,,,,,,1,nw,HiDemTar,None,h,1,0.8684396012686193,None,,,,,,,,,,,,,,,,,,,376,2023-11-09_09h54.26.752,leap3,2022.2.5,59.99473014569988,
,,,,,,,,,,,,,,,,,,,,4,0,4,0,,,,,,,,,,,,,,,,,,,,,,,,,,,,,,,,,,,,,,,,,,,,,,376,2023-11-09_09h54.26.752,leap3,2022.2.5,59.99473014569988,
,,,,,,,,,,,,,,,,,,,,5,0,5,0,0,0,0,0,,,,,,caloric,w,g,lower,,,,,,,3,w,LoDemNoTar,None,g,1,0.8084732089191675,None,,,,,,,,,,,,,,,,,,,376,2023-11-09_09h54.26.752,leap3,2022.2.5,59.99473014569988,
,,,,,,,,,,,,,,,,,,,,5,0,5,0,1,0,1,0,,,,,,robbery,w,g,lower,,,,,,,3,w,LoDemNoTar,None,g,1,0.4781052181497216,None,,,,,,,,,,,,,,,,,,,376,2023-11-09_09h54.26.752,leap3,2022.2.5,59.99473014569988,
,,,,,,,,,,,,,,,,,,,,5,0,5,0,2,0,2,0,,,,,,neally,nw,h,lower,,,,,,,3,nw,LoDemNoTar,None,h,1,0.6501204590313137,None,,,,,,,,,,,,,,,,,,,376,2023-11-09_09h54.26.752,leap3,2022.2.5,59.99473014569988,
,,,,,,,,,,,,,,,,,,,,5,0,5,0,3,0,3,0,,,,,,stretches,w,g,lower,,,,,,,3,w,LoDemNoTar,None,g,1,0.4635124350897968,None,,,,,,,,,,,,,,,,,,,376,2023-11-09_09h54.26.752,leap3,2022.2.5,59.99473014569988,
,,,,,,,,,,,,,,,,,,,,5,0,5,0,4,0,4,0,,,,,,fraft,nw,h,lower,,,,,,,3,nw,LoDemNoTar,None,h,1,0.7561462568119168,None,,,,,,,,,,,,,,,,,,,376,2023-11-09_09h54.26.752,leap3,2022.2.5,59.99473014569988,
,,,,,,,,,,,,,,,,,,,,5,0,5,0,5,0,5,0,,,,,,jiggling,w,g,lower,,,,,,,3,w,LoDemNoTar,None,g,1,0.5888331853784621,None,,,,,,,,,,,,,,,,,,,376,2023-11-09_09h54.26.752,leap3,2022.2.5,59.99473014569988,
,,,,,,,,,,,,,,,,,,,,5,0,5,0,6,0,6,0,,,,,,bluads,nw,h,lower,,,,,,,3,nw,LoDemNoTar,None,h,1,0.5001418455503881,None,,,,,,,,,,,,,,,,,,,376,2023-11-09_09h54.26.752,leap3,2022.2.5,59.99473014569988,
,,,,,,,,,,,,,,,,,,,,5,0,5,0,7,0,7,0,,,,,,misest,nw,h,lower,,,,,,,3,nw,LoDemNoTar,None,h,1,0.6635173256509006,None,,,,,,,,,,,,,,,,,,,376,2023-11-09_09h54.26.752,leap3,2022.2.5,59.99473014569988,
,,,,,,,,,,,,,,,,,,,,5,0,5,0,8,0,8,0,,,,,,latter,w,g,lower,,,,,,,3,w,LoDemNoTar,None,h,0,0.6843595439568162,None,,,,,,,,,,,,,,,,,,,376,2023-11-09_09h54.26.752,leap3,2022.2.5,59.99473014569988,
,,,,,,,,,,,,,,,,,,,,5,0,5,0,9,0,9,0,,,,,,dests,nw,h,lower,,,,,,,3,nw,LoDemNoTar,None,h,1,0.7905942196957767,None,,,,,,,,,,,,,,,,,,,376,2023-11-09_09h54.26.752,leap3,2022.2.5,59.99473014569988,
,,,,,,,,,,,,,,,,,,,,5,0,5,0,10,0,10,0,,,,,,portify,nw,h,lower,,,,,,,3,nw,LoDemNoTar,None,h,1,0.5178982843644917,None,,,,,,,,,,,,,,,,,,,376,2023-11-09_09h54.26.752,leap3,2022.2.5,59.99473014569988,
,,,,,,,,,,,,,,,,,,,,5,0,5,0,11,0,11,0,,,,,,presently,w,g,lower,,,,,,,3,w,LoDemNoTar,None,g,1,0.5518934773281217,None,,,,,,,,,,,,,,,,,,,376,2023-11-09_09h54.26.752,leap3,2022.2.5,59.99473014569988,
,,,,,,,,,,,,,,,,,,,,5,0,5,0,12,0,12,0,,,,,,glates,nw,h,lower,,,,,,,3,nw,LoDemNoTar,None,h,1,0.7045669797807932,None,,,,,,,,,,,,,,,,,,,376,2023-11-09_09h54.26.752,leap3,2022.2.5,59.99473014569988,
,,,,,,,,,,,,,,,,,,,,5,0,5,0,13,0,13,0,,,,,,describe,w,g,lower,,,,,,,3,w,LoDemNoTar,None,g,1,0.5152698024176061,None,,,,,,,,,,,,,,,,,,,376,2023-11-09_09h54.26.752,leap3,2022.2.5,59.99473014569988,
,,,,,,,,,,,,,,,,,,,,5,0,5,0,14,0,14,0,,,,,,casino,w,g,lower,,,,,,,3,w,LoDemNoTar,None,g,1,0.5566964633762836,None,,,,,,,,,,,,,,,,,,,376,2023-11-09_09h54.26.752,leap3,2022.2.5,59.99473014569988,
,,,,,,,,,,,,,,,,,,,,5,0,5,0,15,0,15,0,,,,,,babies,w,g,lower,,,,,,,3,w,LoDemNoTar,None,g,1,0.5096451896242797,None,,,,,,,,,,,,,,,,,,,376,2023-11-09_09h54.26.752,leap3,2022.2.5,59.99473014569988,
,,,,,,,,,,,,,,,,,,,,5,0,5,0,16,0,16,0,,,,,,thamp,nw,h,lower,,,,,,,3,nw,LoDemNoTar,None,h,1,0.7047770647332072,None,,,,,,,,,,,,,,,,,,,376,2023-11-09_09h54.26.752,leap3,2022.2.5,59.99473014569988,
,,,,,,,,,,,,,,,,,,,,5,0,5,0,17,0,17,0,,,,,,ireology,nw,h,lower,,,,,,,3,nw,LoDemNoTar,None,g,0,0.5949449790641665,None,,,,,,,,,,,,,,,,,,,376,2023-11-09_09h54.26.752,leap3,2022.2.5,59.99473014569988,
,,,,,,,,,,,,,,,,,,,,5,0,5,0,18,0,18,0,,,,,,staircase,w,g,lower,,,,,,,3,w,LoDemNoTar,None,g,1,0.5231643035076559,None,,,,,,,,,,,,,,,,,,,376,2023-11-09_09h54.26.752,leap3,2022.2.5,59.99473014569988,
,,,,,,,,,,,,,,,,,,,,5,0,5,0,19,0,19,0,,,,,,mantos,nw,h,lower,,,,,,,3,nw,LoDemNoTar,None,q,0,1.0042495271191,None,q,,,,,,,,,,,,,,,,,,376,2023-11-09_09h54.26.752,leap3,2022.2.5,59.99473014569988,
,,,,,,,,,,,,,,,,,,,,5,0,5,0,20,0,20,0,,,,,,dazid,nw,h,lower,,,,,,,3,nw,LoDemNoTar,None,h,1,0.7708594766445458,None,,,,,,,,,,,,,,,,,,,376,2023-11-09_09h54.26.752,leap3,2022.2.5,59.99473014569988,
,,,,,,,,,,,,,,,,,,,,5,0,5,0,21,0,21,0,,,,,,noblin,nw,h,lower,,,,,,,3,nw,LoDemNoTar,None,h,1,0.7868667137809098,None,,,,,,,,,,,,,,,,,,,376,2023-11-09_09h54.26.752,leap3,2022.2.5,59.99473014569988,
,,,,,,,,,,,,,,,,,,,,5,0,5,0,22,0,22,0,,,,,,geissue,nw,h,lower,,,,,,,3,nw,LoDemNoTar,None,h,1,0.7702784216962755,None,,,,,,,,,,,,,,,,,,,376,2023-11-09_09h54.26.752,leap3,2022.2.5,59.99473014569988,
,,,,,,,,,,,,,,,,,,,,5,0,5,0,23,0,23,0,,,,,,axis,w,g,lower,,,,,,,3,w,LoDemNoTar,None,q,0,0.8583047934807837,None,q,,,,,,,,,,,,,,,,,,376,2023-11-09_09h54.26.752,leap3,2022.2.5,59.99473014569988,
,,,,,,,,,,,,,,,,,,,,5,0,5,0,24,0,24,0,,,,,,apology,w,g,lower,,,,,,,3,w,LoDemNoTar,None,g,1,0.19087415281683207,None,,,,,,,,,,,,,,,,,,,376,2023-11-09_09h54.26.752,leap3,2022.2.5,59.99473014569988,
,,,,,,,,,,,,,,,,,,,,5,0,5,0,25,0,25,0,,,,,,senior,w,g,lower,,,,,,,3,w,LoDemNoTar,None,g,1,0.4301873426884413,None,,,,,,,,,,,,,,,,,,,376,2023-11-09_09h54.26.752,leap3,2022.2.5,59.99473014569988,
,,,,,,,,,,,,,,,,,,,,5,0,5,0,26,0,26,0,,,,,,disuse,w,g,lower,,,,,,,3,w,LoDemNoTar,None,g,1,0.4361611921340227,None,,,,,,,,,,,,,,,,,,,376,2023-11-09_09h54.26.752,leap3,2022.2.5,59.99473014569988,
,,,,,,,,,,,,,,,,,,,,5,0,5,0,27,0,27,0,,,,,,doxing,nw,h,lower,,,,,,,3,nw,LoDemNoTar,None,g,0,0.7446374427527189,None,,,,,,,,,,,,,,,,,,,376,2023-11-09_09h54.26.752,leap3,2022.2.5,59.99473014569988,
,,,,,,,,,,,,,,,,,,,,5,0,5,0,28,0,28,0,,,,,,courier,w,g,lower,,,,,,,3,w,LoDemNoTar,None,g,1,0.8177836732938886,None,,,,,,,,,,,,,,,,,,,376,2023-11-09_09h54.26.752,leap3,2022.2.5,59.99473014569988,
,,,,,,,,,,,,,,,,,,,,5,0,5,0,29,0,29,0,,,,,,unwose,nw,h,lower,,,,,,,3,nw,LoDemNoTar,None,h,1,0.7278064652346075,None,,,,,,,,,,,,,,,,,,,376,2023-11-09_09h54.26.752,leap3,2022.2.5,59.99473014569988,
,,,,,,,,,,,,,,,,,,,,5,0,5,0,,,,,,,,,,,,,,,,,,,,,,,,,,,,,,,,,,,,,,,,,,,,,,376,2023-11-09_09h54.26.752,leap3,2022.2.5,59.99473014569988,
,,,,,,,,,,,,,,,,,,,,6,0,6,0,0,0,0,0,,,,,,rapport,w,g,upper,,,,,,,1,w,HiDemTar,None,g,1,1.1378266923129559,None,,,,,,,,,,,,,,,,,,,376,2023-11-09_09h54.26.752,leap3,2022.2.5,59.99473014569988,
,,,,,,,,,,,,,,,,,,,,6,0,6,0,1,0,1,0,,,,,,perform,w,g,upper,,,,,,,1,w,HiDemTar,None,g,1,0.4990977570414543,None,,,,,,,,,,,,,,,,,,,376,2023-11-09_09h54.26.752,leap3,2022.2.5,59.99473014569988,
,,,,,,,,,,,,,,,,,,,,6,0,6,0,2,0,2,0,,,,,,anonymous,w,g,upper,,,,,,,1,w,HiDemTar,None,g,1,0.5024914206005633,None,,,,,,,,,,,,,,,,,,,376,2023-11-09_09h54.26.752,leap3,2022.2.5,59.99473014569988,
,,,,,,,,,,,,,,,,,,,,6,0,6,0,3,0,3,0,,,,,,serving,w,g,upper,,,,,,,1,w,HiDemTar,None,g,1,0.47223248751834035,None,,,,,,,,,,,,,,,,,,,376,2023-11-09_09h54.26.752,leap3,2022.2.5,59.99473014569988,
,,,,,,,,,,,,,,,,,,,,6,0,6,0,4,0,4,0,,,,,,bulmed,nw,h,upper,,,,,,,1,nw,HiDemTar,None,h,1,0.7561414274387062,None,,,,,,,,,,,,,,,,,,,376,2023-11-09_09h54.26.752,leap3,2022.2.5,59.99473014569988,
,,,,,,,,,,,,,,,,,,,,6,0,6,0,5,0,5,0,,,,,,clarms,nw,h,upper,,,,,,,1,nw,HiDemTar,None,g,0,0.9236839027144015,None,,,,,,,,,,,,,,,,,,,376,2023-11-09_09h54.26.752,leap3,2022.2.5,59.99473014569988,
,,,,,,,,,,,,,,,,,,,,6,0,6,0,6,0,6,0,,,,,,poyride,nw,h,upper,,,,,,,1,nw,HiDemTar,None,h,1,0.8208619067445397,None,,,,,,,,,,,,,,,,,,,376,2023-11-09_09h54.26.752,leap3,2022.2.5,59.99473014569988,
,,,,,,,,,,,,,,,,,,,,6,0,6,0,7,0,7,0,,,,,,buzzer,w,g,upper,,,,,,,1,w,HiDemTar,None,g,1,1.3230818388983607,None,,,,,,,,,,,,,,,,,,,376,2023-11-09_09h54.26.752,leap3,2022.2.5,59.99473014569988,
,,,,,,,,,,,,,,,,,,,,6,0,6,0,8,0,8,0,,,,,,unbridled,w,g,upper,,,,,,,1,w,HiDemTar,None,g,1,0.7727517546154559,None,,,,,,,,,,,,,,,,,,,376,2023-11-09_09h54.26.752,leap3,2022.2.5,59.99473014569988,
,,,,,,,,,,,,,,,,,,,,6,0,6,0,9,0,9,0,,,,,,dusmy,nw,h,upper,,,,,,,1,nw,HiDemTar,None,h,1,0.8440917334519327,None,,,,,,,,,,,,,,,,,,,376,2023-11-09_09h54.26.752,leap3,2022.2.5,59.99473014569988,
,,,,,,,,,,,,,,,,,,,,6,0,6,0,10,0,10,0,,,,,,selongs,nw,h,upper,,,,,,,1,nw,HiDemTar,None,h,1,0.7840616516768932,None,,,,,,,,,,,,,,,,,,,376,2023-11-09_09h54.26.752,leap3,2022.2.5,59.99473014569988,
,,,,,,,,,,,,,,,,,,,,6,0,6,0,11,0,11,0,,,,,,enabled,w,g,upper,,,,,,,1,w,HiDemTar,None,g,1,0.6312157944776118,None,,,,,,,,,,,,,,,,,,,376,2023-11-09_09h54.26.752,leap3,2022.2.5,59.99473014569988,
,,,,,,,,,,,,,,,,,,,,6,0,6,0,12,0,12,0,,,,,,lindo,nw,h,upper,,,,,,,1,nw,HiDemTar,None,h,1,0.5324192279949784,None,,,,,,,,,,,,,,,,,,,376,2023-11-09_09h54.26.752,leap3,2022.2.5,59.99473014569988,
,,,,,,,,,,,,,,,,,,,,6,0,6,0,13,0,13,0,,,,,,preserve,w,g,upper,,,,,,,1,w,HiDemTar,None,g,1,0.7418785626068711,None,,,,,,,,,,,,,,,,,,,376,2023-11-09_09h54.26.752,leap3,2022.2.5,59.99473014569988,
,,,,,,,,,,,,,,,,,,,,6,0,6,0,14,0,14,0,,,,,,attrove,nw,h,upper,,,,,,,1,nw,HiDemTar,None,h,1,0.5911655551753938,None,,,,,,,,,,,,,,,,,,,376,2023-11-09_09h54.26.752,leap3,2022.2.5,59.99473014569988,
,,,,,,,,,,,,,,,,,,,,6,0,6,0,15,0,15,0,,,,,,hanling,nw,h,upper,,,,,,,1,nw,HiDemTar,None,h,1,0.7825503051280975,None,,,,,,,,,,,,,,,,,,,376,2023-11-09_09h54.26.752,leap3,2022.2.5,59.99473014569988,
,,,,,,,,,,,,,,,,,,,,6,0,6,0,16,0,16,0,,,,,,sponto,nw,h,upper,,,,,,,1,nw,HiDemTar,None,h,1,0.5904106362722814,None,,,,,,,,,,,,,,,,,,,376,2023-11-09_09h54.26.752,leap3,2022.2.5,59.99473014569988,
,,,,,,,,,,,,,,,,,,,,6,0,6,0,17,0,17,0,,,,,,optional,w,g,upper,,,,,,,1,w,HiDemTar,None,g,1,0.5577233457006514,None,,,,,,,,,,,,,,,,,,,376,2023-11-09_09h54.26.752,leap3,2022.2.5,59.99473014569988,
,,,,,,,,,,,,,,,,,,,,6,0,6,0,18,0,18,0,,,,,,throttle,w,g,upper,,,,,,,1,w,HiDemTar,None,g,1,0.6625511138699949,None,,,,,,,,,,,,,,,,,,,376,2023-11-09_09h54.26.752,leap3,2022.2.5,59.99473014569988,
,,,,,,,,,,,,,,,,,,,,6,0,6,0,19,0,19,0,,,,,,butterfly,target,q,upper,,,,,,,1,target,HiDemTar,None,g,0,0.45216993847861886,None,,,,,,,,,,,,,,,,,,,376,2023-11-09_09h54.26.752,leap3,2022.2.5,59.99473014569988,
,,,,,,,,,,,,,,,,,,,,6,0,6,0,20,0,20,0,,,,,,eaglot,nw,h,upper,,,,,,,1,aftertar1,HiDemTar,None,h,1,0.7438185322098434,None,,,,,,,,,,,,,,,,,,,376,2023-11-09_09h54.26.752,leap3,2022.2.5,59.99473014569988,
,,,,,,,,,,,,,,,,,,,,6,0,6,0,21,0,21,0,,,,,,implode,w,g,upper,,,,,,,1,aftertar2,HiDemTar,None,g,1,0.5843969429843128,None,,,,,,,,,,,,,,,,,,,376,2023-11-09_09h54.26.752,leap3,2022.2.5,59.99473014569988,
,,,,,,,,,,,,,,,,,,,,6,0,6,0,22,0,22,0,,,,,,turning,w,g,upper,,,,,,,1,aftertar3,HiDemTar,None,g,1,0.44745267694815993,None,,,,,,,,,,,,,,,,,,,376,2023-11-09_09h54.26.752,leap3,2022.2.5,59.99473014569988,
,,,,,,,,,,,,,,,,,,,,6,0,6,0,23,0,23,0,,,,,,regards,w,g,upper,,,,,,,1,w,HiDemTar,None,g,1,0.9088411903940141,None,,,,,,,,,,,,,,,,,,,376,2023-11-09_09h54.26.752,leap3,2022.2.5,59.99473014569988,
,,,,,,,,,,,,,,,,,,,,6,0,6,0,24,0,24,0,,,,,,bentler,nw,h,upper,,,,,,,1,w,HiDemTar,None,h,1,0.6394565142691135,None,,,,,,,,,,,,,,,,,,,376,2023-11-09_09h54.26.752,leap3,2022.2.5,59.99473014569988,
,,,,,,,,,,,,,,,,,,,,6,0,6,0,25,0,25,0,,,,,,stalemate,w,g,upper,,,,,,,1,nw,HiDemTar,None,g,1,0.5248694359324872,None,,,,,,,,,,,,,,,,,,,376,2023-11-09_09h54.26.752,leap3,2022.2.5,59.99473014569988,
,,,,,,,,,,,,,,,,,,,,6,0,6,0,26,0,26,0,,,,,,poughest,nw,h,upper,,,,,,,1,w,HiDemTar,None,h,1,0.6789269060827792,None,,,,,,,,,,,,,,,,,,,376,2023-11-09_09h54.26.752,leap3,2022.2.5,59.99473014569988,
,,,,,,,,,,,,,,,,,,,,6,0,6,0,27,0,27,0,,,,,,aicline,nw,h,upper,,,,,,,1,nw,HiDemTar,None,h,1,0.8982279552146792,None,,,,,,,,,,,,,,,,,,,376,2023-11-09_09h54.26.752,leap3,2022.2.5,59.99473014569988,
,,,,,,,,,,,,,,,,,,,,6,0,6,0,28,0,28,0,,,,,,arrigns,nw,h,upper,,,,,,,1,nw,HiDemTar,None,g,0,0.8935272954404354,None,,,,,,,,,,,,,,,,,,,376,2023-11-09_09h54.26.752,leap3,2022.2.5,59.99473014569988,
,,,,,,,,,,,,,,,,,,,,6,0,6,0,29,0,29,0,,,,,,moral,w,g,upper,,,,,,,1,nw,HiDemTar,None,g,1,0.5502146054059267,None,,,,,,,,,,,,,,,,,,,376,2023-11-09_09h54.26.752,leap3,2022.2.5,59.99473014569988,
,,,,,,,,,,,,,,,,,,,,6,0,6,0,,,,,,,,,,,,,,,,,,,,,,,,,,,,,,,,,,,,,,,,,,,,,,376,2023-11-09_09h54.26.752,leap3,2022.2.5,59.99473014569988,
,,,,,,,,,,,,,,,,,,,,7,0,7,0,0,0,0,0,,,,,,summon,w,g,upper,,,,,,,1,w,HiDemTar,None,g,1,0.6085634008049965,None,,,,,,,,,,,,,,,,,,,376,2023-11-09_09h54.26.752,leap3,2022.2.5,59.99473014569988,
,,,,,,,,,,,,,,,,,,,,7,0,7,0,1,0,1,0,,,,,,roaned,nw,h,upper,,,,,,,1,nw,HiDemTar,None,g,0,0.5266074696555734,None,,,,,,,,,,,,,,,,,,,376,2023-11-09_09h54.26.752,leap3,2022.2.5,59.99473014569988,
,,,,,,,,,,,,,,,,,,,,7,0,7,0,2,0,2,0,,,,,,plymie,nw,h,upper,,,,,,,1,nw,HiDemTar,None,h,1,0.5359650221653283,None,,,,,,,,,,,,,,,,,,,376,2023-11-09_09h54.26.752,leap3,2022.2.5,59.99473014569988,
,,,,,,,,,,,,,,,,,,,,7,0,7,0,3,0,3,0,,,,,,detrabe,nw,h,upper,,,,,,,1,nw,HiDemTar,None,h,1,0.7281753220595419,None,,,,,,,,,,,,,,,,,,,376,2023-11-09_09h54.26.752,leap3,2022.2.5,59.99473014569988,
,,,,,,,,,,,,,,,,,,,,7,0,7,0,4,0,4,0,,,,,,exclusion,w,g,upper,,,,,,,1,w,HiDemTar,None,g,1,0.5209692735224962,None,,,,,,,,,,,,,,,,,,,376,2023-11-09_09h54.26.752,leap3,2022.2.5,59.99473014569988,
,,,,,,,,,,,,,,,,,,,,7,0,7,0,5,0,5,0,,,,,,troven,nw,h,upper,,,,,,,1,nw,HiDemTar,None,h,1,0.6512421215884387,None,,,,,,,,,,,,,,,,,,,376,2023-11-09_09h54.26.752,leap3,2022.2.5,59.99473014569988,
,,,,,,,,,,,,,,,,,,,,7,0,7,0,6,0,6,0,,,,,,design,w,g,upper,,,,,,,1,w,HiDemTar,None,g,1,0.43901696475222707,None,,,,,,,,,,,,,,,,,,,376,2023-11-09_09h54.26.752,leap3,2022.2.5,59.99473014569988,
,,,,,,,,,,,,,,,,,,,,7,0,7,0,7,0,7,0,,,,,,glassware,w,g,upper,,,,,,,1,w,HiDemTar,None,g,1,0.5315354205667973,None,,,,,,,,,,,,,,,,,,,376,2023-11-09_09h54.26.752,leap3,2022.2.5,59.99473014569988,
,,,,,,,,,,,,,,,,,,,,7,0,7,0,8,0,8,0,,,,,,medium,w,g,upper,,,,,,,1,w,HiDemTar,None,g,1,0.49288061866536736,None,,,,,,,,,,,,,,,,,,,376,2023-11-09_09h54.26.752,leap3,2022.2.5,59.99473014569988,
,,,,,,,,,,,,,,,,,,,,7,0,7,0,9,0,9,0,,,,,,vinegar,w,g,upper,,,,,,,1,w,HiDemTar,None,g,1,0.47151620499789715,None,,,,,,,,,,,,,,,,,,,376,2023-11-09_09h54.26.752,leap3,2022.2.5,59.99473014569988,
,,,,,,,,,,,,,,,,,,,,7,0,7,0,10,0,10,0,,,,,,offonents,nw,h,upper,,,,,,,1,nw,HiDemTar,None,g,0,0.7148493905551732,None,,,,,,,,,,,,,,,,,,,376,2023-11-09_09h54.26.752,leap3,2022.2.5,59.99473014569988,
,,,,,,,,,,,,,,,,,,,,7,0,7,0,11,0,11,0,,,,,,gonesty,nw,h,upper,,,,,,,1,nw,HiDemTar,None,h,1,0.7409135587513447,None,,,,,,,,,,,,,,,,,,,376,2023-11-09_09h54.26.752,leap3,2022.2.5,59.99473014569988,
,,,,,,,,,,,,,,,,,,,,7,0,7,0,12,0,12,0,,,,,,inverted,w,g,upper,,,,,,,1,w,HiDemTar,None,g,1,0.6455477820709348,None,,,,,,,,,,,,,,,,,,,376,2023-11-09_09h54.26.752,leap3,2022.2.5,59.99473014569988,
,,,,,,,,,,,,,,,,,,,,7,0,7,0,13,0,13,0,,,,,,gures,nw,h,upper,,,,,,,1,nw,HiDemTar,None,h,1,0.5782030471600592,None,,,,,,,,,,,,,,,,,,,376,2023-11-09_09h54.26.752,leap3,2022.2.5,59.99473014569988,
,,,,,,,,,,,,,,,,,,,,7,0,7,0,14,0,14,0,,,,,,elpousal,nw,h,upper,,,,,,,1,nw,HiDemTar,None,g,0,0.5695472885854542,None,,,,,,,,,,,,,,,,,,,376,2023-11-09_09h54.26.752,leap3,2022.2.5,59.99473014569988,
,,,,,,,,,,,,,,,,,,,,7,0,7,0,15,0,15,0,,,,,,ciping,nw,h,upper,,,,,,,1,nw,HiDemTar,None,h,1,0.5519209448248148,None,,,,,,,,,,,,,,,,,,,376,2023-11-09_09h54.26.752,leap3,2022.2.5,59.99473014569988,
,,,,,,,,,,,,,,,,,,,,7,0,7,0,16,0,16,0,,,,,,analysis,w,g,upper,,,,,,,1,w,HiDemTar,None,g,1,0.5775712816976011,None,,,,,,,,,,,,,,,,,,,376,2023-11-09_09h54.26.752,leap3,2022.2.5,59.99473014569988,
,,,,,,,,,,,,,,,,,,,,7,0,7,0,17,0,17,0,,,,,,loached,nw,h,upper,,,,,,,1,nw,HiDemTar,None,g,0,0.7278689481317997,None,,,,,,,,,,,,,,,,,,,376,2023-11-09_09h54.26.752,leap3,2022.2.5,59.99473014569988,
,,,,,,,,,,,,,,,,,,,,7,0,7,0,18,0,18,0,,,,,,forbid,w,g,upper,,,,,,,1,w,HiDemTar,None,g,1,0.7051806338131428,None,,,,,,,,,,,,,,,,,,,376,2023-11-09_09h54.26.752,leap3,2022.2.5,59.99473014569988,
,,,,,,,,,,,,,,,,,,,,7,0,7,0,19,0,19,0,,,,,,nimp,nw,h,upper,,,,,,,1,nw,HiDemTar,None,h,1,0.7071740301325917,None,,,,,,,,,,,,,,,,,,,376,2023-11-09_09h54.26.752,leap3,2022.2.5,59.99473014569988,
,,,,,,,,,,,,,,,,,,,,7,0,7,0,20,0,20,0,,,,,,professor,w,g,upper,,,,,,,1,w,HiDemTar,None,g,1,0.5173208517953753,None,,,,,,,,,,,,,,,,,,,376,2023-11-09_09h54.26.752,leap3,2022.2.5,59.99473014569988,
,,,,,,,,,,,,,,,,,,,,7,0,7,0,21,0,21,0,,,,,,flamingo,target,q,upper,,,,,,,1,target,HiDemTar,None,g,0,0.5432464722543955,None,,,,,,,,,,,,,,,,,,,376,2023-11-09_09h54.26.752,leap3,2022.2.5,59.99473014569988,
,,,,,,,,,,,,,,,,,,,,7,0,7,0,22,0,22,0,,,,,,esdings,nw,h,upper,,,,,,,1,aftertar1,HiDemTar,None,h,1,0.5586714465171099,None,,,,,,,,,,,,,,,,,,,376,2023-11-09_09h54.26.752,leap3,2022.2.5,59.99473014569988,
,,,,,,,,,,,,,,,,,,,,7,0,7,0,23,0,23,0,,,,,,serfume,nw,h,upper,,,,,,,1,aftertar2,HiDemTar,None,h,1,0.5428009466268122,None,,,,,,,,,,,,,,,,,,,376,2023-11-09_09h54.26.752,leap3,2022.2.5,59.99473014569988,
,,,,,,,,,,,,,,,,,,,,7,0,7,0,24,0,24,0,,,,,,amidst,w,g,upper,,,,,,,1,aftertar3,HiDemTar,None,h,0,0.5439986744895577,None,,,,,,,,,,,,,,,,,,,376,2023-11-09_09h54.26.752,leap3,2022.2.5,59.99473014569988,
,,,,,,,,,,,,,,,,,,,,7,0,7,0,25,0,25,0,,,,,,fudden,nw,h,upper,,,,,,,1,w,HiDemTar,None,h,1,0.7133395527489483,None,,,,,,,,,,,,,,,,,,,376,2023-11-09_09h54.26.752,leap3,2022.2.5,59.99473014569988,
,,,,,,,,,,,,,,,,,,,,7,0,7,0,26,0,26,0,,,,,,garment,w,g,upper,,,,,,,1,nw,HiDemTar,None,g,1,0.8981349864043295,None,,,,,,,,,,,,,,,,,,,376,2023-11-09_09h54.26.752,leap3,2022.2.5,59.99473014569988,
,,,,,,,,,,,,,,,,,,,,7,0,7,0,27,0,27,0,,,,,,resume,w,g,upper,,,,,,,1,w,HiDemTar,None,g,1,0.612869547214359,None,,,,,,,,,,,,,,,,,,,376,2023-11-09_09h54.26.752,leap3,2022.2.5,59.99473014569988,
,,,,,,,,,,,,,,,,,,,,7,0,7,0,28,0,28,0,,,,,,corduroy,w,g,upper,,,,,,,1,w,HiDemTar,None,g,1,0.9948153058066964,None,,,,,,,,,,,,,,,,,,,376,2023-11-09_09h54.26.752,leap3,2022.2.5,59.99473014569988,
,,,,,,,,,,,,,,,,,,,,7,0,7,0,29,0,29,0,,,,,,postal,w,g,upper,,,,,,,1,w,HiDemTar,None,g,1,0.6175083285197616,None,,,,,,,,,,,,,,,,,,,376,2023-11-09_09h54.26.752,leap3,2022.2.5,59.99473014569988,
,,,,,,,,,,,,,,,,,,,,7,0,7,0,,,,,,,,,,,,,,,,,,,,,,,,,,,,,,,,,,,,,,,,,,,,,,376,2023-11-09_09h54.26.752,leap3,2022.2.5,59.99473014569988,
,,,,,,,,,,,,,,,,,,,,8,0,8,0,0,0,0,0,,,,,,hegacy,nw,h,lower,,,,,,,4,nw,LoDemTar,None,h,1,0.6785846115089953,None,,,,,,,,,,,,,,,,,,,376,2023-11-09_09h54.26.752,leap3,2022.2.5,59.99473014569988,
,,,,,,,,,,,,,,,,,,,,8,0,8,0,1,0,1,0,,,,,,nimono,nw,h,lower,,,,,,,4,nw,LoDemTar,None,h,1,0.5387652548961341,None,,,,,,,,,,,,,,,,,,,376,2023-11-09_09h54.26.752,leap3,2022.2.5,59.99473014569988,
,,,,,,,,,,,,,,,,,,,,8,0,8,0,2,0,2,0,,,,,,rebool,nw,h,lower,,,,,,,4,nw,LoDemTar,None,h,1,0.5622972301207483,None,,,,,,,,,,,,,,,,,,,376,2023-11-09_09h54.26.752,leap3,2022.2.5,59.99473014569988,
,,,,,,,,,,,,,,,,,,,,8,0,8,0,3,0,3,0,,,,,,louches,nw,h,lower,,,,,,,4,nw,LoDemTar,None,h,1,0.5144780585542321,None,,,,,,,,,,,,,,,,,,,376,2023-11-09_09h54.26.752,leap3,2022.2.5,59.99473014569988,
,,,,,,,,,,,,,,,,,,,,8,0,8,0,4,0,4,0,,,,,,mining,w,g,lower,,,,,,,4,w,LoDemTar,None,g,1,0.772557666990906,None,,,,,,,,,,,,,,,,,,,376,2023-11-09_09h54.26.752,leap3,2022.2.5,59.99473014569988,
,,,,,,,,,,,,,,,,,,,,8,0,8,0,5,0,5,0,,,,,,ascending,w,g,lower,,,,,,,4,w,LoDemTar,None,g,1,0.5558835896663368,None,,,,,,,,,,,,,,,,,,,376,2023-11-09_09h54.26.752,leap3,2022.2.5,59.99473014569988,
,,,,,,,,,,,,,,,,,,,,8,0,8,0,6,0,6,0,,,,,,compose,w,g,lower,,,,,,,4,w,LoDemTar,None,g,1,0.47584197111427784,None,,,,,,,,,,,,,,,,,,,376,2023-11-09_09h54.26.752,leap3,2022.2.5,59.99473014569988,
,,,,,,,,,,,,,,,,,,,,8,0,8,0,7,0,7,0,,,,,,minister,w,g,lower,,,,,,,4,w,LoDemTar,None,g,1,0.5672197481617332,None,,,,,,,,,,,,,,,,,,,376,2023-11-09_09h54.26.752,leap3,2022.2.5,59.99473014569988,
,,,,,,,,,,,,,,,,,,,,8,0,8,0,8,0,8,0,,,,,,fallacy,w,g,lower,,,,,,,4,w,LoDemTar,None,g,1,0.7591915894299746,None,,,,,,,,,,,,,,,,,,,376,2023-11-09_09h54.26.752,leap3,2022.2.5,59.99473014569988,
,,,,,,,,,,,,,,,,,,,,8,0,8,0,9,0,9,0,,,,,,ucility,nw,h,lower,,,,,,,4,nw,LoDemTar,None,h,1,0.8231185129843652,None,,,,,,,,,,,,,,,,,,,376,2023-11-09_09h54.26.752,leap3,2022.2.5,59.99473014569988,
,,,,,,,,,,,,,,,,,,,,8,0,8,0,10,0,10,0,,,,,,extend,w,g,lower,,,,,,,4,w,LoDemTar,None,g,1,0.5405340767465532,None,,,,,,,,,,,,,,,,,,,376,2023-11-09_09h54.26.752,leap3,2022.2.5,59.99473014569988,
,,,,,,,,,,,,,,,,,,,,8,0,8,0,11,0,11,0,,,,,,maiden,w,g,lower,,,,,,,4,w,LoDemTar,None,g,1,0.5001979884691536,None,,,,,,,,,,,,,,,,,,,376,2023-11-09_09h54.26.752,leap3,2022.2.5,59.99473014569988,
,,,,,,,,,,,,,,,,,,,,8,0,8,0,12,0,12,0,,,,,,foster,w,g,lower,,,,,,,4,w,LoDemTar,None,g,1,0.44675058126449585,None,,,,,,,,,,,,,,,,,,,376,2023-11-09_09h54.26.752,leap3,2022.2.5,59.99473014569988,
,,,,,,,,,,,,,,,,,,,,8,0,8,0,13,0,13,0,,,,,,horks,nw,h,lower,,,,,,,4,nw,LoDemTar,None,h,1,0.49025334417819977,None,,,,,,,,,,,,,,,,,,,376,2023-11-09_09h54.26.752,leap3,2022.2.5,59.99473014569988,
,,,,,,,,,,,,,,,,,,,,8,0,8,0,14,0,14,0,,,,,,trembles,w,g,lower,,,,,,,4,w,LoDemTar,None,g,1,0.32512322906404734,None,,,,,,,,,,,,,,,,,,,376,2023-11-09_09h54.26.752,leap3,2022.2.5,59.99473014569988,
,,,,,,,,,,,,,,,,,,,,8,0,8,0,15,0,15,0,,,,,,bloves,nw,h,lower,,,,,,,4,nw,LoDemTar,None,g,0,0.5664829397574067,None,,,,,,,,,,,,,,,,,,,376,2023-11-09_09h54.26.752,leap3,2022.2.5,59.99473014569988,
,,,,,,,,,,,,,,,,,,,,8,0,8,0,16,0,16,0,,,,,,thorifies,nw,h,lower,,,,,,,4,nw,LoDemTar,None,h,1,1.0231351754628122,None,,,,,,,,,,,,,,,,,,,376,2023-11-09_09h54.26.752,leap3,2022.2.5,59.99473014569988,
,,,,,,,,,,,,,,,,,,,,8,0,8,0,17,0,17,0,,,,,,gerby,nw,h,lower,,,,,,,4,nw,LoDemTar,None,h,1,0.6688449210487306,None,,,,,,,,,,,,,,,,,,,376,2023-11-09_09h54.26.752,leap3,2022.2.5,59.99473014569988,
,,,,,,,,,,,,,,,,,,,,8,0,8,0,18,0,18,0,,,,,,etuip,nw,h,lower,,,,,,,4,nw,LoDemTar,None,h,1,0.5608281423337758,None,,,,,,,,,,,,,,,,,,,376,2023-11-09_09h54.26.752,leap3,2022.2.5,59.99473014569988,
,,,,,,,,,,,,,,,,,,,,8,0,8,0,19,0,19,0,,,,,,ifkling,nw,h,lower,,,,,,,4,nw,LoDemTar,None,h,1,0.5679233530536294,None,,,,,,,,,,,,,,,,,,,376,2023-11-09_09h54.26.752,leap3,2022.2.5,59.99473014569988,
,,,,,,,,,,,,,,,,,,,,8,0,8,0,20,0,20,0,,,,,,lizard,target,q,lower,,,,,,,4,target,LoDemTar,None,g,0,0.679878025315702,None,,,,,,,,,,,,,,,,,,,376,2023-11-09_09h54.26.752,leap3,2022.2.5,59.99473014569988,
,,,,,,,,,,,,,,,,,,,,8,0,8,0,21,0,21,0,,,,,,living,w,g,lower,,,,,,,4,aftertar1,LoDemTar,None,g,1,0.5391510147601366,None,,,,,,,,,,,,,,,,,,,376,2023-11-09_09h54.26.752,leap3,2022.2.5,59.99473014569988,
,,,,,,,,,,,,,,,,,,,,8,0,8,0,22,0,22,0,,,,,,tritical,nw,h,lower,,,,,,,4,aftertar2,LoDemTar,None,g,0,0.42760142125189304,None,,,,,,,,,,,,,,,,,,,376,2023-11-09_09h54.26.752,leap3,2022.2.5,59.99473014569988,
,,,,,,,,,,,,,,,,,,,,8,0,8,0,23,0,23,0,,,,,,racile,nw,h,lower,,,,,,,4,aftertar3,LoDemTar,None,h,1,0.5691165528260171,None,,,,,,,,,,,,,,,,,,,376,2023-11-09_09h54.26.752,leap3,2022.2.5,59.99473014569988,
,,,,,,,,,,,,,,,,,,,,8,0,8,0,24,0,24,0,,,,,,crimb,nw,h,lower,,,,,,,4,nw,LoDemTar,None,h,1,0.6724722143262625,None,,,,,,,,,,,,,,,,,,,376,2023-11-09_09h54.26.752,leap3,2022.2.5,59.99473014569988,
,,,,,,,,,,,,,,,,,,,,8,0,8,0,25,0,25,0,,,,,,peems,nw,h,lower,,,,,,,4,nw,LoDemTar,None,h,1,0.8517885250039399,None,,,,,,,,,,,,,,,,,,,376,2023-11-09_09h54.26.752,leap3,2022.2.5,59.99473014569988,
,,,,,,,,,,,,,,,,,,,,8,0,8,0,26,0,26,0,,,,,,itself,w,g,lower,,,,,,,4,nw,LoDemTar,None,g,1,0.8084744163788855,None,,,,,,,,,,,,,,,,,,,376,2023-11-09_09h54.26.752,leap3,2022.2.5,59.99473014569988,
,,,,,,,,,,,,,,,,,,,,8,0,8,0,27,0,27,0,,,,,,entitle,w,g,lower,,,,,,,4,w,LoDemTar,None,g,1,0.8064737757667899,None,,,,,,,,,,,,,,,,,,,376,2023-11-09_09h54.26.752,leap3,2022.2.5,59.99473014569988,
,,,,,,,,,,,,,,,,,,,,8,0,8,0,28,0,28,0,,,,,,embrace,w,g,lower,,,,,,,4,w,LoDemTar,None,g,1,0.5236475598067045,None,,,,,,,,,,,,,,,,,,,376,2023-11-09_09h54.26.752,leap3,2022.2.5,59.99473014569988,
,,,,,,,,,,,,,,,,,,,,8,0,8,0,29,0,29,0,,,,,,sputter,w,g,lower,,,,,,,4,w,LoDemTar,None,g,1,0.5969534674659371,None,,,,,,,,,,,,,,,,,,,376,2023-11-09_09h54.26.752,leap3,2022.2.5,59.99473014569988,
,,,,,,,,,,,,,,,,,,,,8,0,8,0,,,,,,,,,,,,,,,,,,,,,,,,,,,,,,,,,,,,,,,,,,,,,,376,2023-11-09_09h54.26.752,leap3,2022.2.5,59.99473014569988,
,,,,,,,,,,,,,,,,,,,,9,0,9,0,0,0,0,0,,,,,,afford,w,g,lower,,,,,,,3,w,LoDemNoTar,None,g,1,0.5321137588471174,None,,,,,,,,,,,,,,,,,,,376,2023-11-09_09h54.26.752,leap3,2022.2.5,59.99473014569988,
,,,,,,,,,,,,,,,,,,,,9,0,9,0,1,0,1,0,,,,,,sampling,w,g,lower,,,,,,,3,w,LoDemNoTar,None,g,1,0.501490798778832,None,,,,,,,,,,,,,,,,,,,376,2023-11-09_09h54.26.752,leap3,2022.2.5,59.99473014569988,
,,,,,,,,,,,,,,,,,,,,9,0,9,0,2,0,2,0,,,,,,oleandur,nw,h,lower,,,,,,,3,nw,LoDemNoTar,None,h,1,0.632148199249059,None,,,,,,,,,,,,,,,,,,,376,2023-11-09_09h54.26.752,leap3,2022.2.5,59.99473014569988,
,,,,,,,,,,,,,,,,,,,,9,0,9,0,3,0,3,0,,,,,,orange,w,g,lower,,,,,,,3,w,LoDemNoTar,None,g,1,0.4455353463999927,None,,,,,,,,,,,,,,,,,,,376,2023-11-09_09h54.26.752,leap3,2022.2.5,59.99473014569988,
,,,,,,,,,,,,,,,,,,,,9,0,9,0,4,0,4,0,,,,,,pigned,nw,h,lower,,,,,,,3,nw,LoDemNoTar,None,g,0,0.4741751733236015,None,,,,,,,,,,,,,,,,,,,376,2023-11-09_09h54.26.752,leap3,2022.2.5,59.99473014569988,
,,,,,,,,,,,,,,,,,,,,9,0,9,0,5,0,5,0,,,,,,baladroit,nw,h,lower,,,,,,,3,nw,LoDemNoTar,None,h,1,0.6857287213206291,None,,,,,,,,,,,,,,,,,,,376,2023-11-09_09h54.26.752,leap3,2022.2.5,59.99473014569988,
,,,,,,,,,,,,,,,,,,,,9,0,9,0,6,0,6,0,,,,,,egpended,nw,h,lower,,,,,,,3,nw,LoDemNoTar,None,h,1,0.5747508252970874,None,,,,,,,,,,,,,,,,,,,376,2023-11-09_09h54.26.752,leap3,2022.2.5,59.99473014569988,
,,,,,,,,,,,,,,,,,,,,9,0,9,0,7,0,7,0,,,,,,nomma,nw,h,lower,,,,,,,3,nw,LoDemNoTar,None,h,1,0.49412090703845024,None,,,,,,,,,,,,,,,,,,,376,2023-11-09_09h54.26.752,leap3,2022.2.5,59.99473014569988,
,,,,,,,,,,,,,,,,,,,,9,0,9,0,8,0,8,0,,,,,,dredigest,nw,h,lower,,,,,,,3,nw,LoDemNoTar,None,h,1,0.5295064062811434,None,,,,,,,,,,,,,,,,,,,376,2023-11-09_09h54.26.752,leap3,2022.2.5,59.99473014569988,
,,,,,,,,,,,,,,,,,,,,9,0,9,0,9,0,9,0,,,,,,hangar,w,g,lower,,,,,,,3,w,LoDemNoTar,None,h,0,0.6352264331653714,None,,,,,,,,,,,,,,,,,,,376,2023-11-09_09h54.26.752,leap3,2022.2.5,59.99473014569988,
,,,,,,,,,,,,,,,,,,,,9,0,9,0,10,0,10,0,,,,,,dentures,w,g,lower,,,,,,,3,w,LoDemNoTar,None,h,0,0.47225663531571627,None,,,,,,,,,,,,,,,,,,,376,2023-11-09_09h54.26.752,leap3,2022.2.5,59.99473014569988,
,,,,,,,,,,,,,,,,,,,,9,0,9,0,11,0,11,0,,,,,,hecture,nw,h,lower,,,,,,,3,nw,LoDemNoTar,None,g,0,0.9317948273383081,None,,,,,,,,,,,,,,,,,,,376,2023-11-09_09h54.26.752,leap3,2022.2.5,59.99473014569988,
,,,,,,,,,,,,,,,,,,,,9,0,9,0,12,0,12,0,,,,,,sording,nw,h,lower,,,,,,,3,nw,LoDemNoTar,None,h,1,0.7972061736509204,None,,,,,,,,,,,,,,,,,,,376,2023-11-09_09h54.26.752,leap3,2022.2.5,59.99473014569988,
,,,,,,,,,,,,,,,,,,,,9,0,9,0,13,0,13,0,,,,,,withep,nw,h,lower,,,,,,,3,nw,LoDemNoTar,None,h,1,0.6599096525460482,None,,,,,,,,,,,,,,,,,,,376,2023-11-09_09h54.26.752,leap3,2022.2.5,59.99473014569988,
,,,,,,,,,,,,,,,,,,,,9,0,9,0,14,0,14,0,,,,,,unspoken,w,g,lower,,,,,,,3,w,LoDemNoTar,None,g,1,0.6229569646529853,None,,,,,,,,,,,,,,,,,,,376,2023-11-09_09h54.26.752,leap3,2022.2.5,59.99473014569988,
,,,,,,,,,,,,,,,,,,,,9,0,9,0,15,0,15,0,,,,,,golemic,nw,h,lower,,,,,,,3,nw,LoDemNoTar,None,h,1,0.7080436507239938,None,,,,,,,,,,,,,,,,,,,376,2023-11-09_09h54.26.752,leap3,2022.2.5,59.99473014569988,
,,,,,,,,,,,,,,,,,,,,9,0,9,0,16,0,16,0,,,,,,castaway,w,g,lower,,,,,,,3,w,LoDemNoTar,None,g,1,0.6862023188732564,None,,,,,,,,,,,,,,,,,,,376,2023-11-09_09h54.26.752,leap3,2022.2.5,59.99473014569988,
,,,,,,,,,,,,,,,,,,,,9,0,9,0,17,0,17,0,,,,,,prison,w,g,lower,,,,,,,3,w,LoDemNoTar,None,g,1,0.5369113115593791,None,,,,,,,,,,,,,,,,,,,376,2023-11-09_09h54.26.752,leap3,2022.2.5,59.99473014569988,
,,,,,,,,,,,,,,,,,,,,9,0,9,0,18,0,18,0,,,,,,drobate,nw,h,lower,,,,,,,3,nw,LoDemNoTar,None,h,1,0.681453665252775,None,,,,,,,,,,,,,,,,,,,376,2023-11-09_09h54.26.752,leap3,2022.2.5,59.99473014569988,
,,,,,,,,,,,,,,,,,,,,9,0,9,0,19,0,19,0,,,,,,peags,nw,h,lower,,,,,,,3,nw,LoDemNoTar,None,h,1,0.5888023967854679,None,,,,,,,,,,,,,,,,,,,376,2023-11-09_09h54.26.752,leap3,2022.2.5,59.99473014569988,
,,,,,,,,,,,,,,,,,,,,9,0,9,0,20,0,20,0,,,,,,caution,w,g,lower,,,,,,,3,w,LoDemNoTar,None,g,1,0.5235349712893367,None,,,,,,,,,,,,,,,,,,,376,2023-11-09_09h54.26.752,leap3,2022.2.5,59.99473014569988,
,,,,,,,,,,,,,,,,,,,,9,0,9,0,21,0,21,0,,,,,,strenuous,w,g,lower,,,,,,,3,w,LoDemNoTar,None,g,1,0.5809030667878687,None,,,,,,,,,,,,,,,,,,,376,2023-11-09_09h54.26.752,leap3,2022.2.5,59.99473014569988,
,,,,,,,,,,,,,,,,,,,,9,0,9,0,22,0,22,0,,,,,,fuestion,nw,h,lower,,,,,,,3,nw,LoDemNoTar,None,h,1,0.6921975999139249,None,,,,,,,,,,,,,,,,,,,376,2023-11-09_09h54.26.752,leap3,2022.2.5,59.99473014569988,
,,,,,,,,,,,,,,,,,,,,9,0,9,0,23,0,23,0,,,,,,marvel,w,g,lower,,,,,,,3,w,LoDemNoTar,None,g,1,0.581933269277215,None,,,,,,,,,,,,,,,,,,,376,2023-11-09_09h54.26.752,leap3,2022.2.5,59.99473014569988,
,,,,,,,,,,,,,,,,,,,,9,0,9,0,24,0,24,0,,,,,,parent,w,g,lower,,,,,,,3,w,LoDemNoTar,None,g,1,0.47719786688685417,None,,,,,,,,,,,,,,,,,,,376,2023-11-09_09h54.26.752,leap3,2022.2.5,59.99473014569988,
,,,,,,,,,,,,,,,,,,,,9,0,9,0,25,0,25,0,,,,,,veclors,nw,h,lower,,,,,,,3,nw,LoDemNoTar,None,h,1,0.5284858625382185,None,,,,,,,,,,,,,,,,,,,376,2023-11-09_09h54.26.752,leap3,2022.2.5,59.99473014569988,
,,,,,,,,,,,,,,,,,,,,9,0,9,0,26,0,26,0,,,,,,baseline,w,g,lower,,,,,,,3,w,LoDemNoTar,None,g,1,0.5699236914515495,None,,,,,,,,,,,,,,,,,,,376,2023-11-09_09h54.26.752,leap3,2022.2.5,59.99473014569988,
,,,,,,,,,,,,,,,,,,,,9,0,9,0,27,0,27,0,,,,,,potter,w,g,lower,,,,,,,3,w,LoDemNoTar,None,g,1,0.5212699128314853,None,,,,,,,,,,,,,,,,,,,376,2023-11-09_09h54.26.752,leap3,2022.2.5,59.99473014569988,
,,,,,,,,,,,,,,,,,,,,9,0,9,0,28,0,28,0,,,,,,olgies,nw,h,lower,,,,,,,3,nw,LoDemNoTar,None,h,1,0.5865811062976718,None,,,,,,,,,,,,,,,,,,,376,2023-11-09_09h54.26.752,leap3,2022.2.5,59.99473014569988,
,,,,,,,,,,,,,,,,,,,,9,0,9,0,29,0,29,0,,,,,,season,w,g,lower,,,,,,,3,w,LoDemNoTar,None,g,1,0.513177702203393,None,,,,,,,,,,,,,,,,,,,376,2023-11-09_09h54.26.752,leap3,2022.2.5,59.99473014569988,
,,,,,,,,,,,,,,,,,,,,9,0,9,0,,,,,,,,,,,,,,,,,,,,,,,,,,,,,,,,,,,,,,,,,,,,,,376,2023-11-09_09h54.26.752,leap3,2022.2.5,59.99473014569988,
,,,,,,,,,,,,,,,,,,,,10,0,10,0,0,0,0,0,,,,,,image,w,g,lower,,,,,,,3,w,LoDemNoTar,None,g,1,0.8664718619547784,None,,,,,,,,,,,,,,,,,,,376,2023-11-09_09h54.26.752,leap3,2022.2.5,59.99473014569988,
,,,,,,,,,,,,,,,,,,,,10,0,10,0,1,0,1,0,,,,,,sheerio,nw,h,lower,,,,,,,3,nw,LoDemNoTar,None,h,1,0.5108568025752902,None,,,,,,,,,,,,,,,,,,,376,2023-11-09_09h54.26.752,leap3,2022.2.5,59.99473014569988,
,,,,,,,,,,,,,,,,,,,,10,0,10,0,2,0,2,0,,,,,,gradielts,nw,h,lower,,,,,,,3,nw,LoDemNoTar,None,h,1,0.9289629007689655,None,,,,,,,,,,,,,,,,,,,376,2023-11-09_09h54.26.752,leap3,2022.2.5,59.99473014569988,
,,,,,,,,,,,,,,,,,,,,10,0,10,0,3,0,3,0,,,,,,gettle,nw,h,lower,,,,,,,3,nw,LoDemNoTar,None,h,1,0.858213032130152,None,,,,,,,,,,,,,,,,,,,376,2023-11-09_09h54.26.752,leap3,2022.2.5,59.99473014569988,
,,,,,,,,,,,,,,,,,,,,10,0,10,0,4,0,4,0,,,,,,finish,w,g,lower,,,,,,,3,w,LoDemNoTar,None,g,1,0.4781598527915776,None,,,,,,,,,,,,,,,,,,,376,2023-11-09_09h54.26.752,leap3,2022.2.5,59.99473014569988,
,,,,,,,,,,,,,,,,,,,,10,0,10,0,5,0,5,0,,,,,,intercede,w,g,lower,,,,,,,3,w,LoDemNoTar,None,g,1,0.5215032403357327,None,,,,,,,,,,,,,,,,,,,376,2023-11-09_09h54.26.752,leap3,2022.2.5,59.99473014569988,
,,,,,,,,,,,,,,,,,,,,10,0,10,0,6,0,6,0,,,,,,finstrel,nw,h,lower,,,,,,,3,nw,LoDemNoTar,None,h,1,0.9468919965438545,None,,,,,,,,,,,,,,,,,,,376,2023-11-09_09h54.26.752,leap3,2022.2.5,59.99473014569988,
,,,,,,,,,,,,,,,,,,,,10,0,10,0,7,0,7,0,,,,,,sarlock,nw,h,lower,,,,,,,3,nw,LoDemNoTar,None,g,0,0.5075392043218017,None,,,,,,,,,,,,,,,,,,,376,2023-11-09_09h54.26.752,leap3,2022.2.5,59.99473014569988,
,,,,,,,,,,,,,,,,,,,,10,0,10,0,8,0,8,0,,,,,,tuckel,nw,h,lower,,,,,,,3,nw,LoDemNoTar,None,g,0,0.540630969684571,None,,,,,,,,,,,,,,,,,,,376,2023-11-09_09h54.26.752,leap3,2022.2.5,59.99473014569988,
,,,,,,,,,,,,,,,,,,,,10,0,10,0,9,0,9,0,,,,,,unmarked,w,g,lower,,,,,,,3,w,LoDemNoTar,None,g,1,0.7491796328686178,None,,,,,,,,,,,,,,,,,,,376,2023-11-09_09h54.26.752,leap3,2022.2.5,59.99473014569988,
,,,,,,,,,,,,,,,,,,,,10,0,10,0,10,0,10,0,,,,,,wimpid,nw,h,lower,,,,,,,3,nw,LoDemNoTar,None,h,1,0.6857866761274636,None,,,,,,,,,,,,,,,,,,,376,2023-11-09_09h54.26.752,leap3,2022.2.5,59.99473014569988,
,,,,,,,,,,,,,,,,,,,,10,0,10,0,11,0,11,0,,,,,,leather,w,g,lower,,,,,,,3,w,LoDemNoTar,None,g,1,0.5765045550651848,None,,,,,,,,,,,,,,,,,,,376,2023-11-09_09h54.26.752,leap3,2022.2.5,59.99473014569988,
,,,,,,,,,,,,,,,,,,,,10,0,10,0,12,0,12,0,,,,,,guffy,nw,h,lower,,,,,,,3,nw,LoDemNoTar,None,h,1,0.6638445272110403,None,,,,,,,,,,,,,,,,,,,376,2023-11-09_09h54.26.752,leap3,2022.2.5,59.99473014569988,
,,,,,,,,,,,,,,,,,,,,10,0,10,0,13,0,13,0,,,,,,vibrate,w,g,lower,,,,,,,3,w,LoDemNoTar,None,g,1,0.6598737328313291,None,,,,,,,,,,,,,,,,,,,376,2023-11-09_09h54.26.752,leap3,2022.2.5,59.99473014569988,
,,,,,,,,,,,,,,,,,,,,10,0,10,0,14,0,14,0,,,,,,glattery,nw,h,lower,,,,,,,3,nw,LoDemNoTar,None,h,1,0.5358768831938505,None,,,,,,,,,,,,,,,,,,,376,2023-11-09_09h54.26.752,leap3,2022.2.5,59.99473014569988,
,,,,,,,,,,,,,,,,,,,,10,0,10,0,15,0,15,0,,,,,,deceit,w,g,lower,,,,,,,3,w,LoDemNoTar,None,g,1,0.6805354473181069,None,,,,,,,,,,,,,,,,,,,376,2023-11-09_09h54.26.752,leap3,2022.2.5,59.99473014569988,
,,,,,,,,,,,,,,,,,,,,10,0,10,0,16,0,16,0,,,,,,reconcile,w,g,lower,,,,,,,3,w,LoDemNoTar,None,g,1,0.7718709651380777,None,,,,,,,,,,,,,,,,,,,376,2023-11-09_09h54.26.752,leap3,2022.2.5,59.99473014569988,
,,,,,,,,,,,,,,,,,,,,10,0,10,0,17,0,17,0,,,,,,arrival,w,g,lower,,,,,,,3,w,LoDemNoTar,None,g,1,0.5782721699215472,None,,,,,,,,,,,,,,,,,,,376,2023-11-09_09h54.26.752,leap3,2022.2.5,59.99473014569988,
,,,,,,,,,,,,,,,,,,,,10,0,10,0,18,0,18,0,,,,,,flougy,nw,h,lower,,,,,,,3,nw,LoDemNoTar,None,h,1,0.7854827460832894,None,,,,,,,,,,,,,,,,,,,376,2023-11-09_09h54.26.752,leap3,2022.2.5,59.99473014569988,
,,,,,,,,,,,,,,,,,,,,10,0,10,0,19,0,19,0,,,,,,pretzel,w,g,lower,,,,,,,3,w,LoDemNoTar,None,g,1,0.7768526449799538,None,,,,,,,,,,,,,,,,,,,376,2023-11-09_09h54.26.752,leap3,2022.2.5,59.99473014569988,
,,,,,,,,,,,,,,,,,,,,10,0,10,0,20,0,20,0,,,,,,kiner,nw,h,lower,,,,,,,3,nw,LoDemNoTar,None,h,1,0.6721869688481092,None,,,,,,,,,,,,,,,,,,,376,2023-11-09_09h54.26.752,leap3,2022.2.5,59.99473014569988,
,,,,,,,,,,,,,,,,,,,,10,0,10,0,21,0,21,0,,,,,,volder,nw,h,lower,,,,,,,3,nw,LoDemNoTar,None,h,1,1.3394869100302458,None,,,,,,,,,,,,,,,,,,,376,2023-11-09_09h54.26.752,leap3,2022.2.5,59.99473014569988,
,,,,,,,,,,,,,,,,,,,,10,0,10,0,22,0,22,0,,,,,,nostril,w,g,lower,,,,,,,3,w,LoDemNoTar,None,g,1,0.6909920237958431,None,,,,,,,,,,,,,,,,,,,376,2023-11-09_09h54.26.752,leap3,2022.2.5,59.99473014569988,
,,,,,,,,,,,,,,,,,,,,10,0,10,0,23,0,23,0,,,,,,religious,w,g,lower,,,,,,,3,w,LoDemNoTar,None,g,1,0.4615842383354902,None,,,,,,,,,,,,,,,,,,,376,2023-11-09_09h54.26.752,leap3,2022.2.5,59.99473014569988,
,,,,,,,,,,,,,,,,,,,,10,0,10,0,24,0,24,0,,,,,,lifetime,w,g,lower,,,,,,,3,w,LoDemNoTar,None,g,1,0.4902367424219847,None,,,,,,,,,,,,,,,,,,,376,2023-11-09_09h54.26.752,leap3,2022.2.5,59.99473014569988,
,,,,,,,,,,,,,,,,,,,,10,0,10,0,25,0,25,0,,,,,,dehydrate,w,g,lower,,,,,,,3,w,LoDemNoTar,None,g,1,0.5252914177253842,None,,,,,,,,,,,,,,,,,,,376,2023-11-09_09h54.26.752,leap3,2022.2.5,59.99473014569988,
,,,,,,,,,,,,,,,,,,,,10,0,10,0,26,0,26,0,,,,,,eugenifs,nw,h,lower,,,,,,,3,nw,LoDemNoTar,None,h,1,0.6293211025185883,None,,,,,,,,,,,,,,,,,,,376,2023-11-09_09h54.26.752,leap3,2022.2.5,59.99473014569988,
,,,,,,,,,,,,,,,,,,,,10,0,10,0,27,0,27,0,,,,,,provide,w,g,lower,,,,,,,3,w,LoDemNoTar,None,g,1,0.6599380262196064,None,,,,,,,,,,,,,,,,,,,376,2023-11-09_09h54.26.752,leap3,2022.2.5,59.99473014569988,
,,,,,,,,,,,,,,,,,,,,10,0,10,0,28,0,28,0,,,,,,podes,nw,h,lower,,,,,,,3,nw,LoDemNoTar,None,h,1,0.5828536003828049,None,,,,,,,,,,,,,,,,,,,376,2023-11-09_09h54.26.752,leap3,2022.2.5,59.99473014569988,
,,,,,,,,,,,,,,,,,,,,10,0,10,0,29,0,29,0,,,,,,ecistle,nw,h,lower,,,,,,,3,nw,LoDemNoTar,None,h,1,0.6381256715394557,None,,,,,,,,,,,,,,,,,,,376,2023-11-09_09h54.26.752,leap3,2022.2.5,59.99473014569988,
,,,,,,,,,,,,,,,,,,,,10,0,10,0,,,,,,,,,,,,,,,,,,,,,,,,,,,,,,,,,,,,,,,,,,,,,,376,2023-11-09_09h54.26.752,leap3,2022.2.5,59.99473014569988,
,,,,,,,,,,,,,,,,,,,,11,0,11,0,0,0,0,0,,,,,,arranged,w,g,upper,,,,,,,2,w,HiDemNoTar,None,g,1,1.5955064138397574,None,,,,,,,,,,,,,,,,,,,376,2023-11-09_09h54.26.752,leap3,2022.2.5,59.99473014569988,
,,,,,,,,,,,,,,,,,,,,11,0,11,0,1,0,1,0,,,,,,gelfry,nw,h,upper,,,,,,,2,nw,HiDemNoTar,None,h,1,0.5768981631845236,None,,,,,,,,,,,,,,,,,,,376,2023-11-09_09h54.26.752,leap3,2022.2.5,59.99473014569988,
,,,,,,,,,,,,,,,,,,,,11,0,11,0,2,0,2,0,,,,,,noils,nw,h,upper,,,,,,,2,nw,HiDemNoTar,None,h,1,0.6322152093052864,None,,,,,,,,,,,,,,,,,,,376,2023-11-09_09h54.26.752,leap3,2022.2.5,59.99473014569988,
,,,,,,,,,,,,,,,,,,,,11,0,11,0,3,0,3,0,,,,,,volume,w,g,upper,,,,,,,2,w,HiDemNoTar,None,g,1,0.7173547190614045,None,,,,,,,,,,,,,,,,,,,376,2023-11-09_09h54.26.752,leap3,2022.2.5,59.99473014569988,
,,,,,,,,,,,,,,,,,,,,11,0,11,0,4,0,4,0,,,,,,recollect,w,g,upper,,,,,,,2,w,HiDemNoTar,None,g,1,0.4793041539378464,None,,,,,,,,,,,,,,,,,,,376,2023-11-09_09h54.26.752,leap3,2022.2.5,59.99473014569988,
,,,,,,,,,,,,,,,,,,,,11,0,11,0,5,0,5,0,,,,,,aligning,w,g,upper,,,,,,,2,w,HiDemNoTar,None,g,1,0.5145106576383114,None,,,,,,,,,,,,,,,,,,,376,2023-11-09_09h54.26.752,leap3,2022.2.5,59.99473014569988,
,,,,,,,,,,,,,,,,,,,,11,0,11,0,6,0,6,0,,,,,,yearnungs,nw,h,upper,,,,,,,2,nw,HiDemNoTar,None,h,1,0.6685162102803588,None,,,,,,,,,,,,,,,,,,,376,2023-11-09_09h54.26.752,leap3,2022.2.5,59.99473014569988,
,,,,,,,,,,,,,,,,,,,,11,0,11,0,7,0,7,0,,,,,,gairs,nw,h,upper,,,,,,,2,nw,HiDemNoTar,None,g,0,0.5524404235184193,None,,,,,,,,,,,,,,,,,,,376,2023-11-09_09h54.26.752,leap3,2022.2.5,59.99473014569988,
,,,,,,,,,,,,,,,,,,,,11,0,11,0,8,0,8,0,,,,,,ounside,nw,h,upper,,,,,,,2,nw,HiDemNoTar,None,h,1,0.6002719714306295,None,,,,,,,,,,,,,,,,,,,376,2023-11-09_09h54.26.752,leap3,2022.2.5,59.99473014569988,
,,,,,,,,,,,,,,,,,,,,11,0,11,0,9,0,9,0,,,,,,even,w,g,upper,,,,,,,2,w,HiDemNoTar,None,g,1,0.7189849931746721,None,,,,,,,,,,,,,,,,,,,376,2023-11-09_09h54.26.752,leap3,2022.2.5,59.99473014569988,
,,,,,,,,,,,,,,,,,,,,11,0,11,0,10,0,10,0,,,,,,laser,w,g,upper,,,,,,,2,w,HiDemNoTar,None,g,1,1.0169711615890265,None,,,,,,,,,,,,,,,,,,,376,2023-11-09_09h54.26.752,leap3,2022.2.5,59.99473014569988,
,,,,,,,,,,,,,,,,,,,,11,0,11,0,11,0,11,0,,,,,,sooled,nw,h,upper,,,,,,,2,nw,HiDemNoTar,None,h,1,0.7990163485519588,None,,,,,,,,,,,,,,,,,,,376,2023-11-09_09h54.26.752,leap3,2022.2.5,59.99473014569988,
,,,,,,,,,,,,,,,,,,,,11,0,11,0,12,0,12,0,,,,,,bickering,w,g,upper,,,,,,,2,w,HiDemNoTar,None,g,1,0.8754361080937088,None,,,,,,,,,,,,,,,,,,,376,2023-11-09_09h54.26.752,leap3,2022.2.5,59.99473014569988,
,,,,,,,,,,,,,,,,,,,,11,0,11,0,13,0,13,0,,,,,,vaporize,w,g,upper,,,,,,,2,w,HiDemNoTar,None,g,1,0.5831977059133351,None,,,,,,,,,,,,,,,,,,,376,2023-11-09_09h54.26.752,leap3,2022.2.5,59.99473014569988,
,,,,,,,,,,,,,,,,,,,,11,0,11,0,14,0,14,0,,,,,,prama,nw,h,upper,,,,,,,2,nw,HiDemNoTar,None,h,1,0.7191546312533319,None,,,,,,,,,,,,,,,,,,,376,2023-11-09_09h54.26.752,leap3,2022.2.5,59.99473014569988,
,,,,,,,,,,,,,,,,,,,,11,0,11,0,15,0,15,0,,,,,,trecious,nw,h,upper,,,,,,,2,nw,HiDemNoTar,None,h,1,1.592454441357404,None,,,,,,,,,,,,,,,,,,,376,2023-11-09_09h54.26.752,leap3,2022.2.5,59.99473014569988,
,,,,,,,,,,,,,,,,,,,,11,0,11,0,16,0,16,0,,,,,,checkout,w,g,upper,,,,,,,2,w,HiDemNoTar,None,g,1,0.6230774014256895,None,,,,,,,,,,,,,,,,,,,376,2023-11-09_09h54.26.752,leap3,2022.2.5,59.99473014569988,
,,,,,,,,,,,,,,,,,,,,11,0,11,0,17,0,17,0,,,,,,single,w,g,upper,,,,,,,2,w,HiDemNoTar,None,g,1,0.9244291624054313,None,,,,,,,,,,,,,,,,,,,376,2023-11-09_09h54.26.752,leap3,2022.2.5,59.99473014569988,
,,,,,,,,,,,,,,,,,,,,11,0,11,0,18,0,18,0,,,,,,slightly,w,g,upper,,,,,,,2,w,HiDemNoTar,None,g,1,1.1327393664978445,None,,,,,,,,,,,,,,,,,,,376,2023-11-09_09h54.26.752,leap3,2022.2.5,59.99473014569988,
,,,,,,,,,,,,,,,,,,,,11,0,11,0,19,0,19,0,,,,,,setwixt,nw,h,upper,,,,,,,2,nw,HiDemNoTar,None,h,1,0.5586264715529978,None,,,,,,,,,,,,,,,,,,,376,2023-11-09_09h54.26.752,leap3,2022.2.5,59.99473014569988,
,,,,,,,,,,,,,,,,,,,,11,0,11,0,20,0,20,0,,,,,,bengths,nw,h,upper,,,,,,,2,nw,HiDemNoTar,None,h,1,0.7099570576101542,None,,,,,,,,,,,,,,,,,,,376,2023-11-09_09h54.26.752,leap3,2022.2.5,59.99473014569988,
,,,,,,,,,,,,,,,,,,,,11,0,11,0,21,0,21,0,,,,,,butcher,w,g,upper,,,,,,,2,w,HiDemNoTar,None,g,1,0.5998687036335468,None,,,,,,,,,,,,,,,,,,,376,2023-11-09_09h54.26.752,leap3,2022.2.5,59.99473014569988,
,,,,,,,,,,,,,,,,,,,,11,0,11,0,22,0,22,0,,,,,,organize,w,g,upper,,,,,,,2,w,HiDemNoTar,None,g,1,0.49458695901557803,None,,,,,,,,,,,,,,,,,,,376,2023-11-09_09h54.26.752,leap3,2022.2.5,59.99473014569988,
,,,,,,,,,,,,,,,,,,,,11,0,11,0,23,0,23,0,,,,,,mubby,nw,h,upper,,,,,,,2,nw,HiDemNoTar,None,h,1,0.5851980443112552,None,,,,,,,,,,,,,,,,,,,376,2023-11-09_09h54.26.752,leap3,2022.2.5,59.99473014569988,
,,,,,,,,,,,,,,,,,,,,11,0,11,0,24,0,24,0,,,,,,amkles,nw,h,upper,,,,,,,2,nw,HiDemNoTar,None,h,1,0.704503289423883,None,,,,,,,,,,,,,,,,,,,376,2023-11-09_09h54.26.752,leap3,2022.2.5,59.99473014569988,
,,,,,,,,,,,,,,,,,,,,11,0,11,0,25,0,25,0,,,,,,painter,w,g,upper,,,,,,,2,w,HiDemNoTar,None,g,1,0.5544848321005702,None,,,,,,,,,,,,,,,,,,,376,2023-11-09_09h54.26.752,leap3,2022.2.5,59.99473014569988,
,,,,,,,,,,,,,,,,,,,,11,0,11,0,26,0,26,0,,,,,,trembla,nw,h,upper,,,,,,,2,nw,HiDemNoTar,None,h,1,0.6272120987996459,None,,,,,,,,,,,,,,,,,,,376,2023-11-09_09h54.26.752,leap3,2022.2.5,59.99473014569988,
,,,,,,,,,,,,,,,,,,,,11,0,11,0,27,0,27,0,,,,,,theery,nw,h,upper,,,,,,,2,nw,HiDemNoTar,None,h,1,0.5676927417516708,None,,,,,,,,,,,,,,,,,,,376,2023-11-09_09h54.26.752,leap3,2022.2.5,59.99473014569988,
,,,,,,,,,,,,,,,,,,,,11,0,11,0,28,0,28,0,,,,,,causality,w,g,upper,,,,,,,2,w,HiDemNoTar,None,g,1,0.5835970491170883,None,,,,,,,,,,,,,,,,,,,376,2023-11-09_09h54.26.752,leap3,2022.2.5,59.99473014569988,
,,,,,,,,,,,,,,,,,,,,11,0,11,0,29,0,29,0,,,,,,digar,nw,h,upper,,,,,,,2,nw,HiDemNoTar,None,h,1,0.6238459036685526,None,,,,,,,,,,,,,,,,,,,376,2023-11-09_09h54.26.752,leap3,2022.2.5,59.99473014569988,
,,,,,,,,,,,,,,,,,,,,11,0,11,0,,,,,,,,,,,,,,,,,,,,,,,,,,,,,,,,,,,,,,,,,,,,,,376,2023-11-09_09h54.26.752,leap3,2022.2.5,59.99473014569988,
,,,,,,,,,,,,,,,,,,,,12,0,12,0,0,0,0,0,,,,,,drine,nw,h,lower,,,,,,,3,nw,LoDemNoTar,None,g,0,0.6048425356857479,None,,,,,,,,,,,,,,,,,,,376,2023-11-09_09h54.26.752,leap3,2022.2.5,59.99473014569988,
,,,,,,,,,,,,,,,,,,,,12,0,12,0,1,0,1,0,,,,,,jungle,w,g,lower,,,,,,,3,w,LoDemNoTar,None,g,1,0.5068446546792984,None,,,,,,,,,,,,,,,,,,,376,2023-11-09_09h54.26.752,leap3,2022.2.5,59.99473014569988,
,,,,,,,,,,,,,,,,,,,,12,0,12,0,2,0,2,0,,,,,,doads,nw,h,lower,,,,,,,3,nw,LoDemNoTar,None,h,1,0.6197163378819823,None,,,,,,,,,,,,,,,,,,,376,2023-11-09_09h54.26.752,leap3,2022.2.5,59.99473014569988,
,,,,,,,,,,,,,,,,,,,,12,0,12,0,3,0,3,0,,,,,,stifle,w,g,lower,,,,,,,3,w,LoDemNoTar,None,g,1,0.6491587753407657,None,,,,,,,,,,,,,,,,,,,376,2023-11-09_09h54.26.752,leap3,2022.2.5,59.99473014569988,
,,,,,,,,,,,,,,,,,,,,12,0,12,0,4,0,4,0,,,,,,dumult,nw,h,lower,,,,,,,3,nw,LoDemNoTar,None,h,1,1.0376087287440896,None,,,,,,,,,,,,,,,,,,,376,2023-11-09_09h54.26.752,leap3,2022.2.5,59.99473014569988,
,,,,,,,,,,,,,,,,,,,,12,0,12,0,5,0,5,0,,,,,,gaioty,nw,h,lower,,,,,,,3,nw,LoDemNoTar,None,h,1,0.7946622087620199,None,,,,,,,,,,,,,,,,,,,376,2023-11-09_09h54.26.752,leap3,2022.2.5,59.99473014569988,
,,,,,,,,,,,,,,,,,,,,12,0,12,0,6,0,6,0,,,,,,razelle,nw,h,lower,,,,,,,3,nw,LoDemNoTar,None,h,1,1.5772754717618227,None,,,,,,,,,,,,,,,,,,,376,2023-11-09_09h54.26.752,leap3,2022.2.5,59.99473014569988,
,,,,,,,,,,,,,,,,,,,,12,0,12,0,7,0,7,0,,,,,,deficit,w,g,lower,,,,,,,3,w,LoDemNoTar,None,h,0,0.9525531330145895,None,,,,,,,,,,,,,,,,,,,376,2023-11-09_09h54.26.752,leap3,2022.2.5,59.99473014569988,
,,,,,,,,,,,,,,,,,,,,12,0,12,0,8,0,8,0,,,,,,infusion,w,g,lower,,,,,,,3,w,LoDemNoTar,None,g,1,0.6246002186089754,None,,,,,,,,,,,,,,,,,,,376,2023-11-09_09h54.26.752,leap3,2022.2.5,59.99473014569988,
,,,,,,,,,,,,,,,,,,,,12,0,12,0,9,0,9,0,,,,,,abhorrent,w,g,lower,,,,,,,3,w,LoDemNoTar,None,g,1,0.8219536864198744,None,,,,,,,,,,,,,,,,,,,376,2023-11-09_09h54.26.752,leap3,2022.2.5,59.99473014569988,
,,,,,,,,,,,,,,,,,,,,12,0,12,0,10,0,10,0,,,,,,arrow,w,g,lower,,,,,,,3,w,LoDemNoTar,None,g,1,0.7072561327368021,None,,,,,,,,,,,,,,,,,,,376,2023-11-09_09h54.26.752,leap3,2022.2.5,59.99473014569988,
,,,,,,,,,,,,,,,,,,,,12,0,12,0,11,0,11,0,,,,,,except,w,g,lower,,,,,,,3,w,LoDemNoTar,None,g,1,0.5012571690604091,None,,,,,,,,,,,,,,,,,,,376,2023-11-09_09h54.26.752,leap3,2022.2.5,59.99473014569988,
,,,,,,,,,,,,,,,,,,,,12,0,12,0,12,0,12,0,,,,,,atch,nw,h,lower,,,,,,,3,nw,LoDemNoTar,None,h,1,0.7030293717980385,None,,,,,,,,,,,,,,,,,,,376,2023-11-09_09h54.26.752,leap3,2022.2.5,59.99473014569988,
,,,,,,,,,,,,,,,,,,,,12,0,12,0,13,0,13,0,,,,,,diatonic,w,g,lower,,,,,,,3,w,LoDemNoTar,None,g,1,0.9688712721690536,None,,,,,,,,,,,,,,,,,,,376,2023-11-09_09h54.26.752,leap3,2022.2.5,59.99473014569988,
,,,,,,,,,,,,,,,,,,,,12,0,12,0,14,0,14,0,,,,,,binder,w,g,lower,,,,,,,3,w,LoDemNoTar,None,h,0,0.9928689976222813,None,,,,,,,,,,,,,,,,,,,376,2023-11-09_09h54.26.752,leap3,2022.2.5,59.99473014569988,
,,,,,,,,,,,,,,,,,,,,12,0,12,0,15,0,15,0,,,,,,committed,w,g,lower,,,,,,,3,w,LoDemNoTar,None,g,1,0.5676495777443051,None,,,,,,,,,,,,,,,,,,,376,2023-11-09_09h54.26.752,leap3,2022.2.5,59.99473014569988,
,,,,,,,,,,,,,,,,,,,,12,0,12,0,16,0,16,0,,,,,,forfeit,w,g,lower,,,,,,,3,w,LoDemNoTar,None,g,1,0.5035149832256138,None,,,,,,,,,,,,,,,,,,,376,2023-11-09_09h54.26.752,leap3,2022.2.5,59.99473014569988,
,,,,,,,,,,,,,,,,,,,,12,0,12,0,17,0,17,0,,,,,,gestalion,nw,h,lower,,,,,,,3,nw,LoDemNoTar,None,h,1,0.5615392928011715,None,,,,,,,,,,,,,,,,,,,376,2023-11-09_09h54.26.752,leap3,2022.2.5,59.99473014569988,
,,,,,,,,,,,,,,,,,,,,12,0,12,0,18,0,18,0,,,,,,tusied,nw,h,lower,,,,,,,3,nw,LoDemNoTar,None,h,1,0.6814500433392823,None,,,,,,,,,,,,,,,,,,,376,2023-11-09_09h54.26.752,leap3,2022.2.5,59.99473014569988,
,,,,,,,,,,,,,,,,,,,,12,0,12,0,19,0,19,0,,,,,,hostade,nw,h,lower,,,,,,,3,nw,LoDemNoTar,None,h,1,1.2368408907204866,None,,,,,,,,,,,,,,,,,,,376,2023-11-09_09h54.26.752,leap3,2022.2.5,59.99473014569988,
,,,,,,,,,,,,,,,,,,,,12,0,12,0,20,0,20,0,,,,,,coster,nw,h,lower,,,,,,,3,nw,LoDemNoTar,None,h,1,0.5926506416872144,None,,,,,,,,,,,,,,,,,,,376,2023-11-09_09h54.26.752,leap3,2022.2.5,59.99473014569988,
,,,,,,,,,,,,,,,,,,,,12,0,12,0,21,0,21,0,,,,,,huffle,nw,h,lower,,,,,,,3,nw,LoDemNoTar,None,h,1,1.0721372845582664,None,,,,,,,,,,,,,,,,,,,376,2023-11-09_09h54.26.752,leap3,2022.2.5,59.99473014569988,
,,,,,,,,,,,,,,,,,,,,12,0,12,0,22,0,22,0,,,,,,efficient,w,g,lower,,,,,,,3,w,LoDemNoTar,None,g,1,0.5785163640975952,None,,,,,,,,,,,,,,,,,,,376,2023-11-09_09h54.26.752,leap3,2022.2.5,59.99473014569988,
,,,,,,,,,,,,,,,,,,,,12,0,12,0,23,0,23,0,,,,,,fisco,nw,h,lower,,,,,,,3,nw,LoDemNoTar,None,h,1,0.7938173399306834,None,,,,,,,,,,,,,,,,,,,376,2023-11-09_09h54.26.752,leap3,2022.2.5,59.99473014569988,
,,,,,,,,,,,,,,,,,,,,12,0,12,0,24,0,24,0,,,,,,oppose,w,g,lower,,,,,,,3,w,LoDemNoTar,None,g,1,0.5525035094469786,None,,,,,,,,,,,,,,,,,,,376,2023-11-09_09h54.26.752,leap3,2022.2.5,59.99473014569988,
,,,,,,,,,,,,,,,,,,,,12,0,12,0,25,0,25,0,,,,,,nopping,nw,h,lower,,,,,,,3,nw,LoDemNoTar,None,h,1,0.7672116584144533,None,,,,,,,,,,,,,,,,,,,376,2023-11-09_09h54.26.752,leap3,2022.2.5,59.99473014569988,
,,,,,,,,,,,,,,,,,,,,12,0,12,0,26,0,26,0,,,,,,fomes,nw,h,lower,,,,,,,3,nw,LoDemNoTar,None,h,1,0.5427644229494035,None,,,,,,,,,,,,,,,,,,,376,2023-11-09_09h54.26.752,leap3,2022.2.5,59.99473014569988,
,,,,,,,,,,,,,,,,,,,,12,0,12,0,27,0,27,0,,,,,,passet,nw,h,lower,,,,,,,3,nw,LoDemNoTar,None,h,1,0.6400466244667768,None,,,,,,,,,,,,,,,,,,,376,2023-11-09_09h54.26.752,leap3,2022.2.5,59.99473014569988,
,,,,,,,,,,,,,,,,,,,,12,0,12,0,28,0,28,0,,,,,,filter,w,g,lower,,,,,,,3,w,LoDemNoTar,None,g,1,0.6844199136830866,None,,,,,,,,,,,,,,,,,,,376,2023-11-09_09h54.26.752,leap3,2022.2.5,59.99473014569988,
,,,,,,,,,,,,,,,,,,,,12,0,12,0,29,0,29,0,,,,,,swatches,w,g,lower,,,,,,,3,w,LoDemNoTar,None,h,0,1.200309883337468,None,,,,,,,,,,,,,,,,,,,376,2023-11-09_09h54.26.752,leap3,2022.2.5,59.99473014569988,
,,,,,,,,,,,,,,,,,,,,12,0,12,0,,,,,,,,,,,,,,,,,,,,,,,,,,,,,,,,,,,,,,,,,,,,,,376,2023-11-09_09h54.26.752,leap3,2022.2.5,59.99473014569988,
,,,,,,,,,,,,,,,,,,,,13,0,13,0,0,0,0,0,,,,,,phraining,nw,h,upper,,,,,,,1,nw,HiDemTar,None,h,1,2.630587651859969,None,,,,,,,,,,,,,,,,,,,376,2023-11-09_09h54.26.752,leap3,2022.2.5,59.99473014569988,
,,,,,,,,,,,,,,,,,,,,13,0,13,0,1,0,1,0,,,,,,dricked,nw,h,upper,,,,,,,1,nw,HiDemTar,None,h,1,0.6760581540875137,None,,,,,,,,,,,,,,,,,,,376,2023-11-09_09h54.26.752,leap3,2022.2.5,59.99473014569988,
,,,,,,,,,,,,,,,,,,,,13,0,13,0,2,0,2,0,,,,,,dishwater,w,g,upper,,,,,,,1,w,HiDemTar,None,g,1,1.3194177206605673,None,,,,,,,,,,,,,,,,,,,376,2023-11-09_09h54.26.752,leap3,2022.2.5,59.99473014569988,
,,,,,,,,,,,,,,,,,,,,13,0,13,0,3,0,3,0,,,,,,result,w,g,upper,,,,,,,1,w,HiDemTar,None,g,1,0.6007105545140803,None,,,,,,,,,,,,,,,,,,,376,2023-11-09_09h54.26.752,leap3,2022.2.5,59.99473014569988,
,,,,,,,,,,,,,,,,,,,,13,0,13,0,4,0,4,0,,,,,,guivers,nw,h,upper,,,,,,,1,nw,HiDemTar,None,h,1,0.5657992567867041,None,,,,,,,,,,,,,,,,,,,376,2023-11-09_09h54.26.752,leap3,2022.2.5,59.99473014569988,
,,,,,,,,,,,,,,,,,,,,13,0,13,0,5,0,5,0,,,,,,culinary,w,g,upper,,,,,,,1,w,HiDemTar,None,g,1,0.7177268960513175,None,,,,,,,,,,,,,,,,,,,376,2023-11-09_09h54.26.752,leap3,2022.2.5,59.99473014569988,
,,,,,,,,,,,,,,,,,,,,13,0,13,0,6,0,6,0,,,,,,dealer,w,g,upper,,,,,,,1,w,HiDemTar,None,g,1,0.511090733576566,None,,,,,,,,,,,,,,,,,,,376,2023-11-09_09h54.26.752,leap3,2022.2.5,59.99473014569988,
,,,,,,,,,,,,,,,,,,,,13,0,13,0,7,0,7,0,,,,,,nogwhell,nw,h,upper,,,,,,,1,nw,HiDemTar,None,h,1,0.5451233554631472,None,,,,,,,,,,,,,,,,,,,376,2023-11-09_09h54.26.752,leap3,2022.2.5,59.99473014569988,
,,,,,,,,,,,,,,,,,,,,13,0,13,0,8,0,8,0,,,,,,frunted,nw,h,upper,,,,,,,1,nw,HiDemTar,None,h,1,0.6418088059872389,None,,,,,,,,,,,,,,,,,,,376,2023-11-09_09h54.26.752,leap3,2022.2.5,59.99473014569988,
,,,,,,,,,,,,,,,,,,,,13,0,13,0,9,0,9,0,,,,,,reses,nw,h,upper,,,,,,,1,nw,HiDemTar,None,h,1,0.4544280543923378,None,,,,,,,,,,,,,,,,,,,376,2023-11-09_09h54.26.752,leap3,2022.2.5,59.99473014569988,
,,,,,,,,,,,,,,,,,,,,13,0,13,0,10,0,10,0,,,,,,fomrade,nw,h,upper,,,,,,,1,nw,HiDemTar,None,h,1,0.5945051885209978,None,,,,,,,,,,,,,,,,,,,376,2023-11-09_09h54.26.752,leap3,2022.2.5,59.99473014569988,
,,,,,,,,,,,,,,,,,,,,13,0,13,0,11,0,11,0,,,,,,pregs,nw,h,upper,,,,,,,1,nw,HiDemTar,None,h,1,0.5051262411288917,None,,,,,,,,,,,,,,,,,,,376,2023-11-09_09h54.26.752,leap3,2022.2.5,59.99473014569988,
,,,,,,,,,,,,,,,,,,,,13,0,13,0,12,0,12,0,,,,,,breiled,nw,h,upper,,,,,,,1,nw,HiDemTar,None,h,1,0.49919253727421165,None,,,,,,,,,,,,,,,,,,,376,2023-11-09_09h54.26.752,leap3,2022.2.5,59.99473014569988,
,,,,,,,,,,,,,,,,,,,,13,0,13,0,13,0,13,0,,,,,,prominent,w,g,upper,,,,,,,1,w,HiDemTar,None,g,1,0.6689789411611855,None,,,,,,,,,,,,,,,,,,,376,2023-11-09_09h54.26.752,leap3,2022.2.5,59.99473014569988,
,,,,,,,,,,,,,,,,,,,,13,0,13,0,14,0,14,0,,,,,,outrank,w,g,upper,,,,,,,1,w,HiDemTar,None,h,0,0.6651379410177469,None,,,,,,,,,,,,,,,,,,,376,2023-11-09_09h54.26.752,leap3,2022.2.5,59.99473014569988,
,,,,,,,,,,,,,,,,,,,,13,0,13,0,15,0,15,0,,,,,,regional,w,g,upper,,,,,,,1,w,HiDemTar,None,g,1,0.6750339879654348,None,,,,,,,,,,,,,,,,,,,376,2023-11-09_09h54.26.752,leap3,2022.2.5,59.99473014569988,
,,,,,,,,,,,,,,,,,,,,13,0,13,0,16,0,16,0,,,,,,overwork,w,g,upper,,,,,,,1,w,HiDemTar,None,g,1,0.5262838900089264,None,,,,,,,,,,,,,,,,,,,376,2023-11-09_09h54.26.752,leap3,2022.2.5,59.99473014569988,
,,,,,,,,,,,,,,,,,,,,13,0,13,0,17,0,17,0,,,,,,unstatle,nw,h,upper,,,,,,,1,nw,HiDemTar,None,g,0,0.608341543469578,None,,,,,,,,,,,,,,,,,,,376,2023-11-09_09h54.26.752,leap3,2022.2.5,59.99473014569988,
,,,,,,,,,,,,,,,,,,,,13,0,13,0,18,0,18,0,,,,,,booster,w,g,upper,,,,,,,1,w,HiDemTar,None,g,1,0.5348490942269564,None,,,,,,,,,,,,,,,,,,,376,2023-11-09_09h54.26.752,leap3,2022.2.5,59.99473014569988,
,,,,,,,,,,,,,,,,,,,,13,0,13,0,19,0,19,0,,,,,,rainfall,w,g,upper,,,,,,,1,w,HiDemTar,None,g,1,0.4874881259165704,None,,,,,,,,,,,,,,,,,,,376,2023-11-09_09h54.26.752,leap3,2022.2.5,59.99473014569988,
,,,,,,,,,,,,,,,,,,,,13,0,13,0,20,0,20,0,,,,,,mebase,nw,h,upper,,,,,,,1,nw,HiDemTar,None,h,1,0.5861600302159786,None,,,,,,,,,,,,,,,,,,,376,2023-11-09_09h54.26.752,leap3,2022.2.5,59.99473014569988,
,,,,,,,,,,,,,,,,,,,,13,0,13,0,21,0,21,0,,,,,,posing,w,g,upper,,,,,,,1,w,HiDemTar,None,g,1,0.6968523790128529,None,,,,,,,,,,,,,,,,,,,376,2023-11-09_09h54.26.752,leap3,2022.2.5,59.99473014569988,
,,,,,,,,,,,,,,,,,,,,13,0,13,0,22,0,22,0,,,,,,bettled,nw,h,upper,,,,,,,1,nw,HiDemTar,None,g,0,0.5714969169348478,None,,,,,,,,,,,,,,,,,,,376,2023-11-09_09h54.26.752,leap3,2022.2.5,59.99473014569988,
,,,,,,,,,,,,,,,,,,,,13,0,13,0,23,0,23,0,,,,,,brank,nw,h,upper,,,,,,,1,nw,HiDemTar,None,h,1,0.651057995390147,None,,,,,,,,,,,,,,,,,,,376,2023-11-09_09h54.26.752,leap3,2022.2.5,59.99473014569988,
,,,,,,,,,,,,,,,,,,,,13,0,13,0,24,0,24,0,,,,,,amplifier,w,g,upper,,,,,,,1,w,HiDemTar,None,g,1,0.47796214325353503,None,,,,,,,,,,,,,,,,,,,376,2023-11-09_09h54.26.752,leap3,2022.2.5,59.99473014569988,
,,,,,,,,,,,,,,,,,,,,13,0,13,0,25,0,25,0,,,,,,tasher,nw,h,upper,,,,,,,1,nw,HiDemTar,None,h,1,0.60927907936275,None,,,,,,,,,,,,,,,,,,,376,2023-11-09_09h54.26.752,leap3,2022.2.5,59.99473014569988,
,,,,,,,,,,,,,,,,,,,,13,0,13,0,26,0,26,0,,,,,,spider,target,q,upper,,,,,,,1,target,HiDemTar,None,g,0,0.4631336177699268,None,,,,,,,,,,,,,,,,,,,376,2023-11-09_09h54.26.752,leap3,2022.2.5,59.99473014569988,
,,,,,,,,,,,,,,,,,,,,13,0,13,0,27,0,27,0,,,,,,demise,w,g,upper,,,,,,,1,aftertar1,HiDemTar,None,h,0,0.5391594665125012,None,,,,,,,,,,,,,,,,,,,376,2023-11-09_09h54.26.752,leap3,2022.2.5,59.99473014569988,
,,,,,,,,,,,,,,,,,,,,13,0,13,0,28,0,28,0,,,,,,presence,w,g,upper,,,,,,,1,aftertar2,HiDemTar,None,g,1,0.4918072517029941,None,,,,,,,,,,,,,,,,,,,376,2023-11-09_09h54.26.752,leap3,2022.2.5,59.99473014569988,
,,,,,,,,,,,,,,,,,,,,13,0,13,0,29,0,29,0,,,,,,affluent,w,g,upper,,,,,,,1,aftertar3,HiDemTar,None,g,1,0.5505336574278772,None,,,,,,,,,,,,,,,,,,,376,2023-11-09_09h54.26.752,leap3,2022.2.5,59.99473014569988,
,,,,,,,,,,,,,,,,,,,,13,0,13,0,,,,,,,,,,,,,,,,,,,,,,,,,,,,,,,,,,,,,,,,,,,,,,376,2023-11-09_09h54.26.752,leap3,2022.2.5,59.99473014569988,
,,,,,,,,,,,,,,,,,,,,14,0,14,0,0,0,0,0,,,,,,dominion,w,g,upper,,,,,,,1,w,HiDemTar,None,g,1,0.5654213447123766,None,,,,,,,,,,,,,,,,,,,376,2023-11-09_09h54.26.752,leap3,2022.2.5,59.99473014569988,
,,,,,,,,,,,,,,,,,,,,14,0,14,0,1,0,1,0,,,,,,valif,nw,h,upper,,,,,,,1,nw,HiDemTar,None,h,1,0.6054471344687045,None,,,,,,,,,,,,,,,,,,,376,2023-11-09_09h54.26.752,leap3,2022.2.5,59.99473014569988,
,,,,,,,,,,,,,,,,,,,,14,0,14,0,2,0,2,0,,,,,,removable,w,g,upper,,,,,,,1,w,HiDemTar,None,g,1,0.4594918363727629,None,,,,,,,,,,,,,,,,,,,376,2023-11-09_09h54.26.752,leap3,2022.2.5,59.99473014569988,
,,,,,,,,,,,,,,,,,,,,14,0,14,0,3,0,3,0,,,,,,harfing,nw,h,upper,,,,,,,1,nw,HiDemTar,None,h,1,0.5914471782743931,None,,,,,,,,,,,,,,,,,,,376,2023-11-09_09h54.26.752,leap3,2022.2.5,59.99473014569988,
,,,,,,,,,,,,,,,,,,,,14,0,14,0,4,0,4,0,,,,,,uncle,w,g,upper,,,,,,,1,w,HiDemTar,None,g,1,0.878089944832027,None,,,,,,,,,,,,,,,,,,,376,2023-11-09_09h54.26.752,leap3,2022.2.5,59.99473014569988,
,,,,,,,,,,,,,,,,,,,,14,0,14,0,5,0,5,0,,,,,,phonology,w,g,upper,,,,,,,1,w,HiDemTar,None,g,1,0.6734592532739043,None,,,,,,,,,,,,,,,,,,,376,2023-11-09_09h54.26.752,leap3,2022.2.5,59.99473014569988,
,,,,,,,,,,,,,,,,,,,,14,0,14,0,6,0,6,0,,,,,,mitro,nw,h,upper,,,,,,,1,nw,HiDemTar,None,g,0,0.4527615583501756,None,,,,,,,,,,,,,,,,,,,376,2023-11-09_09h54.26.752,leap3,2022.2.5,59.99473014569988,
,,,,,,,,,,,,,,,,,,,,14,0,14,0,7,0,7,0,,,,,,cassette,w,g,upper,,,,,,,1,w,HiDemTar,None,g,1,0.887654866091907,None,,,,,,,,,,,,,,,,,,,376,2023-11-09_09h54.26.752,leap3,2022.2.5,59.99473014569988,
,,,,,,,,,,,,,,,,,,,,14,0,14,0,8,0,8,0,,,,,,pripend,nw,h,upper,,,,,,,1,nw,HiDemTar,None,h,1,0.6254146015271544,None,,,,,,,,,,,,,,,,,,,376,2023-11-09_09h54.26.752,leap3,2022.2.5,59.99473014569988,
,,,,,,,,,,,,,,,,,,,,14,0,14,0,9,0,9,0,,,,,,despise,w,g,upper,,,,,,,1,w,HiDemTar,None,g,1,0.7601547823287547,None,,,,,,,,,,,,,,,,,,,376,2023-11-09_09h54.26.752,leap3,2022.2.5,59.99473014569988,
,,,,,,,,,,,,,,,,,,,,14,0,14,0,10,0,10,0,,,,,,official,w,g,upper,,,,,,,1,w,HiDemTar,None,g,1,0.9518356435000896,None,,,,,,,,,,,,,,,,,,,376,2023-11-09_09h54.26.752,leap3,2022.2.5,59.99473014569988,
,,,,,,,,,,,,,,,,,,,,14,0,14,0,11,0,11,0,,,,,,alticles,nw,h,upper,,,,,,,1,nw,HiDemTar,None,h,1,1.1118461354635656,None,,,,,,,,,,,,,,,,,,,376,2023-11-09_09h54.26.752,leap3,2022.2.5,59.99473014569988,
,,,,,,,,,,,,,,,,,,,,14,0,14,0,12,0,12,0,,,,,,gensions,nw,h,upper,,,,,,,1,nw,HiDemTar,None,h,1,0.6978723197244108,None,,,,,,,,,,,,,,,,,,,376,2023-11-09_09h54.26.752,leap3,2022.2.5,59.99473014569988,
,,,,,,,,,,,,,,,,,,,,14,0,14,0,13,0,13,0,,,,,,create,w,g,upper,,,,,,,1,w,HiDemTar,None,g,1,0.5245503839105368,None,,,,,,,,,,,,,,,,,,,376,2023-11-09_09h54.26.752,leap3,2022.2.5,59.99473014569988,
,,,,,,,,,,,,,,,,,,,,14,0,14,0,14,0,14,0,,,,,,farochial,nw,h,upper,,,,,,,1,nw,HiDemTar,None,h,1,0.5412585092708468,None,,,,,,,,,,,,,,,,,,,376,2023-11-09_09h54.26.752,leap3,2022.2.5,59.99473014569988,
,,,,,,,,,,,,,,,,,,,,14,0,14,0,15,0,15,0,,,,,,ralliep,nw,h,upper,,,,,,,1,nw,HiDemTar,None,h,1,0.5585736483335495,None,,,,,,,,,,,,,,,,,,,376,2023-11-09_09h54.26.752,leap3,2022.2.5,59.99473014569988,
,,,,,,,,,,,,,,,,,,,,14,0,14,0,16,0,16,0,,,,,,cookbook,w,g,upper,,,,,,,1,w,HiDemTar,None,g,1,0.7266271505504847,None,,,,,,,,,,,,,,,,,,,376,2023-11-09_09h54.26.752,leap3,2022.2.5,59.99473014569988,
,,,,,,,,,,,,,,,,,,,,14,0,14,0,17,0,17,0,,,,,,martial,w,g,upper,,,,,,,1,w,HiDemTar,None,g,1,0.5830181068740785,None,,,,,,,,,,,,,,,,,,,376,2023-11-09_09h54.26.752,leap3,2022.2.5,59.99473014569988,
,,,,,,,,,,,,,,,,,,,,14,0,14,0,18,0,18,0,,,,,,temelity,nw,h,upper,,,,,,,1,nw,HiDemTar,None,h,1,0.6462284470908344,None,,,,,,,,,,,,,,,,,,,376,2023-11-09_09h54.26.752,leap3,2022.2.5,59.99473014569988,
,,,,,,,,,,,,,,,,,,,,14,0,14,0,19,0,19,0,,,,,,reforest,w,g,upper,,,,,,,1,w,HiDemTar,None,g,1,0.6909213913604617,None,,,,,,,,,,,,,,,,,,,376,2023-11-09_09h54.26.752,leap3,2022.2.5,59.99473014569988,
,,,,,,,,,,,,,,,,,,,,14,0,14,0,20,0,20,0,,,,,,arbitrary,w,g,upper,,,,,,,1,w,HiDemTar,None,g,1,0.7415223838761449,None,,,,,,,,,,,,,,,,,,,376,2023-11-09_09h54.26.752,leap3,2022.2.5,59.99473014569988,
,,,,,,,,,,,,,,,,,,,,14,0,14,0,21,0,21,0,,,,,,outlaved,nw,h,upper,,,,,,,1,nw,HiDemTar,None,h,1,0.8142046756111085,None,,,,,,,,,,,,,,,,,,,376,2023-11-09_09h54.26.752,leap3,2022.2.5,59.99473014569988,
,,,,,,,,,,,,,,,,,,,,14,0,14,0,22,0,22,0,,,,,,superstar,w,g,upper,,,,,,,1,w,HiDemTar,None,g,1,0.5482498845085502,None,,,,,,,,,,,,,,,,,,,376,2023-11-09_09h54.26.752,leap3,2022.2.5,59.99473014569988,
,,,,,,,,,,,,,,,,,,,,14,0,14,0,23,0,23,0,,,,,,sengry,nw,h,upper,,,,,,,1,nw,HiDemTar,None,h,1,0.636905909050256,None,,,,,,,,,,,,,,,,,,,376,2023-11-09_09h54.26.752,leap3,2022.2.5,59.99473014569988,
,,,,,,,,,,,,,,,,,,,,14,0,14,0,24,0,24,0,,,,,,acroad,nw,h,upper,,,,,,,1,nw,HiDemTar,None,h,1,0.617515271063894,None,,,,,,,,,,,,,,,,,,,376,2023-11-09_09h54.26.752,leap3,2022.2.5,59.99473014569988,
,,,,,,,,,,,,,,,,,,,,14,0,14,0,25,0,25,0,,,,,,gackpedal,nw,h,upper,,,,,,,1,nw,HiDemTar,None,h,1,0.6548793758265674,None,,,,,,,,,,,,,,,,,,,376,2023-11-09_09h54.26.752,leap3,2022.2.5,59.99473014569988,
,,,,,,,,,,,,,,,,,,,,14,0,14,0,26,0,26,0,,,,,,publish,w,g,upper,,,,,,,1,w,HiDemTar,None,g,1,0.6899313344620168,None,,,,,,,,,,,,,,,,,,,376,2023-11-09_09h54.26.752,leap3,2022.2.5,59.99473014569988,
,,,,,,,,,,,,,,,,,,,,14,0,14,0,27,0,27,0,,,,,,crocodile,target,q,upper,,,,,,,1,target,HiDemTar,None,g,0,0.5815903716720641,None,,,,,,,,,,,,,,,,,,,376,2023-11-09_09h54.26.752,leap3,2022.2.5,59.99473014569988,
,,,,,,,,,,,,,,,,,,,,14,0,14,0,28,0,28,0,,,,,,walnut,w,g,upper,,,,,,,1,aftertar1,HiDemTar,None,g,1,0.48394384095445275,None,,,,,,,,,,,,,,,,,,,376,2023-11-09_09h54.26.752,leap3,2022.2.5,59.99473014569988,
,,,,,,,,,,,,,,,,,,,,14,0,14,0,29,0,29,0,,,,,,subber,nw,h,upper,,,,,,,1,aftertar2,HiDemTar,None,h,1,0.6705449223518372,None,,,,,,,,,,,,,,,,,,,376,2023-11-09_09h54.26.752,leap3,2022.2.5,59.99473014569988,
,,,,,,,,,,,,,,,,,,,,14,0,14,0,,,,,,,,,,,,,,,,,,,,,,,,,,,,,,,,,,,,,,,,,,,,,,376,2023-11-09_09h54.26.752,leap3,2022.2.5,59.99473014569988,
,,,,,,,,,,,,,,,,,,,,15,0,15,0,0,0,0,0,,,,,,mitten,w,g,lower,,,,,,,3,w,LoDemNoTar,None,g,1,0.498400189448148,None,,,,,,,,,,,,,,,,,,,376,2023-11-09_09h54.26.752,leap3,2022.2.5,59.99473014569988,
,,,,,,,,,,,,,,,,,,,,15,0,15,0,1,0,1,0,,,,,,remain,w,g,lower,,,,,,,3,w,LoDemNoTar,None,g,1,0.48565863259136677,None,,,,,,,,,,,,,,,,,,,376,2023-11-09_09h54.26.752,leap3,2022.2.5,59.99473014569988,
,,,,,,,,,,,,,,,,,,,,15,0,15,0,2,0,2,0,,,,,,maximized,w,g,lower,,,,,,,3,w,LoDemNoTar,None,g,1,0.4704162748530507,None,,,,,,,,,,,,,,,,,,,376,2023-11-09_09h54.26.752,leap3,2022.2.5,59.99473014569988,
,,,,,,,,,,,,,,,,,,,,15,0,15,0,3,0,3,0,,,,,,holdup,w,g,lower,,,,,,,3,w,LoDemNoTar,None,h,0,0.467699050437659,None,,,,,,,,,,,,,,,,,,,376,2023-11-09_09h54.26.752,leap3,2022.2.5,59.99473014569988,
,,,,,,,,,,,,,,,,,,,,15,0,15,0,4,0,4,0,,,,,,sustain,w,g,lower,,,,,,,3,w,LoDemNoTar,None,g,1,0.43809361569583416,None,,,,,,,,,,,,,,,,,,,376,2023-11-09_09h54.26.752,leap3,2022.2.5,59.99473014569988,
,,,,,,,,,,,,,,,,,,,,15,0,15,0,5,0,5,0,,,,,,metebing,nw,h,lower,,,,,,,3,nw,LoDemNoTar,None,h,1,0.6027299095876515,None,,,,,,,,,,,,,,,,,,,376,2023-11-09_09h54.26.752,leap3,2022.2.5,59.99473014569988,
,,,,,,,,,,,,,,,,,,,,15,0,15,0,6,0,6,0,,,,,,squadroim,nw,h,lower,,,,,,,3,nw,LoDemNoTar,None,h,1,0.5118471616879106,None,,,,,,,,,,,,,,,,,,,376,2023-11-09_09h54.26.752,leap3,2022.2.5,59.99473014569988,
,,,,,,,,,,,,,,,,,,,,15,0,15,0,7,0,7,0,,,,,,felevance,nw,h,lower,,,,,,,3,nw,LoDemNoTar,None,h,1,0.5383719485253096,None,,,,,,,,,,,,,,,,,,,376,2023-11-09_09h54.26.752,leap3,2022.2.5,59.99473014569988,
,,,,,,,,,,,,,,,,,,,,15,0,15,0,8,0,8,0,,,,,,profats,nw,h,lower,,,,,,,3,nw,LoDemNoTar,None,h,1,0.6354117672890425,None,,,,,,,,,,,,,,,,,,,376,2023-11-09_09h54.26.752,leap3,2022.2.5,59.99473014569988,
,,,,,,,,,,,,,,,,,,,,15,0,15,0,9,0,9,0,,,,,,melodic,w,g,lower,,,,,,,3,w,LoDemNoTar,None,g,1,0.8720868160016835,None,,,,,,,,,,,,,,,,,,,376,2023-11-09_09h54.26.752,leap3,2022.2.5,59.99473014569988,
,,,,,,,,,,,,,,,,,,,,15,0,15,0,10,0,10,0,,,,,,frose,nw,h,lower,,,,,,,3,nw,LoDemNoTar,None,h,1,0.6914604897610843,None,,,,,,,,,,,,,,,,,,,376,2023-11-09_09h54.26.752,leap3,2022.2.5,59.99473014569988,
,,,,,,,,,,,,,,,,,,,,15,0,15,0,11,0,11,0,,,,,,mennel,nw,h,lower,,,,,,,3,nw,LoDemNoTar,None,h,1,0.597184682264924,None,,,,,,,,,,,,,,,,,,,376,2023-11-09_09h54.26.752,leap3,2022.2.5,59.99473014569988,
,,,,,,,,,,,,,,,,,,,,15,0,15,0,12,0,12,0,,,,,,fetching,w,g,lower,,,,,,,3,w,LoDemNoTar,None,g,1,0.6678041531704366,None,,,,,,,,,,,,,,,,,,,376,2023-11-09_09h54.26.752,leap3,2022.2.5,59.99473014569988,
