demoRace_loop.thisRepN,demoRace_loop.thisTrialN,demoRace_loop.thisN,demoRace_loop.thisIndex,LDTunderstand.thisRepN,LDTunderstand.thisTrialN,LDTunderstand.thisN,LDTunderstand.thisIndex,pracBlocks.thisRepN,pracBlocks.thisTrialN,pracBlocks.thisN,pracBlocks.thisIndex,pracTrial.thisRepN,pracTrial.thisTrialN,pracTrial.thisN,pracTrial.thisIndex,PMunderstand.thisRepN,PMunderstand.thisTrialN,PMunderstand.thisN,PMunderstand.thisIndex,LDT_block.thisRepN,LDT_block.thisTrialN,LDT_block.thisN,LDT_block.thisIndex,LDT_trial.thisRepN,LDT_trial.thisTrialN,LDT_trial.thisN,LDT_trial.thisIndex,ageTextbox.text,genderTextbox.text,race,raceResp,LDTunderstand,stim,word_type,corr_key,stim_location,LDTpracKey.keys,LDTpracKey.corr,LDTpracKey.rt,PMunderstand,cueTextbox.text,intentionTextbox.text,block_type,role,block_desc,LDTResp.keys,LDTResp.corr,LDTResp.rt,PM_accuracy,pressedQ,pressedQ_blank,postQ1,Q2Textbox.text,Q3Textbox.text,Q4,Q5,Q6Key.keys,Q6Key.rt,postQ7_correct,postQ7,Q8Textbox.text,education,medTextbox.text,health,healthLimit,psych,participant,date,expName,psychopyVersion,frameRate,
0,0,0,0,,,,,,,,,,,,,,,,,,,,,,,,,"
21", female,American Indian or Alaska Native,n,,,,,,,,,,,,,,,,,,,,,,,,,,,,,,,,,,,,377,2023-11-13_16h11.46.432,leap3,2022.2.5,59.96984288418229,
1,0,1,0,,,,,,,,,,,,,,,,,,,,,,,,,,,Asian,n,,,,,,,,,,,,,,,,,,,,,,,,,,,,,,,,,,,,377,2023-11-13_16h11.46.432,leap3,2022.2.5,59.96984288418229,
2,0,2,0,,,,,,,,,,,,,,,,,,,,,,,,,,,Black or African American,n,,,,,,,,,,,,,,,,,,,,,,,,,,,,,,,,,,,,377,2023-11-13_16h11.46.432,leap3,2022.2.5,59.96984288418229,
3,0,3,0,,,,,,,,,,,,,,,,,,,,,,,,,,,Native Hawaiian or other Pacific Islander,n,,,,,,,,,,,,,,,,,,,,,,,,,,,,,,,,,,,,377,2023-11-13_16h11.46.432,leap3,2022.2.5,59.96984288418229,
4,0,4,0,,,,,,,,,,,,,,,,,,,,,,,,,,,White,y,,,,,,,,,,,,,,,,,,,,,,,,,,,,,,,,,,,,377,2023-11-13_16h11.46.432,leap3,2022.2.5,59.96984288418229,
,,,,0,0,0,0,,,,,,,,,,,,,,,,,,,,,,,,,y,,,,,,,,,,,,,,,,,,,,,,,,,,,,,,,,,,,377,2023-11-13_16h11.46.432,leap3,2022.2.5,59.96984288418229,
,,,,,,,,0,0,0,0,0,0,0,0,,,,,,,,,,,,,,,,,,turative,nw,h,lower,h,1,1.0765305384993553,,,,,,,,,,,,,,,,,,,,,,,,,,,,377,2023-11-13_16h11.46.432,leap3,2022.2.5,59.96984288418229,
,,,,,,,,0,0,0,0,1,0,1,0,,,,,,,,,,,,,,,,,,julled,nw,h,lower,h,1,0.7825533552095294,,,,,,,,,,,,,,,,,,,,,,,,,,,,377,2023-11-13_16h11.46.432,leap3,2022.2.5,59.96984288418229,
,,,,,,,,0,0,0,0,2,0,2,0,,,,,,,,,,,,,,,,,,summary,w,g,lower,g,1,0.5339364055544138,,,,,,,,,,,,,,,,,,,,,,,,,,,,377,2023-11-13_16h11.46.432,leap3,2022.2.5,59.96984288418229,
,,,,,,,,0,0,0,0,3,0,3,0,,,,,,,,,,,,,,,,,,lumbigo,nw,h,lower,h,1,0.5894989697262645,,,,,,,,,,,,,,,,,,,,,,,,,,,,377,2023-11-13_16h11.46.432,leap3,2022.2.5,59.96984288418229,
,,,,,,,,0,0,0,0,4,0,4,0,,,,,,,,,,,,,,,,,,grocus,nw,h,lower,h,1,0.6934860898181796,,,,,,,,,,,,,,,,,,,,,,,,,,,,377,2023-11-13_16h11.46.432,leap3,2022.2.5,59.96984288418229,
,,,,,,,,0,0,0,0,5,0,5,0,,,,,,,,,,,,,,,,,,umpire,w,g,lower,h,0,0.6391954962164164,,,,,,,,,,,,,,,,,,,,,,,,,,,,377,2023-11-13_16h11.46.432,leap3,2022.2.5,59.96984288418229,
,,,,,,,,0,0,0,0,6,0,6,0,,,,,,,,,,,,,,,,,,slumber,w,g,lower,g,1,0.564704586751759,,,,,,,,,,,,,,,,,,,,,,,,,,,,377,2023-11-13_16h11.46.432,leap3,2022.2.5,59.96984288418229,
,,,,,,,,0,0,0,0,7,0,7,0,,,,,,,,,,,,,,,,,,grutch,nw,h,lower,h,1,0.6678320541977882,,,,,,,,,,,,,,,,,,,,,,,,,,,,377,2023-11-13_16h11.46.432,leap3,2022.2.5,59.96984288418229,
,,,,,,,,0,0,0,0,8,0,8,0,,,,,,,,,,,,,,,,,,reputable,w,g,lower,g,1,0.446940696798265,,,,,,,,,,,,,,,,,,,,,,,,,,,,377,2023-11-13_16h11.46.432,leap3,2022.2.5,59.96984288418229,
,,,,,,,,0,0,0,0,9,0,9,0,,,,,,,,,,,,,,,,,,alolition,nw,h,lower,h,1,0.6675631115213037,,,,,,,,,,,,,,,,,,,,,,,,,,,,377,2023-11-13_16h11.46.432,leap3,2022.2.5,59.96984288418229,
,,,,,,,,0,0,0,0,10,0,10,0,,,,,,,,,,,,,,,,,,unscrew,w,g,lower,g,1,0.6310315169394016,,,,,,,,,,,,,,,,,,,,,,,,,,,,377,2023-11-13_16h11.46.432,leap3,2022.2.5,59.96984288418229,
,,,,,,,,0,0,0,0,11,0,11,0,,,,,,,,,,,,,,,,,,crinklo,nw,h,lower,h,1,0.5865520667284727,,,,,,,,,,,,,,,,,,,,,,,,,,,,377,2023-11-13_16h11.46.432,leap3,2022.2.5,59.96984288418229,
,,,,,,,,0,0,0,0,12,0,12,0,,,,,,,,,,,,,,,,,,picture,w,g,lower,g,1,0.4657211368903518,,,,,,,,,,,,,,,,,,,,,,,,,,,,377,2023-11-13_16h11.46.432,leap3,2022.2.5,59.96984288418229,
,,,,,,,,0,0,0,0,13,0,13,0,,,,,,,,,,,,,,,,,,hiring,w,g,lower,g,1,0.6457669455558062,,,,,,,,,,,,,,,,,,,,,,,,,,,,377,2023-11-13_16h11.46.432,leap3,2022.2.5,59.96984288418229,
,,,,,,,,0,0,0,0,,,,,,,,,,,,,,,,,,,,,,,,,,,,,,,,,,,,,,,,,,,,,,,,,,,,,,,,377,2023-11-13_16h11.46.432,leap3,2022.2.5,59.96984288418229,
,,,,,,,,1,0,1,0,0,0,0,0,,,,,,,,,,,,,,,,,,raestro,nw,h,upper,h,1,0.5461861472576857,,,,,,,,,,,,,,,,,,,,,,,,,,,,377,2023-11-13_16h11.46.432,leap3,2022.2.5,59.96984288418229,
,,,,,,,,1,0,1,0,1,0,1,0,,,,,,,,,,,,,,,,,,curlecs,nw,h,upper,h,1,0.6676352517679334,,,,,,,,,,,,,,,,,,,,,,,,,,,,377,2023-11-13_16h11.46.432,leap3,2022.2.5,59.96984288418229,
,,,,,,,,1,0,1,0,2,0,2,0,,,,,,,,,,,,,,,,,,grimace,w,g,upper,g,1,0.5098682586103678,,,,,,,,,,,,,,,,,,,,,,,,,,,,377,2023-11-13_16h11.46.432,leap3,2022.2.5,59.96984288418229,
,,,,,,,,1,0,1,0,3,0,3,0,,,,,,,,,,,,,,,,,,trotch,nw,h,upper,h,1,0.6638299021869898,,,,,,,,,,,,,,,,,,,,,,,,,,,,377,2023-11-13_16h11.46.432,leap3,2022.2.5,59.96984288418229,
,,,,,,,,1,0,1,0,4,0,4,0,,,,,,,,,,,,,,,,,,treeps,nw,h,upper,h,1,0.6597984721884131,,,,,,,,,,,,,,,,,,,,,,,,,,,,377,2023-11-13_16h11.46.432,leap3,2022.2.5,59.96984288418229,
,,,,,,,,1,0,1,0,5,0,5,0,,,,,,,,,,,,,,,,,,infinity,w,g,upper,g,1,0.43211833853274584,,,,,,,,,,,,,,,,,,,,,,,,,,,,377,2023-11-13_16h11.46.432,leap3,2022.2.5,59.96984288418229,
,,,,,,,,1,0,1,0,6,0,6,0,,,,,,,,,,,,,,,,,,overshoot,w,g,upper,g,1,0.5258004982024431,,,,,,,,,,,,,,,,,,,,,,,,,,,,377,2023-11-13_16h11.46.432,leap3,2022.2.5,59.96984288418229,
,,,,,,,,1,0,1,0,7,0,7,0,,,,,,,,,,,,,,,,,,latador,nw,h,upper,h,1,0.5270555661991239,,,,,,,,,,,,,,,,,,,,,,,,,,,,377,2023-11-13_16h11.46.432,leap3,2022.2.5,59.96984288418229,
,,,,,,,,1,0,1,0,8,0,8,0,,,,,,,,,,,,,,,,,,busted,w,g,upper,g,1,0.46399157028645277,,,,,,,,,,,,,,,,,,,,,,,,,,,,377,2023-11-13_16h11.46.432,leap3,2022.2.5,59.96984288418229,
,,,,,,,,1,0,1,0,9,0,9,0,,,,,,,,,,,,,,,,,,hasking,nw,h,upper,g,0,0.5159600768238306,,,,,,,,,,,,,,,,,,,,,,,,,,,,377,2023-11-13_16h11.46.432,leap3,2022.2.5,59.96984288418229,
,,,,,,,,1,0,1,0,10,0,10,0,,,,,,,,,,,,,,,,,,sponsor,w,g,upper,g,1,0.5087949009612203,,,,,,,,,,,,,,,,,,,,,,,,,,,,377,2023-11-13_16h11.46.432,leap3,2022.2.5,59.96984288418229,
,,,,,,,,1,0,1,0,11,0,11,0,,,,,,,,,,,,,,,,,,lurshing,nw,h,upper,h,1,0.5436346586793661,,,,,,,,,,,,,,,,,,,,,,,,,,,,377,2023-11-13_16h11.46.432,leap3,2022.2.5,59.96984288418229,
,,,,,,,,1,0,1,0,12,0,12,0,,,,,,,,,,,,,,,,,,revival,w,g,upper,g,1,0.4804979180917144,,,,,,,,,,,,,,,,,,,,,,,,,,,,377,2023-11-13_16h11.46.432,leap3,2022.2.5,59.96984288418229,
,,,,,,,,1,0,1,0,13,0,13,0,,,,,,,,,,,,,,,,,,tricycle,w,g,upper,g,1,0.4989007515832782,,,,,,,,,,,,,,,,,,,,,,,,,,,,377,2023-11-13_16h11.46.432,leap3,2022.2.5,59.96984288418229,
,,,,,,,,1,0,1,0,,,,,,,,,,,,,,,,,,,,,,,,,,,,,,,,,,,,,,,,,,,,,,,,,,,,,,,,377,2023-11-13_16h11.46.432,leap3,2022.2.5,59.96984288418229,
,,,,,,,,,,,,,,,,0,0,0,0,,,,,,,,,,,,,,,,,,,,,y,,,,,,,,,,,,,,,,,,,,,,,,,,,377,2023-11-13_16h11.46.432,leap3,2022.2.5,59.96984288418229,
,,,,,,,,,,,,,,,,,,,,0,0,0,0,0,0,0,0,,,,,,shockwave,w,g,upper,,,,,"animal
",q ,3,w,LoDemNoTar,h,0,0.6662488812580705,,,,,,,,,,,,,,,,,,,377,2023-11-13_16h11.46.432,leap3,2022.2.5,59.96984288418229,
,,,,,,,,,,,,,,,,,,,,0,0,0,0,1,0,1,0,,,,,,kilotin,nw,h,upper,,,,,,,3,nw,LoDemNoTar,h,1,0.6148849688470364,,,,,,,,,,,,,,,,,,,377,2023-11-13_16h11.46.432,leap3,2022.2.5,59.96984288418229,
,,,,,,,,,,,,,,,,,,,,0,0,0,0,2,0,2,0,,,,,,presently,w,g,upper,,,,,,,3,w,LoDemNoTar,g,1,0.4935390939936042,,,,,,,,,,,,,,,,,,,377,2023-11-13_16h11.46.432,leap3,2022.2.5,59.96984288418229,
,,,,,,,,,,,,,,,,,,,,0,0,0,0,3,0,3,0,,,,,,slooch,nw,h,upper,,,,,,,3,nw,LoDemNoTar,h,1,0.6648398730903864,,,,,,,,,,,,,,,,,,,377,2023-11-13_16h11.46.432,leap3,2022.2.5,59.96984288418229,
,,,,,,,,,,,,,,,,,,,,0,0,0,0,4,0,4,0,,,,,,anterior,w,g,upper,,,,,,,3,w,LoDemNoTar,g,1,0.9804731663316488,,,,,,,,,,,,,,,,,,,377,2023-11-13_16h11.46.432,leap3,2022.2.5,59.96984288418229,
,,,,,,,,,,,,,,,,,,,,0,0,0,0,5,0,5,0,,,,,,esdings,nw,h,upper,,,,,,,3,nw,LoDemNoTar,h,1,0.5484783509746194,,,,,,,,,,,,,,,,,,,377,2023-11-13_16h11.46.432,leap3,2022.2.5,59.96984288418229,
,,,,,,,,,,,,,,,,,,,,0,0,0,0,6,0,6,0,,,,,,ounside,nw,h,upper,,,,,,,3,nw,LoDemNoTar,h,1,0.6697623478248715,,,,,,,,,,,,,,,,,,,377,2023-11-13_16h11.46.432,leap3,2022.2.5,59.96984288418229,
,,,,,,,,,,,,,,,,,,,,0,0,0,0,7,0,7,0,,,,,,duplex,w,g,upper,,,,,,,3,w,LoDemNoTar,g,1,0.5536842569708824,,,,,,,,,,,,,,,,,,,377,2023-11-13_16h11.46.432,leap3,2022.2.5,59.96984288418229,
,,,,,,,,,,,,,,,,,,,,0,0,0,0,8,0,8,0,,,,,,buzzer,w,g,upper,,,,,,,3,w,LoDemNoTar,g,1,0.4722699485719204,,,,,,,,,,,,,,,,,,,377,2023-11-13_16h11.46.432,leap3,2022.2.5,59.96984288418229,
,,,,,,,,,,,,,,,,,,,,0,0,0,0,9,0,9,0,,,,,,migmarole,nw,h,upper,,,,,,,3,nw,LoDemNoTar,h,1,0.5811931258067489,,,,,,,,,,,,,,,,,,,377,2023-11-13_16h11.46.432,leap3,2022.2.5,59.96984288418229,
,,,,,,,,,,,,,,,,,,,,0,0,0,0,10,0,10,0,,,,,,urgent,w,g,upper,,,,,,,3,w,LoDemNoTar,g,1,0.48511100094765425,,,,,,,,,,,,,,,,,,,377,2023-11-13_16h11.46.432,leap3,2022.2.5,59.96984288418229,
,,,,,,,,,,,,,,,,,,,,0,0,0,0,11,0,11,0,,,,,,appain,nw,h,upper,,,,,,,3,nw,LoDemNoTar,g,0,0.5048763602972031,,,,,,,,,,,,,,,,,,,377,2023-11-13_16h11.46.432,leap3,2022.2.5,59.96984288418229,
,,,,,,,,,,,,,,,,,,,,0,0,0,0,12,0,12,0,,,,,,tragedy,w,g,upper,,,,,,,3,w,LoDemNoTar,g,1,0.5072247078642249,,,,,,,,,,,,,,,,,,,377,2023-11-13_16h11.46.432,leap3,2022.2.5,59.96984288418229,
,,,,,,,,,,,,,,,,,,,,0,0,0,0,13,0,13,0,,,,,,regards,w,g,upper,,,,,,,3,w,LoDemNoTar,g,1,0.49500273633748293,,,,,,,,,,,,,,,,,,,377,2023-11-13_16h11.46.432,leap3,2022.2.5,59.96984288418229,
,,,,,,,,,,,,,,,,,,,,0,0,0,0,14,0,14,0,,,,,,smallash,nw,h,upper,,,,,,,3,nw,LoDemNoTar,h,1,0.5692117232829332,,,,,,,,,,,,,,,,,,,377,2023-11-13_16h11.46.432,leap3,2022.2.5,59.96984288418229,
,,,,,,,,,,,,,,,,,,,,0,0,0,0,15,0,15,0,,,,,,trewl,nw,h,upper,,,,,,,3,nw,LoDemNoTar,h,1,0.48917231522500515,,,,,,,,,,,,,,,,,,,377,2023-11-13_16h11.46.432,leap3,2022.2.5,59.96984288418229,
,,,,,,,,,,,,,,,,,,,,0,0,0,0,16,0,16,0,,,,,,ausht,nw,h,upper,,,,,,,3,nw,LoDemNoTar,h,1,0.5965074896812439,,,,,,,,,,,,,,,,,,,377,2023-11-13_16h11.46.432,leap3,2022.2.5,59.96984288418229,
,,,,,,,,,,,,,,,,,,,,0,0,0,0,17,0,17,0,,,,,,define,w,g,upper,,,,,,,3,w,LoDemNoTar,g,1,0.523912463337183,,,,,,,,,,,,,,,,,,,377,2023-11-13_16h11.46.432,leap3,2022.2.5,59.96984288418229,
,,,,,,,,,,,,,,,,,,,,0,0,0,0,18,0,18,0,,,,,,sweeping,w,g,upper,,,,,,,3,w,LoDemNoTar,g,1,0.4298575250431895,,,,,,,,,,,,,,,,,,,377,2023-11-13_16h11.46.432,leap3,2022.2.5,59.96984288418229,
,,,,,,,,,,,,,,,,,,,,0,0,0,0,19,0,19,0,,,,,,shivering,w,g,upper,,,,,,,3,w,LoDemNoTar,g,1,0.4038512371480465,,,,,,,,,,,,,,,,,,,377,2023-11-13_16h11.46.432,leap3,2022.2.5,59.96984288418229,
,,,,,,,,,,,,,,,,,,,,0,0,0,0,20,0,20,0,,,,,,comply,w,g,upper,,,,,,,3,w,LoDemNoTar,g,1,0.3864586753770709,,,,,,,,,,,,,,,,,,,377,2023-11-13_16h11.46.432,leap3,2022.2.5,59.96984288418229,
,,,,,,,,,,,,,,,,,,,,0,0,0,0,21,0,21,0,,,,,,riosk,nw,h,upper,,,,,,,3,nw,LoDemNoTar,h,1,0.5697318008169532,,,,,,,,,,,,,,,,,,,377,2023-11-13_16h11.46.432,leap3,2022.2.5,59.96984288418229,
,,,,,,,,,,,,,,,,,,,,0,0,0,0,22,0,22,0,,,,,,brudent,nw,h,upper,,,,,,,3,nw,LoDemNoTar,g,0,0.44845444429665804,,,,,,,,,,,,,,,,,,,377,2023-11-13_16h11.46.432,leap3,2022.2.5,59.96984288418229,
,,,,,,,,,,,,,,,,,,,,0,0,0,0,23,0,23,0,,,,,,forbid,w,g,upper,,,,,,,3,w,LoDemNoTar,h,0,0.4226534105837345,,,,,,,,,,,,,,,,,,,377,2023-11-13_16h11.46.432,leap3,2022.2.5,59.96984288418229,
,,,,,,,,,,,,,,,,,,,,0,0,0,0,24,0,24,0,,,,,,borrent,nw,h,upper,,,,,,,3,nw,LoDemNoTar,h,1,0.515633481554687,,,,,,,,,,,,,,,,,,,377,2023-11-13_16h11.46.432,leap3,2022.2.5,59.96984288418229,
,,,,,,,,,,,,,,,,,,,,0,0,0,0,25,0,25,0,,,,,,adok,nw,h,upper,,,,,,,3,nw,LoDemNoTar,h,1,0.5262828450649977,,,,,,,,,,,,,,,,,,,377,2023-11-13_16h11.46.432,leap3,2022.2.5,59.96984288418229,
,,,,,,,,,,,,,,,,,,,,0,0,0,0,26,0,26,0,,,,,,duries,nw,h,upper,,,,,,,3,nw,LoDemNoTar,h,1,0.7202916610985994,,,,,,,,,,,,,,,,,,,377,2023-11-13_16h11.46.432,leap3,2022.2.5,59.96984288418229,
,,,,,,,,,,,,,,,,,,,,0,0,0,0,27,0,27,0,,,,,,splinging,nw,h,upper,,,,,,,3,nw,LoDemNoTar,h,1,0.6742945378646255,,,,,,,,,,,,,,,,,,,377,2023-11-13_16h11.46.432,leap3,2022.2.5,59.96984288418229,
,,,,,,,,,,,,,,,,,,,,0,0,0,0,28,0,28,0,,,,,,ethical,w,g,upper,,,,,,,3,w,LoDemNoTar,g,1,0.4622949045151472,,,,,,,,,,,,,,,,,,,377,2023-11-13_16h11.46.432,leap3,2022.2.5,59.96984288418229,
,,,,,,,,,,,,,,,,,,,,0,0,0,0,29,0,29,0,,,,,,embrace,w,g,upper,,,,,,,3,w,LoDemNoTar,g,1,0.39491997100412846,,,,,,,,,,,,,,,,,,,377,2023-11-13_16h11.46.432,leap3,2022.2.5,59.96984288418229,
,,,,,,,,,,,,,,,,,,,,0,0,0,0,,,,,,,,,,,,,,,,,,,,,,,,,,NA,,,,,,,,,,,,,,,,,,377,2023-11-13_16h11.46.432,leap3,2022.2.5,59.96984288418229,
,,,,,,,,,,,,,,,,,,,,1,0,1,0,0,0,0,0,,,,,,shillac,nw,h,upper,,,,,,,4,nw,LoDemTar,h,1,0.6170790735632181,,,,,,,,,,,,,,,,,,,377,2023-11-13_16h11.46.432,leap3,2022.2.5,59.96984288418229,
,,,,,,,,,,,,,,,,,,,,1,0,1,0,1,0,1,0,,,,,,gablus,nw,h,upper,,,,,,,4,nw,LoDemTar,h,1,0.5425440948456526,,,,,,,,,,,,,,,,,,,377,2023-11-13_16h11.46.432,leap3,2022.2.5,59.96984288418229,
,,,,,,,,,,,,,,,,,,,,1,0,1,0,2,0,2,0,,,,,,arrigns,nw,h,upper,,,,,,,4,nw,LoDemTar,h,1,0.8080525454133749,,,,,,,,,,,,,,,,,,,377,2023-11-13_16h11.46.432,leap3,2022.2.5,59.96984288418229,
,,,,,,,,,,,,,,,,,,,,1,0,1,0,3,0,3,0,,,,,,rational,w,g,upper,,,,,,,4,w,LoDemTar,g,1,0.4554859036579728,,,,,,,,,,,,,,,,,,,377,2023-11-13_16h11.46.432,leap3,2022.2.5,59.96984288418229,
,,,,,,,,,,,,,,,,,,,,1,0,1,0,4,0,4,0,,,,,,committed,w,g,upper,,,,,,,4,w,LoDemTar,g,1,0.45232801139354706,,,,,,,,,,,,,,,,,,,377,2023-11-13_16h11.46.432,leap3,2022.2.5,59.96984288418229,
,,,,,,,,,,,,,,,,,,,,1,0,1,0,5,0,5,0,,,,,,rejoiced,w,g,upper,,,,,,,4,w,LoDemTar,g,1,0.5289840484037995,,,,,,,,,,,,,,,,,,,377,2023-11-13_16h11.46.432,leap3,2022.2.5,59.96984288418229,
,,,,,,,,,,,,,,,,,,,,1,0,1,0,6,0,6,0,,,,,,destroy,w,g,upper,,,,,,,4,w,LoDemTar,g,1,0.39494924899190664,,,,,,,,,,,,,,,,,,,377,2023-11-13_16h11.46.432,leap3,2022.2.5,59.96984288418229,
,,,,,,,,,,,,,,,,,,,,1,0,1,0,7,0,7,0,,,,,,undue,w,g,upper,,,,,,,4,w,LoDemTar,g,1,0.5301992734894156,,,,,,,,,,,,,,,,,,,377,2023-11-13_16h11.46.432,leap3,2022.2.5,59.96984288418229,
,,,,,,,,,,,,,,,,,,,,1,0,1,0,8,0,8,0,,,,,,nelvet,nw,h,upper,,,,,,,4,nw,LoDemTar,h,1,0.5232924753800035,,,,,,,,,,,,,,,,,,,377,2023-11-13_16h11.46.432,leap3,2022.2.5,59.96984288418229,
,,,,,,,,,,,,,,,,,,,,1,0,1,0,9,0,9,0,,,,,,category,w,g,upper,,,,,,,4,w,LoDemTar,g,1,0.44539917912334204,,,,,,,,,,,,,,,,,,,377,2023-11-13_16h11.46.432,leap3,2022.2.5,59.96984288418229,
,,,,,,,,,,,,,,,,,,,,1,0,1,0,10,0,10,0,,,,,,protest,w,g,upper,,,,,,,4,w,LoDemTar,g,1,0.3944913521409035,,,,,,,,,,,,,,,,,,,377,2023-11-13_16h11.46.432,leap3,2022.2.5,59.96984288418229,
,,,,,,,,,,,,,,,,,,,,1,0,1,0,11,0,11,0,,,,,,pender,nw,h,upper,,,,,,,4,nw,LoDemTar,h,1,0.5298569817095995,,,,,,,,,,,,,,,,,,,377,2023-11-13_16h11.46.432,leap3,2022.2.5,59.96984288418229,
,,,,,,,,,,,,,,,,,,,,1,0,1,0,12,0,12,0,,,,,,admire,w,g,upper,,,,,,,4,w,LoDemTar,g,1,0.37975984811782837,,,,,,,,,,,,,,,,,,,377,2023-11-13_16h11.46.432,leap3,2022.2.5,59.96984288418229,
,,,,,,,,,,,,,,,,,,,,1,0,1,0,13,0,13,0,,,,,,afternoon,w,g,upper,,,,,,,4,w,LoDemTar,g,1,0.43573926016688347,,,,,,,,,,,,,,,,,,,377,2023-11-13_16h11.46.432,leap3,2022.2.5,59.96984288418229,
,,,,,,,,,,,,,,,,,,,,1,0,1,0,14,0,14,0,,,,,,culer,nw,h,upper,,,,,,,4,nw,LoDemTar,h,1,0.48108560871332884,,,,,,,,,,,,,,,,,,,377,2023-11-13_16h11.46.432,leap3,2022.2.5,59.96984288418229,
,,,,,,,,,,,,,,,,,,,,1,0,1,0,15,0,15,0,,,,,,lindo,nw,h,upper,,,,,,,4,nw,LoDemTar,h,1,0.5810554837808013,,,,,,,,,,,,,,,,,,,377,2023-11-13_16h11.46.432,leap3,2022.2.5,59.96984288418229,
,,,,,,,,,,,,,,,,,,,,1,0,1,0,16,0,16,0,,,,,,image,w,g,upper,,,,,,,4,w,LoDemTar,g,1,0.3650769414380193,,,,,,,,,,,,,,,,,,,377,2023-11-13_16h11.46.432,leap3,2022.2.5,59.96984288418229,
,,,,,,,,,,,,,,,,,,,,1,0,1,0,17,0,17,0,,,,,,loached,nw,h,upper,,,,,,,4,nw,LoDemTar,g,0,0.4376828344538808,,,,,,,,,,,,,,,,,,,377,2023-11-13_16h11.46.432,leap3,2022.2.5,59.96984288418229,
,,,,,,,,,,,,,,,,,,,,1,0,1,0,18,0,18,0,,,,,,chemical,w,g,upper,,,,,,,4,w,LoDemTar,g,1,0.4020929951220751,,,,,,,,,,,,,,,,,,,377,2023-11-13_16h11.46.432,leap3,2022.2.5,59.96984288418229,
,,,,,,,,,,,,,,,,,,,,1,0,1,0,19,0,19,0,,,,,,fabstand,nw,h,upper,,,,,,,4,nw,LoDemTar,h,1,0.5136859826743603,,,,,,,,,,,,,,,,,,,377,2023-11-13_16h11.46.432,leap3,2022.2.5,59.96984288418229,
,,,,,,,,,,,,,,,,,,,,1,0,1,0,20,0,20,0,,,,,,peems,nw,h,upper,,,,,,,4,nw,LoDemTar,h,1,0.6033620685338974,,,,,,,,,,,,,,,,,,,377,2023-11-13_16h11.46.432,leap3,2022.2.5,59.96984288418229,
,,,,,,,,,,,,,,,,,,,,1,0,1,0,21,0,21,0,,,,,,afford,w,g,upper,,,,,,,4,w,LoDemTar,g,1,0.5219317618757486,,,,,,,,,,,,,,,,,,,377,2023-11-13_16h11.46.432,leap3,2022.2.5,59.96984288418229,
,,,,,,,,,,,,,,,,,,,,1,0,1,0,22,0,22,0,,,,,,elephant,target,q,upper,,,,,,,4,target,LoDemTar,g,0,0.42791817616671324,,1,1,,,,,,,,,,,,,,,,377,2023-11-13_16h11.46.432,leap3,2022.2.5,59.96984288418229,
,,,,,,,,,,,,,,,,,,,,1,0,1,0,23,0,23,0,,,,,,peags,nw,h,upper,,,,,,,4,aftertar1,LoDemTar,h,1,0.5618778169155121,,,,,,,,,,,,,,,,,,,377,2023-11-13_16h11.46.432,leap3,2022.2.5,59.96984288418229,
,,,,,,,,,,,,,,,,,,,,1,0,1,0,24,0,24,0,,,,,,omners,nw,h,upper,,,,,,,4,aftertar2,LoDemTar,h,1,0.602593875490129,,,,,,,,,,,,,,,,,,,377,2023-11-13_16h11.46.432,leap3,2022.2.5,59.96984288418229,
,,,,,,,,,,,,,,,,,,,,1,0,1,0,25,0,25,0,,,,,,elpousal,nw,h,upper,,,,,,,4,aftertar3,LoDemTar,h,1,0.6171862287446856,,,,,,,,,,,,,,,,,,,377,2023-11-13_16h11.46.432,leap3,2022.2.5,59.96984288418229,
,,,,,,,,,,,,,,,,,,,,1,0,1,0,26,0,26,0,,,,,,otiates,nw,h,upper,,,,,,,4,nw,LoDemTar,h,1,0.5832390254363418,,,,,,,,,,,,,,,,,,,377,2023-11-13_16h11.46.432,leap3,2022.2.5,59.96984288418229,
,,,,,,,,,,,,,,,,,,,,1,0,1,0,27,0,27,0,,,,,,itself,w,g,upper,,,,,,,4,nw,LoDemTar,g,1,0.485976992174983,,,,,,,,,,,,,,,,,,,377,2023-11-13_16h11.46.432,leap3,2022.2.5,59.96984288418229,
,,,,,,,,,,,,,,,,,,,,1,0,1,0,28,0,28,0,,,,,,standard,w,g,upper,,,,,,,4,w,LoDemTar,g,1,0.47241392731666565,,,,,,,,,,,,,,,,,,,377,2023-11-13_16h11.46.432,leap3,2022.2.5,59.96984288418229,
,,,,,,,,,,,,,,,,,,,,1,0,1,0,29,0,29,0,,,,,,collision,w,g,upper,,,,,,,4,w,LoDemTar,g,1,0.6296113412827253,,,,,,,,,,,,,,,,,,,377,2023-11-13_16h11.46.432,leap3,2022.2.5,59.96984288418229,
,,,,,,,,,,,,,,,,,,,,1,0,1,0,,,,,,,,,,,,,,,,,,,,,,,,,,1,,,,,,,,,,,,,,,,,,377,2023-11-13_16h11.46.432,leap3,2022.2.5,59.96984288418229,
,,,,,,,,,,,,,,,,,,,,2,0,2,0,0,0,0,0,,,,,,clooped,nw,h,lower,,,,,,,2,nw,HiDemNoTar,h,1,0.715239092707634,,,,,,,,,,,,,,,,,,,377,2023-11-13_16h11.46.432,leap3,2022.2.5,59.96984288418229,
,,,,,,,,,,,,,,,,,,,,2,0,2,0,1,0,1,0,,,,,,edasion,nw,h,lower,,,,,,,2,nw,HiDemNoTar,h,1,0.573931660503149,,,,,,,,,,,,,,,,,,,377,2023-11-13_16h11.46.432,leap3,2022.2.5,59.96984288418229,
,,,,,,,,,,,,,,,,,,,,2,0,2,0,2,0,2,0,,,,,,audience,w,g,lower,,,,,,,2,w,HiDemNoTar,g,1,0.485924169421196,,,,,,,,,,,,,,,,,,,377,2023-11-13_16h11.46.432,leap3,2022.2.5,59.96984288418229,
,,,,,,,,,,,,,,,,,,,,2,0,2,0,3,0,3,0,,,,,,cassette,w,g,lower,,,,,,,2,w,HiDemNoTar,h,0,0.9123526774346828,,,,,,,,,,,,,,,,,,,377,2023-11-13_16h11.46.432,leap3,2022.2.5,59.96984288418229,
,,,,,,,,,,,,,,,,,,,,2,0,2,0,4,0,4,0,,,,,,recollect,w,g,lower,,,,,,,2,w,HiDemNoTar,g,1,0.3877994669601321,,,,,,,,,,,,,,,,,,,377,2023-11-13_16h11.46.432,leap3,2022.2.5,59.96984288418229,
,,,,,,,,,,,,,,,,,,,,2,0,2,0,5,0,5,0,,,,,,elormity,nw,h,lower,,,,,,,2,nw,HiDemNoTar,h,1,0.5301521858200431,,,,,,,,,,,,,,,,,,,377,2023-11-13_16h11.46.432,leap3,2022.2.5,59.96984288418229,
,,,,,,,,,,,,,,,,,,,,2,0,2,0,6,0,6,0,,,,,,pammed,nw,h,lower,,,,,,,2,nw,HiDemNoTar,h,1,0.7561169397085905,,,,,,,,,,,,,,,,,,,377,2023-11-13_16h11.46.432,leap3,2022.2.5,59.96984288418229,
,,,,,,,,,,,,,,,,,,,,2,0,2,0,7,0,7,0,,,,,,forecast,w,g,lower,,,,,,,2,w,HiDemNoTar,g,1,0.4447293858975172,,,,,,,,,,,,,,,,,,,377,2023-11-13_16h11.46.432,leap3,2022.2.5,59.96984288418229,
,,,,,,,,,,,,,,,,,,,,2,0,2,0,8,0,8,0,,,,,,olgies,nw,h,lower,,,,,,,2,nw,HiDemNoTar,h,1,0.5221023038029671,,,,,,,,,,,,,,,,,,,377,2023-11-13_16h11.46.432,leap3,2022.2.5,59.96984288418229,
,,,,,,,,,,,,,,,,,,,,2,0,2,0,9,0,9,0,,,,,,persona,w,g,lower,,,,,,,2,w,HiDemNoTar,g,1,0.5240350123494864,,,,,,,,,,,,,,,,,,,377,2023-11-13_16h11.46.432,leap3,2022.2.5,59.96984288418229,
,,,,,,,,,,,,,,,,,,,,2,0,2,0,10,0,10,0,,,,,,cemoir,nw,h,lower,,,,,,,2,nw,HiDemNoTar,h,1,0.622067048214376,,,,,,,,,,,,,,,,,,,377,2023-11-13_16h11.46.432,leap3,2022.2.5,59.96984288418229,
,,,,,,,,,,,,,,,,,,,,2,0,2,0,11,0,11,0,,,,,,tiery,nw,h,lower,,,,,,,2,nw,HiDemNoTar,h,1,0.683990073390305,,,,,,,,,,,,,,,,,,,377,2023-11-13_16h11.46.432,leap3,2022.2.5,59.96984288418229,
,,,,,,,,,,,,,,,,,,,,2,0,2,0,12,0,12,0,,,,,,sequence,w,g,lower,,,,,,,2,w,HiDemNoTar,g,1,0.40482951421290636,,,,,,,,,,,,,,,,,,,377,2023-11-13_16h11.46.432,leap3,2022.2.5,59.96984288418229,
,,,,,,,,,,,,,,,,,,,,2,0,2,0,13,0,13,0,,,,,,removable,w,g,lower,,,,,,,2,w,HiDemNoTar,g,1,0.525108671747148,,,,,,,,,,,,,,,,,,,377,2023-11-13_16h11.46.432,leap3,2022.2.5,59.96984288418229,
,,,,,,,,,,,,,,,,,,,,2,0,2,0,14,0,14,0,,,,,,alticles,nw,h,lower,,,,,,,2,nw,HiDemNoTar,h,1,0.5510576087981462,,,,,,,,,,,,,,,,,,,377,2023-11-13_16h11.46.432,leap3,2022.2.5,59.96984288418229,
,,,,,,,,,,,,,,,,,,,,2,0,2,0,15,0,15,0,,,,,,unlined,w,g,lower,,,,,,,2,w,HiDemNoTar,g,1,0.41558180656284094,,,,,,,,,,,,,,,,,,,377,2023-11-13_16h11.46.432,leap3,2022.2.5,59.96984288418229,
,,,,,,,,,,,,,,,,,,,,2,0,2,0,16,0,16,0,,,,,,column,w,g,lower,,,,,,,2,w,HiDemNoTar,g,1,0.5023004217073321,,,,,,,,,,,,,,,,,,,377,2023-11-13_16h11.46.432,leap3,2022.2.5,59.96984288418229,
,,,,,,,,,,,,,,,,,,,,2,0,2,0,17,0,17,0,,,,,,despise,w,g,lower,,,,,,,2,w,HiDemNoTar,g,1,0.4169165613129735,,,,,,,,,,,,,,,,,,,377,2023-11-13_16h11.46.432,leap3,2022.2.5,59.96984288418229,
,,,,,,,,,,,,,,,,,,,,2,0,2,0,18,0,18,0,,,,,,pocket,w,g,lower,,,,,,,2,w,HiDemNoTar,g,1,0.4315397022292018,,,,,,,,,,,,,,,,,,,377,2023-11-13_16h11.46.432,leap3,2022.2.5,59.96984288418229,
,,,,,,,,,,,,,,,,,,,,2,0,2,0,19,0,19,0,,,,,,draze,nw,h,lower,,,,,,,2,nw,HiDemNoTar,g,0,0.42826982494443655,,,,,,,,,,,,,,,,,,,377,2023-11-13_16h11.46.432,leap3,2022.2.5,59.96984288418229,
,,,,,,,,,,,,,,,,,,,,2,0,2,0,20,0,20,0,,,,,,veclors,nw,h,lower,,,,,,,2,nw,HiDemNoTar,h,1,0.6502390680834651,,,,,,,,,,,,,,,,,,,377,2023-11-13_16h11.46.432,leap3,2022.2.5,59.96984288418229,
,,,,,,,,,,,,,,,,,,,,2,0,2,0,21,0,21,0,,,,,,remain,w,g,lower,,,,,,,2,w,HiDemNoTar,g,1,0.4636338846758008,,,,,,,,,,,,,,,,,,,377,2023-11-13_16h11.46.432,leap3,2022.2.5,59.96984288418229,
,,,,,,,,,,,,,,,,,,,,2,0,2,0,22,0,22,0,,,,,,curricula,w,g,lower,,,,,,,2,w,HiDemNoTar,h,0,0.7089145518839359,,,,,,,,,,,,,,,,,,,377,2023-11-13_16h11.46.432,leap3,2022.2.5,59.96984288418229,
,,,,,,,,,,,,,,,,,,,,2,0,2,0,23,0,23,0,,,,,,sullen,w,g,lower,,,,,,,2,w,HiDemNoTar,g,1,0.5905309757217765,,,,,,,,,,,,,,,,,,,377,2023-11-13_16h11.46.432,leap3,2022.2.5,59.96984288418229,
,,,,,,,,,,,,,,,,,,,,2,0,2,0,24,0,24,0,,,,,,natch,nw,h,lower,,,,,,,2,nw,HiDemNoTar,h,1,0.6066358704119921,,,,,,,,,,,,,,,,,,,377,2023-11-13_16h11.46.432,leap3,2022.2.5,59.96984288418229,
,,,,,,,,,,,,,,,,,,,,2,0,2,0,25,0,25,0,,,,,,geborn,nw,h,lower,,,,,,,2,nw,HiDemNoTar,h,1,0.588309402577579,,,,,,,,,,,,,,,,,,,377,2023-11-13_16h11.46.432,leap3,2022.2.5,59.96984288418229,
,,,,,,,,,,,,,,,,,,,,2,0,2,0,26,0,26,0,,,,,,godomy,nw,h,lower,,,,,,,2,nw,HiDemNoTar,h,1,0.6677336534485221,,,,,,,,,,,,,,,,,,,377,2023-11-13_16h11.46.432,leap3,2022.2.5,59.96984288418229,
,,,,,,,,,,,,,,,,,,,,2,0,2,0,27,0,27,0,,,,,,preserve,w,g,lower,,,,,,,2,w,HiDemNoTar,g,1,0.447646408341825,,,,,,,,,,,,,,,,,,,377,2023-11-13_16h11.46.432,leap3,2022.2.5,59.96984288418229,
,,,,,,,,,,,,,,,,,,,,2,0,2,0,28,0,28,0,,,,,,sarlock,nw,h,lower,,,,,,,2,nw,HiDemNoTar,h,1,0.7488482305780053,,,,,,,,,,,,,,,,,,,377,2023-11-13_16h11.46.432,leap3,2022.2.5,59.96984288418229,
,,,,,,,,,,,,,,,,,,,,2,0,2,0,29,0,29,0,,,,,,walsams,nw,h,lower,,,,,,,2,nw,HiDemNoTar,h,1,0.5582484416663647,,,,,,,,,,,,,,,,,,,377,2023-11-13_16h11.46.432,leap3,2022.2.5,59.96984288418229,
,,,,,,,,,,,,,,,,,,,,2,0,2,0,,,,,,,,,,,,,,,,,,,,,,,,,,NA,,,,,,,,,,,,,,,,,,377,2023-11-13_16h11.46.432,leap3,2022.2.5,59.96984288418229,
,,,,,,,,,,,,,,,,,,,,3,0,3,0,0,0,0,0,,,,,,blassed,nw,h,lower,,,,,,,1,nw,HiDemTar,h,1,0.7016751216724515,,,,,,,,,,,,,,,,,,,377,2023-11-13_16h11.46.432,leap3,2022.2.5,59.96984288418229,
,,,,,,,,,,,,,,,,,,,,3,0,3,0,1,0,1,0,,,,,,advantage,w,g,lower,,,,,,,1,w,HiDemTar,g,1,0.4724075896665454,,,,,,,,,,,,,,,,,,,377,2023-11-13_16h11.46.432,leap3,2022.2.5,59.96984288418229,
,,,,,,,,,,,,,,,,,,,,3,0,3,0,2,0,2,0,,,,,,cogantly,nw,h,lower,,,,,,,1,nw,HiDemTar,h,1,0.580328643321991,,,,,,,,,,,,,,,,,,,377,2023-11-13_16h11.46.432,leap3,2022.2.5,59.96984288418229,
,,,,,,,,,,,,,,,,,,,,3,0,3,0,3,0,3,0,,,,,,gestalion,nw,h,lower,,,,,,,1,nw,HiDemTar,h,1,0.5482809450477362,,,,,,,,,,,,,,,,,,,377,2023-11-13_16h11.46.432,leap3,2022.2.5,59.96984288418229,
,,,,,,,,,,,,,,,,,,,,3,0,3,0,4,0,4,0,,,,,,eightiech,nw,h,lower,,,,,,,1,nw,HiDemTar,h,1,0.5015741856768727,,,,,,,,,,,,,,,,,,,377,2023-11-13_16h11.46.432,leap3,2022.2.5,59.96984288418229,
,,,,,,,,,,,,,,,,,,,,3,0,3,0,5,0,5,0,,,,,,laser,w,g,lower,,,,,,,1,w,HiDemTar,g,1,0.5362811302766204,,,,,,,,,,,,,,,,,,,377,2023-11-13_16h11.46.432,leap3,2022.2.5,59.96984288418229,
,,,,,,,,,,,,,,,,,,,,3,0,3,0,6,0,6,0,,,,,,deadly,w,g,lower,,,,,,,1,w,HiDemTar,g,1,0.5375443482771516,,,,,,,,,,,,,,,,,,,377,2023-11-13_16h11.46.432,leap3,2022.2.5,59.96984288418229,
,,,,,,,,,,,,,,,,,,,,3,0,3,0,7,0,7,0,,,,,,hutting,nw,h,lower,,,,,,,1,nw,HiDemTar,g,0,0.4668581848964095,,,,,,,,,,,,,,,,,,,377,2023-11-13_16h11.46.432,leap3,2022.2.5,59.96984288418229,
,,,,,,,,,,,,,,,,,,,,3,0,3,0,8,0,8,0,,,,,,sonkers,nw,h,lower,,,,,,,1,nw,HiDemTar,h,1,0.4875233406201005,,,,,,,,,,,,,,,,,,,377,2023-11-13_16h11.46.432,leap3,2022.2.5,59.96984288418229,
,,,,,,,,,,,,,,,,,,,,3,0,3,0,9,0,9,0,,,,,,minister,w,g,lower,,,,,,,1,w,HiDemTar,g,1,0.594885983504355,,,,,,,,,,,,,,,,,,,377,2023-11-13_16h11.46.432,leap3,2022.2.5,59.96984288418229,
,,,,,,,,,,,,,,,,,,,,3,0,3,0,10,0,10,0,,,,,,rabbit,target,q,lower,,,,,,,1,target,HiDemTar,q,1,0.5199085008352995,,1,,,,,,,,,,,,,,,,,377,2023-11-13_16h11.46.432,leap3,2022.2.5,59.96984288418229,
,,,,,,,,,,,,,,,,,,,,3,0,3,0,11,0,11,0,,,,,,manage,w,g,lower,,,,,,,1,aftertar1,HiDemTar,g,1,0.56188596598804,,,,,,,,,,,,,,,,,,,377,2023-11-13_16h11.46.432,leap3,2022.2.5,59.96984288418229,
,,,,,,,,,,,,,,,,,,,,3,0,3,0,12,0,12,0,,,,,,earterner,nw,h,lower,,,,,,,1,aftertar2,HiDemTar,h,1,0.6432610359042883,,,,,,,,,,,,,,,,,,,377,2023-11-13_16h11.46.432,leap3,2022.2.5,59.96984288418229,
,,,,,,,,,,,,,,,,,,,,3,0,3,0,13,0,13,0,,,,,,shamrock,w,g,lower,,,,,,,1,aftertar3,HiDemTar,g,1,0.7372057996690273,,,,,,,,,,,,,,,,,,,377,2023-11-13_16h11.46.432,leap3,2022.2.5,59.96984288418229,
,,,,,,,,,,,,,,,,,,,,3,0,3,0,14,0,14,0,,,,,,become,w,g,lower,,,,,,,1,w,HiDemTar,g,1,0.47439100686460733,,,,,,,,,,,,,,,,,,,377,2023-11-13_16h11.46.432,leap3,2022.2.5,59.96984288418229,
,,,,,,,,,,,,,,,,,,,,3,0,3,0,15,0,15,0,,,,,,drauns,nw,h,lower,,,,,,,1,w,HiDemTar,h,1,0.5505909575149417,,,,,,,,,,,,,,,,,,,377,2023-11-13_16h11.46.432,leap3,2022.2.5,59.96984288418229,
,,,,,,,,,,,,,,,,,,,,3,0,3,0,16,0,16,0,,,,,,envelop,w,g,lower,,,,,,,1,nw,HiDemTar,g,1,0.46298280730843544,,,,,,,,,,,,,,,,,,,377,2023-11-13_16h11.46.432,leap3,2022.2.5,59.96984288418229,
,,,,,,,,,,,,,,,,,,,,3,0,3,0,17,0,17,0,,,,,,roodies,nw,h,lower,,,,,,,1,w,HiDemTar,h,1,0.571652133949101,,,,,,,,,,,,,,,,,,,377,2023-11-13_16h11.46.432,leap3,2022.2.5,59.96984288418229,
,,,,,,,,,,,,,,,,,,,,3,0,3,0,18,0,18,0,,,,,,supplier,w,g,lower,,,,,,,1,nw,HiDemTar,g,1,0.4756723353639245,,,,,,,,,,,,,,,,,,,377,2023-11-13_16h11.46.432,leap3,2022.2.5,59.96984288418229,
,,,,,,,,,,,,,,,,,,,,3,0,3,0,19,0,19,0,,,,,,irfirm,nw,h,lower,,,,,,,1,w,HiDemTar,h,1,0.5915512088686228,,,,,,,,,,,,,,,,,,,377,2023-11-13_16h11.46.432,leap3,2022.2.5,59.96984288418229,
,,,,,,,,,,,,,,,,,,,,3,0,3,0,20,0,20,0,,,,,,penalize,w,g,lower,,,,,,,1,nw,HiDemTar,g,1,0.5019750343635678,,,,,,,,,,,,,,,,,,,377,2023-11-13_16h11.46.432,leap3,2022.2.5,59.96984288418229,
,,,,,,,,,,,,,,,,,,,,3,0,3,0,21,0,21,0,,,,,,bamboo,w,g,lower,,,,,,,1,w,HiDemTar,g,1,0.6245192307978868,,,,,,,,,,,,,,,,,,,377,2023-11-13_16h11.46.432,leap3,2022.2.5,59.96984288418229,
,,,,,,,,,,,,,,,,,,,,3,0,3,0,22,0,22,0,,,,,,ralliep,nw,h,lower,,,,,,,1,w,HiDemTar,h,1,0.5745631186291575,,,,,,,,,,,,,,,,,,,377,2023-11-13_16h11.46.432,leap3,2022.2.5,59.96984288418229,
,,,,,,,,,,,,,,,,,,,,3,0,3,0,23,0,23,0,,,,,,shimble,nw,h,lower,,,,,,,1,nw,HiDemTar,g,0,0.40649810805916786,,,,,,,,,,,,,,,,,,,377,2023-11-13_16h11.46.432,leap3,2022.2.5,59.96984288418229,
,,,,,,,,,,,,,,,,,,,,3,0,3,0,24,0,24,0,,,,,,fillings,w,g,lower,,,,,,,1,nw,HiDemTar,g,1,0.5731154745444655,,,,,,,,,,,,,,,,,,,377,2023-11-13_16h11.46.432,leap3,2022.2.5,59.96984288418229,
,,,,,,,,,,,,,,,,,,,,3,0,3,0,25,0,25,0,,,,,,roaned,nw,h,lower,,,,,,,1,w,HiDemTar,h,1,0.6531331492587924,,,,,,,,,,,,,,,,,,,377,2023-11-13_16h11.46.432,leap3,2022.2.5,59.96984288418229,
,,,,,,,,,,,,,,,,,,,,3,0,3,0,26,0,26,0,,,,,,purpose,w,g,lower,,,,,,,1,nw,HiDemTar,g,1,0.4017890375107527,,,,,,,,,,,,,,,,,,,377,2023-11-13_16h11.46.432,leap3,2022.2.5,59.96984288418229,
,,,,,,,,,,,,,,,,,,,,3,0,3,0,27,0,27,0,,,,,,courier,w,g,lower,,,,,,,1,w,HiDemTar,g,1,0.6005144705995917,,,,,,,,,,,,,,,,,,,377,2023-11-13_16h11.46.432,leap3,2022.2.5,59.96984288418229,
,,,,,,,,,,,,,,,,,,,,3,0,3,0,28,0,28,0,,,,,,priant,nw,h,lower,,,,,,,1,w,HiDemTar,h,1,0.5981108862906694,,,,,,,,,,,,,,,,,,,377,2023-11-13_16h11.46.432,leap3,2022.2.5,59.96984288418229,
,,,,,,,,,,,,,,,,,,,,3,0,3,0,29,0,29,0,,,,,,listless,w,g,lower,,,,,,,1,nw,HiDemTar,g,1,0.7013672403991222,,,,,,,,,,,,,,,,,,,377,2023-11-13_16h11.46.432,leap3,2022.2.5,59.96984288418229,
,,,,,,,,,,,,,,,,,,,,3,0,3,0,,,,,,,,,,,,,,,,,,,,,,,,,,1,,,,,,,,,,,,,,,,,,377,2023-11-13_16h11.46.432,leap3,2022.2.5,59.96984288418229,
,,,,,,,,,,,,,,,,,,,,4,0,4,0,0,0,0,0,,,,,,wrecber,nw,h,lower,,,,,,,1,nw,HiDemTar,h,1,0.5599493347108364,,,,,,,,,,,,,,,,,,,377,2023-11-13_16h11.46.432,leap3,2022.2.5,59.96984288418229,
,,,,,,,,,,,,,,,,,,,,4,0,4,0,1,0,1,0,,,,,,felevance,nw,h,lower,,,,,,,1,nw,HiDemTar,h,1,0.5434402702376246,,,,,,,,,,,,,,,,,,,377,2023-11-13_16h11.46.432,leap3,2022.2.5,59.96984288418229,
,,,,,,,,,,,,,,,,,,,,4,0,4,0,2,0,2,0,,,,,,contain,w,g,lower,,,,,,,1,w,HiDemTar,g,1,0.4566990165039897,,,,,,,,,,,,,,,,,,,377,2023-11-13_16h11.46.432,leap3,2022.2.5,59.96984288418229,
,,,,,,,,,,,,,,,,,,,,4,0,4,0,3,0,3,0,,,,,,endgume,nw,h,lower,,,,,,,1,nw,HiDemTar,h,1,0.4297521812841296,,,,,,,,,,,,,,,,,,,377,2023-11-13_16h11.46.432,leap3,2022.2.5,59.96984288418229,
,,,,,,,,,,,,,,,,,,,,4,0,4,0,4,0,4,0,,,,,,huzzles,nw,h,lower,,,,,,,1,nw,HiDemTar,h,1,0.5394028034061193,,,,,,,,,,,,,,,,,,,377,2023-11-13_16h11.46.432,leap3,2022.2.5,59.96984288418229,
,,,,,,,,,,,,,,,,,,,,4,0,4,0,5,0,5,0,,,,,,guitar,w,g,lower,,,,,,,1,w,HiDemTar,g,1,0.476899029687047,,,,,,,,,,,,,,,,,,,377,2023-11-13_16h11.46.432,leap3,2022.2.5,59.96984288418229,
,,,,,,,,,,,,,,,,,,,,4,0,4,0,6,0,6,0,,,,,,razelle,nw,h,lower,,,,,,,1,nw,HiDemTar,h,1,0.6406485736370087,,,,,,,,,,,,,,,,,,,377,2023-11-13_16h11.46.432,leap3,2022.2.5,59.96984288418229,
,,,,,,,,,,,,,,,,,,,,4,0,4,0,7,0,7,0,,,,,,arrival,w,g,lower,,,,,,,1,w,HiDemTar,g,1,0.4300156915560365,,,,,,,,,,,,,,,,,,,377,2023-11-13_16h11.46.432,leap3,2022.2.5,59.96984288418229,
,,,,,,,,,,,,,,,,,,,,4,0,4,0,8,0,8,0,,,,,,boulder,w,g,lower,,,,,,,1,w,HiDemTar,g,1,0.4920600578188896,,,,,,,,,,,,,,,,,,,377,2023-11-13_16h11.46.432,leap3,2022.2.5,59.96984288418229,
,,,,,,,,,,,,,,,,,,,,4,0,4,0,9,0,9,0,,,,,,balign,nw,h,lower,,,,,,,1,nw,HiDemTar,h,1,0.583332596346736,,,,,,,,,,,,,,,,,,,377,2023-11-13_16h11.46.432,leap3,2022.2.5,59.96984288418229,
,,,,,,,,,,,,,,,,,,,,4,0,4,0,10,0,10,0,,,,,,erithets,nw,h,lower,,,,,,,1,nw,HiDemTar,h,1,0.5033149207010865,,,,,,,,,,,,,,,,,,,377,2023-11-13_16h11.46.432,leap3,2022.2.5,59.96984288418229,
,,,,,,,,,,,,,,,,,,,,4,0,4,0,11,0,11,0,,,,,,mortgage,w,g,lower,,,,,,,1,w,HiDemTar,g,1,0.5458846045657992,,,,,,,,,,,,,,,,,,,377,2023-11-13_16h11.46.432,leap3,2022.2.5,59.96984288418229,
,,,,,,,,,,,,,,,,,,,,4,0,4,0,12,0,12,0,,,,,,quittint,nw,h,lower,,,,,,,1,nw,HiDemTar,h,1,0.5313725406304002,,,,,,,,,,,,,,,,,,,377,2023-11-13_16h11.46.432,leap3,2022.2.5,59.96984288418229,
,,,,,,,,,,,,,,,,,,,,4,0,4,0,13,0,13,0,,,,,,gorilla,target,q,lower,,,,,,,1,target,HiDemTar,g,0,0.5084112575277686,,1,1,,,,,,,,,,,,,,,,377,2023-11-13_16h11.46.432,leap3,2022.2.5,59.96984288418229,
,,,,,,,,,,,,,,,,,,,,4,0,4,0,14,0,14,0,,,,,,couple,w,g,lower,,,,,,,1,aftertar1,HiDemTar,g,1,0.4789760196581483,,,,,,,,,,,,,,,,,,,377,2023-11-13_16h11.46.432,leap3,2022.2.5,59.96984288418229,
,,,,,,,,,,,,,,,,,,,,4,0,4,0,15,0,15,0,,,,,,jinds,nw,h,lower,,,,,,,1,aftertar2,HiDemTar,h,1,0.48293500766158104,,,,,,,,,,,,,,,,,,,377,2023-11-13_16h11.46.432,leap3,2022.2.5,59.96984288418229,
,,,,,,,,,,,,,,,,,,,,4,0,4,0,16,0,16,0,,,,,,trooper,w,g,lower,,,,,,,1,aftertar3,HiDemTar,g,1,0.45479377545416355,,,,,,,,,,,,,,,,,,,377,2023-11-13_16h11.46.432,leap3,2022.2.5,59.96984288418229,
,,,,,,,,,,,,,,,,,,,,4,0,4,0,17,0,17,0,,,,,,snorls,nw,h,lower,,,,,,,1,w,HiDemTar,h,1,0.6434530084952712,,,,,,,,,,,,,,,,,,,377,2023-11-13_16h11.46.432,leap3,2022.2.5,59.96984288418229,
,,,,,,,,,,,,,,,,,,,,4,0,4,0,18,0,18,0,,,,,,athcan,nw,h,lower,,,,,,,1,nw,HiDemTar,h,1,0.640736410394311,,,,,,,,,,,,,,,,,,,377,2023-11-13_16h11.46.432,leap3,2022.2.5,59.96984288418229,
,,,,,,,,,,,,,,,,,,,,4,0,4,0,19,0,19,0,,,,,,omission,w,g,lower,,,,,,,1,nw,HiDemTar,g,1,0.4540406744927168,,,,,,,,,,,,,,,,,,,377,2023-11-13_16h11.46.432,leap3,2022.2.5,59.96984288418229,
,,,,,,,,,,,,,,,,,,,,4,0,4,0,20,0,20,0,,,,,,combat,w,g,lower,,,,,,,1,w,HiDemTar,g,1,0.4027156997472048,,,,,,,,,,,,,,,,,,,377,2023-11-13_16h11.46.432,leap3,2022.2.5,59.96984288418229,
,,,,,,,,,,,,,,,,,,,,4,0,4,0,21,0,21,0,,,,,,acoustic,w,g,lower,,,,,,,1,w,HiDemTar,g,1,0.4813636066392064,,,,,,,,,,,,,,,,,,,377,2023-11-13_16h11.46.432,leap3,2022.2.5,59.96984288418229,
,,,,,,,,,,,,,,,,,,,,4,0,4,0,22,0,22,0,,,,,,tinker,w,g,lower,,,,,,,1,w,HiDemTar,g,1,0.389334948733449,,,,,,,,,,,,,,,,,,,377,2023-11-13_16h11.46.432,leap3,2022.2.5,59.96984288418229,
,,,,,,,,,,,,,,,,,,,,4,0,4,0,23,0,23,0,,,,,,slooping,nw,h,lower,,,,,,,1,w,HiDemTar,g,0,0.4287431165575981,,,,,,,,,,,,,,,,,,,377,2023-11-13_16h11.46.432,leap3,2022.2.5,59.96984288418229,
,,,,,,,,,,,,,,,,,,,,4,0,4,0,24,0,24,0,,,,,,slending,nw,h,lower,,,,,,,1,nw,HiDemTar,g,0,0.37772541865706444,,,,,,,,,,,,,,,,,,,377,2023-11-13_16h11.46.432,leap3,2022.2.5,59.96984288418229,
,,,,,,,,,,,,,,,,,,,,4,0,4,0,25,0,25,0,,,,,,aviation,w,g,lower,,,,,,,1,nw,HiDemTar,g,1,0.45871986262500286,,,,,,,,,,,,,,,,,,,377,2023-11-13_16h11.46.432,leap3,2022.2.5,59.96984288418229,
,,,,,,,,,,,,,,,,,,,,4,0,4,0,26,0,26,0,,,,,,congraks,nw,h,lower,,,,,,,1,w,HiDemTar,h,1,0.5423146933317184,,,,,,,,,,,,,,,,,,,377,2023-11-13_16h11.46.432,leap3,2022.2.5,59.96984288418229,
,,,,,,,,,,,,,,,,,,,,4,0,4,0,27,0,27,0,,,,,,unmarked,w,g,lower,,,,,,,1,nw,HiDemTar,g,1,0.5916037298738956,,,,,,,,,,,,,,,,,,,377,2023-11-13_16h11.46.432,leap3,2022.2.5,59.96984288418229,
,,,,,,,,,,,,,,,,,,,,4,0,4,0,28,0,28,0,,,,,,inversion,w,g,lower,,,,,,,1,w,HiDemTar,g,1,0.4777746796607971,,,,,,,,,,,,,,,,,,,377,2023-11-13_16h11.46.432,leap3,2022.2.5,59.96984288418229,
,,,,,,,,,,,,,,,,,,,,4,0,4,0,29,0,29,0,,,,,,frigs,nw,h,lower,,,,,,,1,w,HiDemTar,h,1,0.4736080225557089,,,,,,,,,,,,,,,,,,,377,2023-11-13_16h11.46.432,leap3,2022.2.5,59.96984288418229,
,,,,,,,,,,,,,,,,,,,,4,0,4,0,,,,,,,,,,,,,,,,,,,,,,,,,,1,,,,,,,,,,,,,,,,,,377,2023-11-13_16h11.46.432,leap3,2022.2.5,59.96984288418229,
,,,,,,,,,,,,,,,,,,,,5,0,5,0,0,0,0,0,,,,,,digar,nw,h,upper,,,,,,,3,nw,LoDemNoTar,h,1,0.6386711923405528,,,,,,,,,,,,,,,,,,,377,2023-11-13_16h11.46.432,leap3,2022.2.5,59.96984288418229,
,,,,,,,,,,,,,,,,,,,,5,0,5,0,1,0,1,0,,,,,,misest,nw,h,upper,,,,,,,3,nw,LoDemNoTar,h,1,0.6110171377658844,,,,,,,,,,,,,,,,,,,377,2023-11-13_16h11.46.432,leap3,2022.2.5,59.96984288418229,
,,,,,,,,,,,,,,,,,,,,5,0,5,0,2,0,2,0,,,,,,garment,w,g,upper,,,,,,,3,w,LoDemNoTar,g,1,0.5136841731145978,,,,,,,,,,,,,,,,,,,377,2023-11-13_16h11.46.432,leap3,2022.2.5,59.96984288418229,
,,,,,,,,,,,,,,,,,,,,5,0,5,0,3,0,3,0,,,,,,wimpid,nw,h,upper,,,,,,,3,nw,LoDemNoTar,h,1,0.45229510962963104,,,,,,,,,,,,,,,,,,,377,2023-11-13_16h11.46.432,leap3,2022.2.5,59.96984288418229,
,,,,,,,,,,,,,,,,,,,,5,0,5,0,4,0,4,0,,,,,,apology,w,g,upper,,,,,,,3,w,LoDemNoTar,g,1,0.4250234914943576,,,,,,,,,,,,,,,,,,,377,2023-11-13_16h11.46.432,leap3,2022.2.5,59.96984288418229,
,,,,,,,,,,,,,,,,,,,,5,0,5,0,5,0,5,0,,,,,,scrobby,nw,h,upper,,,,,,,3,nw,LoDemNoTar,h,1,0.6149785397574306,,,,,,,,,,,,,,,,,,,377,2023-11-13_16h11.46.432,leap3,2022.2.5,59.96984288418229,
,,,,,,,,,,,,,,,,,,,,5,0,5,0,6,0,6,0,,,,,,exemplify,w,g,upper,,,,,,,3,w,LoDemNoTar,g,1,0.469567839987576,,,,,,,,,,,,,,,,,,,377,2023-11-13_16h11.46.432,leap3,2022.2.5,59.96984288418229,
,,,,,,,,,,,,,,,,,,,,5,0,5,0,7,0,7,0,,,,,,reason,w,g,upper,,,,,,,3,w,LoDemNoTar,g,1,0.513529627583921,,,,,,,,,,,,,,,,,,,377,2023-11-13_16h11.46.432,leap3,2022.2.5,59.96984288418229,
,,,,,,,,,,,,,,,,,,,,5,0,5,0,8,0,8,0,,,,,,happen,w,g,upper,,,,,,,3,w,LoDemNoTar,g,1,0.4041995648294687,,,,,,,,,,,,,,,,,,,377,2023-11-13_16h11.46.432,leap3,2022.2.5,59.96984288418229,
,,,,,,,,,,,,,,,,,,,,5,0,5,0,9,0,9,0,,,,,,fracture,w,g,upper,,,,,,,3,w,LoDemNoTar,g,1,0.44284799229353666,,,,,,,,,,,,,,,,,,,377,2023-11-13_16h11.46.432,leap3,2022.2.5,59.96984288418229,
,,,,,,,,,,,,,,,,,,,,5,0,5,0,10,0,10,0,,,,,,zears,nw,h,upper,,,,,,,3,nw,LoDemNoTar,h,1,0.5761740608140826,,,,,,,,,,,,,,,,,,,377,2023-11-13_16h11.46.432,leap3,2022.2.5,59.96984288418229,
,,,,,,,,,,,,,,,,,,,,5,0,5,0,11,0,11,0,,,,,,command,w,g,upper,,,,,,,3,w,LoDemNoTar,g,1,0.4150982517749071,,,,,,,,,,,,,,,,,,,377,2023-11-13_16h11.46.432,leap3,2022.2.5,59.96984288418229,
,,,,,,,,,,,,,,,,,,,,5,0,5,0,12,0,12,0,,,,,,entertain,w,g,upper,,,,,,,3,w,LoDemNoTar,g,1,0.4377691624686122,,,,,,,,,,,,,,,,,,,377,2023-11-13_16h11.46.432,leap3,2022.2.5,59.96984288418229,
,,,,,,,,,,,,,,,,,,,,5,0,5,0,13,0,13,0,,,,,,urique,nw,h,upper,,,,,,,3,nw,LoDemNoTar,h,1,0.6430910974740982,,,,,,,,,,,,,,,,,,,377,2023-11-13_16h11.46.432,leap3,2022.2.5,59.96984288418229,
,,,,,,,,,,,,,,,,,,,,5,0,5,0,14,0,14,0,,,,,,emission,w,g,upper,,,,,,,3,w,LoDemNoTar,g,1,0.5604422455653548,,,,,,,,,,,,,,,,,,,377,2023-11-13_16h11.46.432,leap3,2022.2.5,59.96984288418229,
,,,,,,,,,,,,,,,,,,,,5,0,5,0,15,0,15,0,,,,,,contund,nw,h,upper,,,,,,,3,nw,LoDemNoTar,h,1,0.6172176199033856,,,,,,,,,,,,,,,,,,,377,2023-11-13_16h11.46.432,leap3,2022.2.5,59.96984288418229,
,,,,,,,,,,,,,,,,,,,,5,0,5,0,16,0,16,0,,,,,,assent,w,g,upper,,,,,,,3,w,LoDemNoTar,h,0,0.6310553634539247,,,,,,,,,,,,,,,,,,,377,2023-11-13_16h11.46.432,leap3,2022.2.5,59.96984288418229,
,,,,,,,,,,,,,,,,,,,,5,0,5,0,17,0,17,0,,,,,,arrive,w,g,upper,,,,,,,3,w,LoDemNoTar,g,1,0.46899252478033304,,,,,,,,,,,,,,,,,,,377,2023-11-13_16h11.46.432,leap3,2022.2.5,59.96984288418229,
,,,,,,,,,,,,,,,,,,,,5,0,5,0,18,0,18,0,,,,,,mandlers,nw,h,upper,,,,,,,3,nw,LoDemNoTar,h,1,0.561010617762804,,,,,,,,,,,,,,,,,,,377,2023-11-13_16h11.46.432,leap3,2022.2.5,59.96984288418229,
,,,,,,,,,,,,,,,,,,,,5,0,5,0,19,0,19,0,,,,,,landing,w,g,upper,,,,,,,3,w,LoDemNoTar,g,1,0.504887830466032,,,,,,,,,,,,,,,,,,,377,2023-11-13_16h11.46.432,leap3,2022.2.5,59.96984288418229,
,,,,,,,,,,,,,,,,,,,,5,0,5,0,20,0,20,0,,,,,,slightly,w,g,upper,,,,,,,3,w,LoDemNoTar,g,1,0.49820258654654026,,,,,,,,,,,,,,,,,,,377,2023-11-13_16h11.46.432,leap3,2022.2.5,59.96984288418229,
,,,,,,,,,,,,,,,,,,,,5,0,5,0,21,0,21,0,,,,,,pimorous,nw,h,upper,,,,,,,3,nw,LoDemNoTar,h,1,0.413443542085588,,,,,,,,,,,,,,,,,,,377,2023-11-13_16h11.46.432,leap3,2022.2.5,59.96984288418229,
,,,,,,,,,,,,,,,,,,,,5,0,5,0,22,0,22,0,,,,,,lavilion,nw,h,upper,,,,,,,3,nw,LoDemNoTar,h,1,0.5486123692244291,,,,,,,,,,,,,,,,,,,377,2023-11-13_16h11.46.432,leap3,2022.2.5,59.96984288418229,
,,,,,,,,,,,,,,,,,,,,5,0,5,0,23,0,23,0,,,,,,ganter,nw,h,upper,,,,,,,3,nw,LoDemNoTar,h,1,0.6704789251089096,,,,,,,,,,,,,,,,,,,377,2023-11-13_16h11.46.432,leap3,2022.2.5,59.96984288418229,
,,,,,,,,,,,,,,,,,,,,5,0,5,0,24,0,24,0,,,,,,unrealon,nw,h,upper,,,,,,,3,nw,LoDemNoTar,h,1,0.5865553859621286,,,,,,,,,,,,,,,,,,,377,2023-11-13_16h11.46.432,leap3,2022.2.5,59.96984288418229,
,,,,,,,,,,,,,,,,,,,,5,0,5,0,25,0,25,0,,,,,,grested,nw,h,upper,,,,,,,3,nw,LoDemNoTar,h,1,0.5217696717008948,,,,,,,,,,,,,,,,,,,377,2023-11-13_16h11.46.432,leap3,2022.2.5,59.96984288418229,
,,,,,,,,,,,,,,,,,,,,5,0,5,0,26,0,26,0,,,,,,prama,nw,h,upper,,,,,,,3,nw,LoDemNoTar,g,0,0.5637462306767702,,,,,,,,,,,,,,,,,,,377,2023-11-13_16h11.46.432,leap3,2022.2.5,59.96984288418229,
,,,,,,,,,,,,,,,,,,,,5,0,5,0,27,0,27,0,,,,,,probable,w,g,upper,,,,,,,3,w,LoDemNoTar,g,1,0.4764785608276725,,,,,,,,,,,,,,,,,,,377,2023-11-13_16h11.46.432,leap3,2022.2.5,59.96984288418229,
,,,,,,,,,,,,,,,,,,,,5,0,5,0,28,0,28,0,,,,,,marvel,w,g,upper,,,,,,,3,w,LoDemNoTar,g,1,0.5523519171401858,,,,,,,,,,,,,,,,,,,377,2023-11-13_16h11.46.432,leap3,2022.2.5,59.96984288418229,
,,,,,,,,,,,,,,,,,,,,5,0,5,0,29,0,29,0,,,,,,allained,nw,h,upper,,,,,,,3,nw,LoDemNoTar,h,1,0.6090865433216095,,,,,,,,,,,,,,,,,,,377,2023-11-13_16h11.46.432,leap3,2022.2.5,59.96984288418229,
,,,,,,,,,,,,,,,,,,,,5,0,5,0,,,,,,,,,,,,,,,,,,,,,,,,,,NA,,,,,,,,,,,,,,,,,,377,2023-11-13_16h11.46.432,leap3,2022.2.5,59.96984288418229,
,,,,,,,,,,,,,,,,,,,,6,0,6,0,0,0,0,0,,,,,,churnad,nw,h,upper,,,,,,,3,nw,LoDemNoTar,h,1,0.58259307872504,,,,,,,,,,,,,,,,,,,377,2023-11-13_16h11.46.432,leap3,2022.2.5,59.96984288418229,
,,,,,,,,,,,,,,,,,,,,6,0,6,0,1,0,1,0,,,,,,deakers,nw,h,upper,,,,,,,3,nw,LoDemNoTar,h,1,0.5185855170711875,,,,,,,,,,,,,,,,,,,377,2023-11-13_16h11.46.432,leap3,2022.2.5,59.96984288418229,
,,,,,,,,,,,,,,,,,,,,6,0,6,0,2,0,2,0,,,,,,fission,w,g,upper,,,,,,,3,w,LoDemNoTar,g,1,0.7925362465903163,,,,,,,,,,,,,,,,,,,377,2023-11-13_16h11.46.432,leap3,2022.2.5,59.96984288418229,
,,,,,,,,,,,,,,,,,,,,6,0,6,0,3,0,3,0,,,,,,bullet,w,g,upper,,,,,,,3,w,LoDemNoTar,g,1,0.48783363588154316,,,,,,,,,,,,,,,,,,,377,2023-11-13_16h11.46.432,leap3,2022.2.5,59.96984288418229,
,,,,,,,,,,,,,,,,,,,,6,0,6,0,4,0,4,0,,,,,,inducing,w,g,upper,,,,,,,3,w,LoDemNoTar,g,1,0.619155460037291,,,,,,,,,,,,,,,,,,,377,2023-11-13_16h11.46.432,leap3,2022.2.5,59.96984288418229,
,,,,,,,,,,,,,,,,,,,,6,0,6,0,5,0,5,0,,,,,,suspect,w,g,upper,,,,,,,3,w,LoDemNoTar,g,1,0.4162706146016717,,,,,,,,,,,,,,,,,,,377,2023-11-13_16h11.46.432,leap3,2022.2.5,59.96984288418229,
,,,,,,,,,,,,,,,,,,,,6,0,6,0,6,0,6,0,,,,,,pepperoni,w,g,upper,,,,,,,3,w,LoDemNoTar,g,1,0.7028106600046158,,,,,,,,,,,,,,,,,,,377,2023-11-13_16h11.46.432,leap3,2022.2.5,59.96984288418229,
,,,,,,,,,,,,,,,,,,,,6,0,6,0,7,0,7,0,,,,,,begut,nw,h,upper,,,,,,,3,nw,LoDemNoTar,h,1,0.5694562178105116,,,,,,,,,,,,,,,,,,,377,2023-11-13_16h11.46.432,leap3,2022.2.5,59.96984288418229,
,,,,,,,,,,,,,,,,,,,,6,0,6,0,8,0,8,0,,,,,,trembla,nw,h,upper,,,,,,,3,nw,LoDemNoTar,h,1,0.5854180371388793,,,,,,,,,,,,,,,,,,,377,2023-11-13_16h11.46.432,leap3,2022.2.5,59.96984288418229,
,,,,,,,,,,,,,,,,,,,,6,0,6,0,9,0,9,0,,,,,,rarren,nw,h,upper,,,,,,,3,nw,LoDemNoTar,h,1,0.5127457389608026,,,,,,,,,,,,,,,,,,,377,2023-11-13_16h11.46.432,leap3,2022.2.5,59.96984288418229,
,,,,,,,,,,,,,,,,,,,,6,0,6,0,10,0,10,0,,,,,,theery,nw,h,upper,,,,,,,3,nw,LoDemNoTar,h,1,0.4513720702379942,,,,,,,,,,,,,,,,,,,377,2023-11-13_16h11.46.432,leap3,2022.2.5,59.96984288418229,
,,,,,,,,,,,,,,,,,,,,6,0,6,0,11,0,11,0,,,,,,static,w,g,upper,,,,,,,3,w,LoDemNoTar,g,1,0.4707960430532694,,,,,,,,,,,,,,,,,,,377,2023-11-13_16h11.46.432,leap3,2022.2.5,59.96984288418229,
,,,,,,,,,,,,,,,,,,,,6,0,6,0,12,0,12,0,,,,,,pexts,nw,h,upper,,,,,,,3,nw,LoDemNoTar,h,1,0.4507729094475508,,,,,,,,,,,,,,,,,,,377,2023-11-13_16h11.46.432,leap3,2022.2.5,59.96984288418229,
,,,,,,,,,,,,,,,,,,,,6,0,6,0,13,0,13,0,,,,,,fomrade,nw,h,upper,,,,,,,3,nw,LoDemNoTar,h,1,0.551841196604073,,,,,,,,,,,,,,,,,,,377,2023-11-13_16h11.46.432,leap3,2022.2.5,59.96984288418229,
,,,,,,,,,,,,,,,,,,,,6,0,6,0,14,0,14,0,,,,,,lutton,nw,h,upper,,,,,,,3,nw,LoDemNoTar,h,1,0.48910017404705286,,,,,,,,,,,,,,,,,,,377,2023-11-13_16h11.46.432,leap3,2022.2.5,59.96984288418229,
,,,,,,,,,,,,,,,,,,,,6,0,6,0,15,0,15,0,,,,,,fallint,nw,h,upper,,,,,,,3,nw,LoDemNoTar,h,1,0.49910208210349083,,,,,,,,,,,,,,,,,,,377,2023-11-13_16h11.46.432,leap3,2022.2.5,59.96984288418229,
,,,,,,,,,,,,,,,,,,,,6,0,6,0,16,0,16,0,,,,,,dontrite,nw,h,upper,,,,,,,3,nw,LoDemNoTar,h,1,0.45451547484844923,,,,,,,,,,,,,,,,,,,377,2023-11-13_16h11.46.432,leap3,2022.2.5,59.96984288418229,
,,,,,,,,,,,,,,,,,,,,6,0,6,0,17,0,17,0,,,,,,earnest,w,g,upper,,,,,,,3,w,LoDemNoTar,g,1,0.6182481162250042,,,,,,,,,,,,,,,,,,,377,2023-11-13_16h11.46.432,leap3,2022.2.5,59.96984288418229,
,,,,,,,,,,,,,,,,,,,,6,0,6,0,18,0,18,0,,,,,,angry,w,g,upper,,,,,,,3,w,LoDemNoTar,g,1,0.48811344522982836,,,,,,,,,,,,,,,,,,,377,2023-11-13_16h11.46.432,leap3,2022.2.5,59.96984288418229,
,,,,,,,,,,,,,,,,,,,,6,0,6,0,19,0,19,0,,,,,,hackal,nw,h,upper,,,,,,,3,nw,LoDemNoTar,h,1,0.48275872971862555,,,,,,,,,,,,,,,,,,,377,2023-11-13_16h11.46.432,leap3,2022.2.5,59.96984288418229,
,,,,,,,,,,,,,,,,,,,,6,0,6,0,20,0,20,0,,,,,,glaims,nw,h,upper,,,,,,,3,nw,LoDemNoTar,g,0,0.44610639940947294,,,,,,,,,,,,,,,,,,,377,2023-11-13_16h11.46.432,leap3,2022.2.5,59.96984288418229,
,,,,,,,,,,,,,,,,,,,,6,0,6,0,21,0,21,0,,,,,,regiment,w,g,upper,,,,,,,3,w,LoDemNoTar,g,1,0.8595634559169412,,,,,,,,,,,,,,,,,,,377,2023-11-13_16h11.46.432,leap3,2022.2.5,59.96984288418229,
,,,,,,,,,,,,,,,,,,,,6,0,6,0,22,0,22,0,,,,,,permeable,w,g,upper,,,,,,,3,w,LoDemNoTar,g,1,0.5681166322901845,,,,,,,,,,,,,,,,,,,377,2023-11-13_16h11.46.432,leap3,2022.2.5,59.96984288418229,
,,,,,,,,,,,,,,,,,,,,6,0,6,0,23,0,23,0,,,,,,renown,w,g,upper,,,,,,,3,w,LoDemNoTar,g,1,0.6561244260519743,,,,,,,,,,,,,,,,,,,377,2023-11-13_16h11.46.432,leap3,2022.2.5,59.96984288418229,
,,,,,,,,,,,,,,,,,,,,6,0,6,0,24,0,24,0,,,,,,arrested,w,g,upper,,,,,,,3,w,LoDemNoTar,g,1,0.5407173335552216,,,,,,,,,,,,,,,,,,,377,2023-11-13_16h11.46.432,leap3,2022.2.5,59.96984288418229,
,,,,,,,,,,,,,,,,,,,,6,0,6,0,25,0,25,0,,,,,,stranded,w,g,upper,,,,,,,3,w,LoDemNoTar,g,1,0.717042007483542,,,,,,,,,,,,,,,,,,,377,2023-11-13_16h11.46.432,leap3,2022.2.5,59.96984288418229,
,,,,,,,,,,,,,,,,,,,,6,0,6,0,26,0,26,0,,,,,,record,w,g,upper,,,,,,,3,w,LoDemNoTar,g,1,0.4557291902601719,,,,,,,,,,,,,,,,,,,377,2023-11-13_16h11.46.432,leap3,2022.2.5,59.96984288418229,
,,,,,,,,,,,,,,,,,,,,6,0,6,0,27,0,27,0,,,,,,stuggard,nw,h,upper,,,,,,,3,nw,LoDemNoTar,h,1,0.5802580118179321,,,,,,,,,,,,,,,,,,,377,2023-11-13_16h11.46.432,leap3,2022.2.5,59.96984288418229,
,,,,,,,,,,,,,,,,,,,,6,0,6,0,28,0,28,0,,,,,,dreaded,w,g,upper,,,,,,,3,w,LoDemNoTar,g,1,0.54822963103652,,,,,,,,,,,,,,,,,,,377,2023-11-13_16h11.46.432,leap3,2022.2.5,59.96984288418229,
,,,,,,,,,,,,,,,,,,,,6,0,6,0,29,0,29,0,,,,,,halents,nw,h,upper,,,,,,,3,nw,LoDemNoTar,h,1,0.48564164340496063,,,,,,,,,,,,,,,,,,,377,2023-11-13_16h11.46.432,leap3,2022.2.5,59.96984288418229,
,,,,,,,,,,,,,,,,,,,,6,0,6,0,,,,,,,,,,,,,,,,,,,,,,,,,,NA,,,,,,,,,,,,,,,,,,377,2023-11-13_16h11.46.432,leap3,2022.2.5,59.96984288418229,
,,,,,,,,,,,,,,,,,,,,7,0,7,0,0,0,0,0,,,,,,antwers,nw,h,upper,,,,,,,3,nw,LoDemNoTar,h,1,0.5199878849089146,,,,,,,,,,,,,,,,,,,377,2023-11-13_16h11.46.432,leap3,2022.2.5,59.96984288418229,
,,,,,,,,,,,,,,,,,,,,7,0,7,0,1,0,1,0,,,,,,rantho,nw,h,upper,,,,,,,3,nw,LoDemNoTar,h,1,0.42677328176796436,,,,,,,,,,,,,,,,,,,377,2023-11-13_16h11.46.432,leap3,2022.2.5,59.96984288418229,
,,,,,,,,,,,,,,,,,,,,7,0,7,0,2,0,2,0,,,,,,crundle,nw,h,upper,,,,,,,3,nw,LoDemNoTar,h,1,0.5597757734358311,,,,,,,,,,,,,,,,,,,377,2023-11-13_16h11.46.432,leap3,2022.2.5,59.96984288418229,
,,,,,,,,,,,,,,,,,,,,7,0,7,0,3,0,3,0,,,,,,neliefs,nw,h,upper,,,,,,,3,nw,LoDemNoTar,h,1,0.43852769676595926,,,,,,,,,,,,,,,,,,,377,2023-11-13_16h11.46.432,leap3,2022.2.5,59.96984288418229,
,,,,,,,,,,,,,,,,,,,,7,0,7,0,4,0,4,0,,,,,,matter,w,g,upper,,,,,,,3,w,LoDemNoTar,g,1,0.5152190495282412,,,,,,,,,,,,,,,,,,,377,2023-11-13_16h11.46.432,leap3,2022.2.5,59.96984288418229,
,,,,,,,,,,,,,,,,,,,,7,0,7,0,5,0,5,0,,,,,,unspoken,w,g,upper,,,,,,,3,w,LoDemNoTar,g,1,0.5178746748715639,,,,,,,,,,,,,,,,,,,377,2023-11-13_16h11.46.432,leap3,2022.2.5,59.96984288418229,
,,,,,,,,,,,,,,,,,,,,7,0,7,0,6,0,6,0,,,,,,racile,nw,h,upper,,,,,,,3,nw,LoDemNoTar,h,1,0.4884089510887861,,,,,,,,,,,,,,,,,,,377,2023-11-13_16h11.46.432,leap3,2022.2.5,59.96984288418229,
,,,,,,,,,,,,,,,,,,,,7,0,7,0,7,0,7,0,,,,,,rudder,w,g,upper,,,,,,,3,w,LoDemNoTar,h,0,0.5149485971778631,,,,,,,,,,,,,,,,,,,377,2023-11-13_16h11.46.432,leap3,2022.2.5,59.96984288418229,
,,,,,,,,,,,,,,,,,,,,7,0,7,0,8,0,8,0,,,,,,parlayid,nw,h,upper,,,,,,,3,nw,LoDemNoTar,h,1,0.4530044440180063,,,,,,,,,,,,,,,,,,,377,2023-11-13_16h11.46.432,leap3,2022.2.5,59.96984288418229,
,,,,,,,,,,,,,,,,,,,,7,0,7,0,9,0,9,0,,,,,,explosion,w,g,upper,,,,,,,3,w,LoDemNoTar,g,1,0.47298079170286655,,,,,,,,,,,,,,,,,,,377,2023-11-13_16h11.46.432,leap3,2022.2.5,59.96984288418229,
,,,,,,,,,,,,,,,,,,,,7,0,7,0,10,0,10,0,,,,,,pastnoss,nw,h,upper,,,,,,,3,nw,LoDemNoTar,h,1,0.4363037087023258,,,,,,,,,,,,,,,,,,,377,2023-11-13_16h11.46.432,leap3,2022.2.5,59.96984288418229,
,,,,,,,,,,,,,,,,,,,,7,0,7,0,11,0,11,0,,,,,,prison,w,g,upper,,,,,,,3,w,LoDemNoTar,g,1,0.4568110005930066,,,,,,,,,,,,,,,,,,,377,2023-11-13_16h11.46.432,leap3,2022.2.5,59.96984288418229,
,,,,,,,,,,,,,,,,,,,,7,0,7,0,12,0,12,0,,,,,,ifling,nw,h,upper,,,,,,,3,nw,LoDemNoTar,h,1,0.4678388759493828,,,,,,,,,,,,,,,,,,,377,2023-11-13_16h11.46.432,leap3,2022.2.5,59.96984288418229,
,,,,,,,,,,,,,,,,,,,,7,0,7,0,13,0,13,0,,,,,,bookend,w,g,upper,,,,,,,3,w,LoDemNoTar,h,0,0.5758302602916956,,,,,,,,,,,,,,,,,,,377,2023-11-13_16h11.46.432,leap3,2022.2.5,59.96984288418229,
,,,,,,,,,,,,,,,,,,,,7,0,7,0,14,0,14,0,,,,,,derived,w,g,upper,,,,,,,3,w,LoDemNoTar,g,1,0.4717562086880207,,,,,,,,,,,,,,,,,,,377,2023-11-13_16h11.46.432,leap3,2022.2.5,59.96984288418229,
,,,,,,,,,,,,,,,,,,,,7,0,7,0,15,0,15,0,,,,,,culinary,w,g,upper,,,,,,,3,w,LoDemNoTar,g,1,0.5397324170917273,,,,,,,,,,,,,,,,,,,377,2023-11-13_16h11.46.432,leap3,2022.2.5,59.96984288418229,
,,,,,,,,,,,,,,,,,,,,7,0,7,0,16,0,16,0,,,,,,sunhess,nw,h,upper,,,,,,,3,nw,LoDemNoTar,h,1,0.6050487738102674,,,,,,,,,,,,,,,,,,,377,2023-11-13_16h11.46.432,leap3,2022.2.5,59.96984288418229,
,,,,,,,,,,,,,,,,,,,,7,0,7,0,17,0,17,0,,,,,,micron,w,g,upper,,,,,,,3,w,LoDemNoTar,g,1,0.7477646106854081,,,,,,,,,,,,,,,,,,,377,2023-11-13_16h11.46.432,leap3,2022.2.5,59.96984288418229,
,,,,,,,,,,,,,,,,,,,,7,0,7,0,18,0,18,0,,,,,,fuintets,nw,h,upper,,,,,,,3,nw,LoDemNoTar,h,1,0.5083659803494811,,,,,,,,,,,,,,,,,,,377,2023-11-13_16h11.46.432,leap3,2022.2.5,59.96984288418229,
,,,,,,,,,,,,,,,,,,,,7,0,7,0,19,0,19,0,,,,,,restock,w,g,upper,,,,,,,3,w,LoDemNoTar,g,1,0.5270247785374522,,,,,,,,,,,,,,,,,,,377,2023-11-13_16h11.46.432,leap3,2022.2.5,59.96984288418229,
,,,,,,,,,,,,,,,,,,,,7,0,7,0,20,0,20,0,,,,,,dusmy,nw,h,upper,,,,,,,3,nw,LoDemNoTar,h,1,0.5674130339175463,,,,,,,,,,,,,,,,,,,377,2023-11-13_16h11.46.432,leap3,2022.2.5,59.96984288418229,
,,,,,,,,,,,,,,,,,,,,7,0,7,0,21,0,21,0,,,,,,paranoid,w,g,upper,,,,,,,3,w,LoDemNoTar,g,1,0.43939066864550114,,,,,,,,,,,,,,,,,,,377,2023-11-13_16h11.46.432,leap3,2022.2.5,59.96984288418229,
,,,,,,,,,,,,,,,,,,,,7,0,7,0,22,0,22,0,,,,,,perishing,w,g,upper,,,,,,,3,w,LoDemNoTar,g,1,0.5799652226269245,,,,,,,,,,,,,,,,,,,377,2023-11-13_16h11.46.432,leap3,2022.2.5,59.96984288418229,
,,,,,,,,,,,,,,,,,,,,7,0,7,0,23,0,23,0,,,,,,miurnal,nw,h,upper,,,,,,,3,nw,LoDemNoTar,h,1,0.5472745960578322,,,,,,,,,,,,,,,,,,,377,2023-11-13_16h11.46.432,leap3,2022.2.5,59.96984288418229,
,,,,,,,,,,,,,,,,,,,,7,0,7,0,24,0,24,0,,,,,,plogging,nw,h,upper,,,,,,,3,nw,LoDemNoTar,h,1,0.6359482575207949,,,,,,,,,,,,,,,,,,,377,2023-11-13_16h11.46.432,leap3,2022.2.5,59.96984288418229,
,,,,,,,,,,,,,,,,,,,,7,0,7,0,25,0,25,0,,,,,,drobate,nw,h,upper,,,,,,,3,nw,LoDemNoTar,h,1,0.5125736873596907,,,,,,,,,,,,,,,,,,,377,2023-11-13_16h11.46.432,leap3,2022.2.5,59.96984288418229,
,,,,,,,,,,,,,,,,,,,,7,0,7,0,26,0,26,0,,,,,,except,w,g,upper,,,,,,,3,w,LoDemNoTar,g,1,0.47453649528324604,,,,,,,,,,,,,,,,,,,377,2023-11-13_16h11.46.432,leap3,2022.2.5,59.96984288418229,
,,,,,,,,,,,,,,,,,,,,7,0,7,0,27,0,27,0,,,,,,sustain,w,g,upper,,,,,,,3,w,LoDemNoTar,g,1,0.42185593862086535,,,,,,,,,,,,,,,,,,,377,2023-11-13_16h11.46.432,leap3,2022.2.5,59.96984288418229,
,,,,,,,,,,,,,,,,,,,,7,0,7,0,28,0,28,0,,,,,,overwork,w,g,upper,,,,,,,3,w,LoDemNoTar,g,1,0.44317911472171545,,,,,,,,,,,,,,,,,,,377,2023-11-13_16h11.46.432,leap3,2022.2.5,59.96984288418229,
,,,,,,,,,,,,,,,,,,,,7,0,7,0,29,0,29,0,,,,,,airbis,nw,h,upper,,,,,,,3,nw,LoDemNoTar,h,1,0.5746763097122312,,,,,,,,,,,,,,,,,,,377,2023-11-13_16h11.46.432,leap3,2022.2.5,59.96984288418229,
,,,,,,,,,,,,,,,,,,,,7,0,7,0,,,,,,,,,,,,,,,,,,,,,,,,,,NA,,,,,,,,,,,,,,,,,,377,2023-11-13_16h11.46.432,leap3,2022.2.5,59.96984288418229,
,,,,,,,,,,,,,,,,,,,,8,0,8,0,0,0,0,0,,,,,,rander,nw,h,lower,,,,,,,1,nw,HiDemTar,h,1,0.6940170340240002,,,,,,,,,,,,,,,,,,,377,2023-11-13_16h11.46.432,leap3,2022.2.5,59.96984288418229,
,,,,,,,,,,,,,,,,,,,,8,0,8,0,1,0,1,0,,,,,,unwose,nw,h,lower,,,,,,,1,nw,HiDemTar,h,1,0.536615876480937,,,,,,,,,,,,,,,,,,,377,2023-11-13_16h11.46.432,leap3,2022.2.5,59.96984288418229,
,,,,,,,,,,,,,,,,,,,,8,0,8,0,2,0,2,0,,,,,,thesis,w,g,lower,,,,,,,1,w,HiDemTar,g,1,0.5132987173274159,,,,,,,,,,,,,,,,,,,377,2023-11-13_16h11.46.432,leap3,2022.2.5,59.96984288418229,
,,,,,,,,,,,,,,,,,,,,8,0,8,0,3,0,3,0,,,,,,opert,nw,h,lower,,,,,,,1,nw,HiDemTar,h,1,0.5872469106689095,,,,,,,,,,,,,,,,,,,377,2023-11-13_16h11.46.432,leap3,2022.2.5,59.96984288418229,
,,,,,,,,,,,,,,,,,,,,8,0,8,0,4,0,4,0,,,,,,hemoter,nw,h,lower,,,,,,,1,nw,HiDemTar,h,1,0.44193461164832115,,,,,,,,,,,,,,,,,,,377,2023-11-13_16h11.46.432,leap3,2022.2.5,59.96984288418229,
,,,,,,,,,,,,,,,,,,,,8,0,8,0,5,0,5,0,,,,,,professor,w,g,lower,,,,,,,1,w,HiDemTar,g,1,0.4626447418704629,,,,,,,,,,,,,,,,,,,377,2023-11-13_16h11.46.432,leap3,2022.2.5,59.96984288418229,
,,,,,,,,,,,,,,,,,,,,8,0,8,0,6,0,6,0,,,,,,veranpah,nw,h,lower,,,,,,,1,nw,HiDemTar,h,1,0.5056578340008855,,,,,,,,,,,,,,,,,,,377,2023-11-13_16h11.46.432,leap3,2022.2.5,59.96984288418229,
,,,,,,,,,,,,,,,,,,,,8,0,8,0,7,0,7,0,,,,,,gremieres,nw,h,lower,,,,,,,1,nw,HiDemTar,h,1,0.5956155396997929,,,,,,,,,,,,,,,,,,,377,2023-11-13_16h11.46.432,leap3,2022.2.5,59.96984288418229,
,,,,,,,,,,,,,,,,,,,,8,0,8,0,8,0,8,0,,,,,,pariah,w,g,lower,,,,,,,1,w,HiDemTar,g,1,0.6580972792580724,,,,,,,,,,,,,,,,,,,377,2023-11-13_16h11.46.432,leap3,2022.2.5,59.96984288418229,
,,,,,,,,,,,,,,,,,,,,8,0,8,0,9,0,9,0,,,,,,phonology,w,g,lower,,,,,,,1,w,HiDemTar,g,1,0.7580943210050464,,,,,,,,,,,,,,,,,,,377,2023-11-13_16h11.46.432,leap3,2022.2.5,59.96984288418229,
,,,,,,,,,,,,,,,,,,,,8,0,8,0,10,0,10,0,,,,,,leuter,nw,h,lower,,,,,,,1,nw,HiDemTar,h,1,0.5821409160271287,,,,,,,,,,,,,,,,,,,377,2023-11-13_16h11.46.432,leap3,2022.2.5,59.96984288418229,
,,,,,,,,,,,,,,,,,,,,8,0,8,0,11,0,11,0,,,,,,digest,w,g,lower,,,,,,,1,w,HiDemTar,g,1,0.477391941472888,,,,,,,,,,,,,,,,,,,377,2023-11-13_16h11.46.432,leap3,2022.2.5,59.96984288418229,
,,,,,,,,,,,,,,,,,,,,8,0,8,0,12,0,12,0,,,,,,lignpost,nw,h,lower,,,,,,,1,nw,HiDemTar,h,1,0.5447203917428851,,,,,,,,,,,,,,,,,,,377,2023-11-13_16h11.46.432,leap3,2022.2.5,59.96984288418229,
,,,,,,,,,,,,,,,,,,,,8,0,8,0,13,0,13,0,,,,,,joses,nw,h,lower,,,,,,,1,nw,HiDemTar,h,1,0.6013409197330475,,,,,,,,,,,,,,,,,,,377,2023-11-13_16h11.46.432,leap3,2022.2.5,59.96984288418229,
,,,,,,,,,,,,,,,,,,,,8,0,8,0,14,0,14,0,,,,,,illness,w,g,lower,,,,,,,1,w,HiDemTar,g,1,0.48000138346105814,,,,,,,,,,,,,,,,,,,377,2023-11-13_16h11.46.432,leap3,2022.2.5,59.96984288418229,
,,,,,,,,,,,,,,,,,,,,8,0,8,0,15,0,15,0,,,,,,obviously,w,g,lower,,,,,,,1,w,HiDemTar,g,1,0.49929314851760864,,,,,,,,,,,,,,,,,,,377,2023-11-13_16h11.46.432,leap3,2022.2.5,59.96984288418229,
,,,,,,,,,,,,,,,,,,,,8,0,8,0,16,0,16,0,,,,,,spider,target,q,lower,,,,,,,1,target,HiDemTar,g,0,0.421999616548419,,1,1,,,,,,,,,,,,,,,,377,2023-11-13_16h11.46.432,leap3,2022.2.5,59.96984288418229,
,,,,,,,,,,,,,,,,,,,,8,0,8,0,17,0,17,0,,,,,,terrify,w,g,lower,,,,,,,1,aftertar1,HiDemTar,g,1,0.5543277887627482,,,,,,,,,,,,,,,,,,,377,2023-11-13_16h11.46.432,leap3,2022.2.5,59.96984288418229,
,,,,,,,,,,,,,,,,,,,,8,0,8,0,18,0,18,0,,,,,,mixture,w,g,lower,,,,,,,1,aftertar2,HiDemTar,g,1,0.4022994562983513,,,,,,,,,,,,,,,,,,,377,2023-11-13_16h11.46.432,leap3,2022.2.5,59.96984288418229,
,,,,,,,,,,,,,,,,,,,,8,0,8,0,19,0,19,0,,,,,,moisture,w,g,lower,,,,,,,1,aftertar3,HiDemTar,g,1,0.4089065222069621,,,,,,,,,,,,,,,,,,,377,2023-11-13_16h11.46.432,leap3,2022.2.5,59.96984288418229,
,,,,,,,,,,,,,,,,,,,,8,0,8,0,20,0,20,0,,,,,,chining,nw,h,lower,,,,,,,1,w,HiDemTar,h,1,0.6549073895439506,,,,,,,,,,,,,,,,,,,377,2023-11-13_16h11.46.432,leap3,2022.2.5,59.96984288418229,
,,,,,,,,,,,,,,,,,,,,8,0,8,0,21,0,21,0,,,,,,chrik,nw,h,lower,,,,,,,1,nw,HiDemTar,h,1,0.5616444908082485,,,,,,,,,,,,,,,,,,,377,2023-11-13_16h11.46.432,leap3,2022.2.5,59.96984288418229,
,,,,,,,,,,,,,,,,,,,,8,0,8,0,22,0,22,0,,,,,,markot,nw,h,lower,,,,,,,1,nw,HiDemTar,h,1,0.7218663822859526,,,,,,,,,,,,,,,,,,,377,2023-11-13_16h11.46.432,leap3,2022.2.5,59.96984288418229,
,,,,,,,,,,,,,,,,,,,,8,0,8,0,23,0,23,0,,,,,,etuip,nw,h,lower,,,,,,,1,nw,HiDemTar,h,1,0.5000311583280563,,,,,,,,,,,,,,,,,,,377,2023-11-13_16h11.46.432,leap3,2022.2.5,59.96984288418229,
,,,,,,,,,,,,,,,,,,,,8,0,8,0,24,0,24,0,,,,,,movie,w,g,lower,,,,,,,1,nw,HiDemTar,g,1,0.49483732506632805,,,,,,,,,,,,,,,,,,,377,2023-11-13_16h11.46.432,leap3,2022.2.5,59.96984288418229,
,,,,,,,,,,,,,,,,,,,,8,0,8,0,25,0,25,0,,,,,,twenties,w,g,lower,,,,,,,1,w,HiDemTar,g,1,0.5205976106226444,,,,,,,,,,,,,,,,,,,377,2023-11-13_16h11.46.432,leap3,2022.2.5,59.96984288418229,
,,,,,,,,,,,,,,,,,,,,8,0,8,0,26,0,26,0,,,,,,visible,w,g,lower,,,,,,,1,w,HiDemTar,g,1,0.3947596913203597,,,,,,,,,,,,,,,,,,,377,2023-11-13_16h11.46.432,leap3,2022.2.5,59.96984288418229,
,,,,,,,,,,,,,,,,,,,,8,0,8,0,27,0,27,0,,,,,,kiner,nw,h,lower,,,,,,,1,w,HiDemTar,h,1,0.49630579724907875,,,,,,,,,,,,,,,,,,,377,2023-11-13_16h11.46.432,leap3,2022.2.5,59.96984288418229,
,,,,,,,,,,,,,,,,,,,,8,0,8,0,28,0,28,0,,,,,,inside,w,g,lower,,,,,,,1,nw,HiDemTar,g,1,0.50696602743119,,,,,,,,,,,,,,,,,,,377,2023-11-13_16h11.46.432,leap3,2022.2.5,59.96984288418229,
,,,,,,,,,,,,,,,,,,,,8,0,8,0,29,0,29,0,,,,,,cabinet,w,g,lower,,,,,,,1,w,HiDemTar,g,1,0.5650520091876388,,,,,,,,,,,,,,,,,,,377,2023-11-13_16h11.46.432,leap3,2022.2.5,59.96984288418229,
,,,,,,,,,,,,,,,,,,,,8,0,8,0,,,,,,,,,,,,,,,,,,,,,,,,,,1,,,,,,,,,,,,,,,,,,377,2023-11-13_16h11.46.432,leap3,2022.2.5,59.96984288418229,
,,,,,,,,,,,,,,,,,,,,9,0,9,0,0,0,0,0,,,,,,atabaster,nw,h,lower,,,,,,,1,nw,HiDemTar,h,1,0.4854520848020911,,,,,,,,,,,,,,,,,,,377,2023-11-13_16h11.46.432,leap3,2022.2.5,59.96984288418229,
,,,,,,,,,,,,,,,,,,,,9,0,9,0,1,0,1,0,,,,,,fallacy,w,g,lower,,,,,,,1,w,HiDemTar,h,0,0.39991005789488554,,,,,,,,,,,,,,,,,,,377,2023-11-13_16h11.46.432,leap3,2022.2.5,59.96984288418229,
,,,,,,,,,,,,,,,,,,,,9,0,9,0,2,0,2,0,,,,,,ready,w,g,lower,,,,,,,1,w,HiDemTar,g,1,0.43145699705928564,,,,,,,,,,,,,,,,,,,377,2023-11-13_16h11.46.432,leap3,2022.2.5,59.96984288418229,
,,,,,,,,,,,,,,,,,,,,9,0,9,0,3,0,3,0,,,,,,usage,w,g,lower,,,,,,,1,w,HiDemTar,g,1,0.4198215091601014,,,,,,,,,,,,,,,,,,,377,2023-11-13_16h11.46.432,leap3,2022.2.5,59.96984288418229,
,,,,,,,,,,,,,,,,,,,,9,0,9,0,4,0,4,0,,,,,,nomma,nw,h,lower,,,,,,,1,nw,HiDemTar,h,1,0.5450611738488078,,,,,,,,,,,,,,,,,,,377,2023-11-13_16h11.46.432,leap3,2022.2.5,59.96984288418229,
,,,,,,,,,,,,,,,,,,,,9,0,9,0,5,0,5,0,,,,,,facienda,nw,h,lower,,,,,,,1,nw,HiDemTar,h,1,0.5456742187961936,,,,,,,,,,,,,,,,,,,377,2023-11-13_16h11.46.432,leap3,2022.2.5,59.96984288418229,
,,,,,,,,,,,,,,,,,,,,9,0,9,0,6,0,6,0,,,,,,border,w,g,lower,,,,,,,1,w,HiDemTar,g,1,0.4505513561889529,,,,,,,,,,,,,,,,,,,377,2023-11-13_16h11.46.432,leap3,2022.2.5,59.96984288418229,
,,,,,,,,,,,,,,,,,,,,9,0,9,0,7,0,7,0,,,,,,dricked,nw,h,lower,,,,,,,1,nw,HiDemTar,h,1,0.5110306609421968,,,,,,,,,,,,,,,,,,,377,2023-11-13_16h11.46.432,leap3,2022.2.5,59.96984288418229,
,,,,,,,,,,,,,,,,,,,,9,0,9,0,8,0,8,0,,,,,,pigned,nw,h,lower,,,,,,,1,nw,HiDemTar,h,1,0.6410156162455678,,,,,,,,,,,,,,,,,,,377,2023-11-13_16h11.46.432,leap3,2022.2.5,59.96984288418229,
,,,,,,,,,,,,,,,,,,,,9,0,9,0,9,0,9,0,,,,,,newstrint,nw,h,lower,,,,,,,1,nw,HiDemTar,h,1,0.5177059443667531,,,,,,,,,,,,,,,,,,,377,2023-11-13_16h11.46.432,leap3,2022.2.5,59.96984288418229,
,,,,,,,,,,,,,,,,,,,,9,0,9,0,10,0,10,0,,,,,,mosary,nw,h,lower,,,,,,,1,nw,HiDemTar,h,1,0.47160196769982576,,,,,,,,,,,,,,,,,,,377,2023-11-13_16h11.46.432,leap3,2022.2.5,59.96984288418229,
,,,,,,,,,,,,,,,,,,,,9,0,9,0,11,0,11,0,,,,,,overflow,w,g,lower,,,,,,,1,w,HiDemTar,g,1,0.45101619604974985,,,,,,,,,,,,,,,,,,,377,2023-11-13_16h11.46.432,leap3,2022.2.5,59.96984288418229,
,,,,,,,,,,,,,,,,,,,,9,0,9,0,12,0,12,0,,,,,,elderly,w,g,lower,,,,,,,1,w,HiDemTar,g,1,0.510329476557672,,,,,,,,,,,,,,,,,,,377,2023-11-13_16h11.46.432,leap3,2022.2.5,59.96984288418229,
,,,,,,,,,,,,,,,,,,,,9,0,9,0,13,0,13,0,,,,,,dorte,nw,h,lower,,,,,,,1,nw,HiDemTar,h,1,0.46342108491808176,,,,,,,,,,,,,,,,,,,377,2023-11-13_16h11.46.432,leap3,2022.2.5,59.96984288418229,
,,,,,,,,,,,,,,,,,,,,9,0,9,0,14,0,14,0,,,,,,halter,w,g,lower,,,,,,,1,w,HiDemTar,h,0,0.451591813005507,,,,,,,,,,,,,,,,,,,377,2023-11-13_16h11.46.432,leap3,2022.2.5,59.96984288418229,
,,,,,,,,,,,,,,,,,,,,9,0,9,0,15,0,15,0,,,,,,cutout,w,g,lower,,,,,,,1,w,HiDemTar,g,1,0.44880488608032465,,,,,,,,,,,,,,,,,,,377,2023-11-13_16h11.46.432,leap3,2022.2.5,59.96984288418229,
,,,,,,,,,,,,,,,,,,,,9,0,9,0,16,0,16,0,,,,,,blipover,nw,h,lower,,,,,,,1,nw,HiDemTar,h,1,0.5898134922608733,,,,,,,,,,,,,,,,,,,377,2023-11-13_16h11.46.432,leap3,2022.2.5,59.96984288418229,
,,,,,,,,,,,,,,,,,,,,9,0,9,0,17,0,17,0,,,,,,virulent,w,g,lower,,,,,,,1,w,HiDemTar,g,1,0.7804501056671143,,,,,,,,,,,,,,,,,,,377,2023-11-13_16h11.46.432,leap3,2022.2.5,59.96984288418229,
,,,,,,,,,,,,,,,,,,,,9,0,9,0,18,0,18,0,,,,,,attended,w,g,lower,,,,,,,1,w,HiDemTar,g,1,0.4517197944223881,,,,,,,,,,,,,,,,,,,377,2023-11-13_16h11.46.432,leap3,2022.2.5,59.96984288418229,
,,,,,,,,,,,,,,,,,,,,9,0,9,0,19,0,19,0,,,,,,cobalt,w,g,lower,,,,,,,1,w,HiDemTar,g,1,0.6403575958684087,,,,,,,,,,,,,,,,,,,377,2023-11-13_16h11.46.432,leap3,2022.2.5,59.96984288418229,
,,,,,,,,,,,,,,,,,,,,9,0,9,0,20,0,20,0,,,,,,criminal,w,g,lower,,,,,,,1,w,HiDemTar,g,1,0.5010049073025584,,,,,,,,,,,,,,,,,,,377,2023-11-13_16h11.46.432,leap3,2022.2.5,59.96984288418229,
,,,,,,,,,,,,,,,,,,,,9,0,9,0,21,0,21,0,,,,,,clattest,nw,h,lower,,,,,,,1,nw,HiDemTar,h,1,0.638853507116437,,,,,,,,,,,,,,,,,,,377,2023-11-13_16h11.46.432,leap3,2022.2.5,59.96984288418229,
,,,,,,,,,,,,,,,,,,,,9,0,9,0,22,0,22,0,,,,,,dislokes,nw,h,lower,,,,,,,1,nw,HiDemTar,h,1,0.6834512809291482,,,,,,,,,,,,,,,,,,,377,2023-11-13_16h11.46.432,leap3,2022.2.5,59.96984288418229,
,,,,,,,,,,,,,,,,,,,,9,0,9,0,23,0,23,0,,,,,,describe,w,g,lower,,,,,,,1,w,HiDemTar,g,1,0.4946079244837165,,,,,,,,,,,,,,,,,,,377,2023-11-13_16h11.46.432,leap3,2022.2.5,59.96984288418229,
,,,,,,,,,,,,,,,,,,,,9,0,9,0,24,0,24,0,,,,,,plymie,nw,h,lower,,,,,,,1,nw,HiDemTar,h,1,0.6732468362897635,,,,,,,,,,,,,,,,,,,377,2023-11-13_16h11.46.432,leap3,2022.2.5,59.96984288418229,
,,,,,,,,,,,,,,,,,,,,9,0,9,0,25,0,25,0,,,,,,butled,nw,h,lower,,,,,,,1,nw,HiDemTar,h,1,0.7005081931129098,,,,,,,,,,,,,,,,,,,377,2023-11-13_16h11.46.432,leap3,2022.2.5,59.96984288418229,
,,,,,,,,,,,,,,,,,,,,9,0,9,0,26,0,26,0,,,,,,gigoho,nw,h,lower,,,,,,,1,nw,HiDemTar,h,1,0.4792048176750541,,,,,,,,,,,,,,,,,,,377,2023-11-13_16h11.46.432,leap3,2022.2.5,59.96984288418229,
,,,,,,,,,,,,,,,,,,,,9,0,9,0,27,0,27,0,,,,,,octopus,target,q,lower,,,,,,,1,target,HiDemTar,q,1,0.7144944425672293,,1,,,,,,,,,,,,,,,,,377,2023-11-13_16h11.46.432,leap3,2022.2.5,59.96984288418229,
,,,,,,,,,,,,,,,,,,,,9,0,9,0,28,0,28,0,,,,,,igiom,nw,h,lower,,,,,,,1,aftertar1,HiDemTar,h,1,0.6685371622443199,,,,,,,,,,,,,,,,,,,377,2023-11-13_16h11.46.432,leap3,2022.2.5,59.96984288418229,
,,,,,,,,,,,,,,,,,,,,9,0,9,0,29,0,29,0,,,,,,hubris,w,g,lower,,,,,,,1,aftertar2,HiDemTar,g,1,0.624490856193006,,,,,,,,,,,,,,,,,,,377,2023-11-13_16h11.46.432,leap3,2022.2.5,59.96984288418229,
,,,,,,,,,,,,,,,,,,,,9,0,9,0,,,,,,,,,,,,,,,,,,,,,,,,,,1,,,,,,,,,,,,,,,,,,377,2023-11-13_16h11.46.432,leap3,2022.2.5,59.96984288418229,
,,,,,,,,,,,,,,,,,,,,10,0,10,0,0,0,0,0,,,,,,lenie,nw,h,upper,,,,,,,3,nw,LoDemNoTar,h,1,0.5094055319204926,,,,,,,,,,,,,,,,,,,377,2023-11-13_16h11.46.432,leap3,2022.2.5,59.96984288418229,
,,,,,,,,,,,,,,,,,,,,10,0,10,0,1,0,1,0,,,,,,coverall,w,g,upper,,,,,,,3,w,LoDemNoTar,g,1,0.7033645436167717,,,,,,,,,,,,,,,,,,,377,2023-11-13_16h11.46.432,leap3,2022.2.5,59.96984288418229,
,,,,,,,,,,,,,,,,,,,,10,0,10,0,2,0,2,0,,,,,,exclusion,w,g,upper,,,,,,,3,w,LoDemNoTar,g,1,0.40129522141069174,,,,,,,,,,,,,,,,,,,377,2023-11-13_16h11.46.432,leap3,2022.2.5,59.96984288418229,
,,,,,,,,,,,,,,,,,,,,10,0,10,0,3,0,3,0,,,,,,tasher,nw,h,upper,,,,,,,3,nw,LoDemNoTar,h,1,0.5827237768098712,,,,,,,,,,,,,,,,,,,377,2023-11-13_16h11.46.432,leap3,2022.2.5,59.96984288418229,
,,,,,,,,,,,,,,,,,,,,10,0,10,0,4,0,4,0,,,,,,vorm,nw,h,upper,,,,,,,3,nw,LoDemNoTar,h,1,0.7098285360261798,,,,,,,,,,,,,,,,,,,377,2023-11-13_16h11.46.432,leap3,2022.2.5,59.96984288418229,
,,,,,,,,,,,,,,,,,,,,10,0,10,0,5,0,5,0,,,,,,vaporize,w,g,upper,,,,,,,3,w,LoDemNoTar,h,0,0.5043647345155478,,,,,,,,,,,,,,,,,,,377,2023-11-13_16h11.46.432,leap3,2022.2.5,59.96984288418229,
,,,,,,,,,,,,,,,,,,,,10,0,10,0,6,0,6,0,,,,,,formation,w,g,upper,,,,,,,3,w,LoDemNoTar,g,1,0.4821595698595047,,,,,,,,,,,,,,,,,,,377,2023-11-13_16h11.46.432,leap3,2022.2.5,59.96984288418229,
,,,,,,,,,,,,,,,,,,,,10,0,10,0,7,0,7,0,,,,,,phraining,nw,h,upper,,,,,,,3,nw,LoDemNoTar,h,1,0.6693521421402693,,,,,,,,,,,,,,,,,,,377,2023-11-13_16h11.46.432,leap3,2022.2.5,59.96984288418229,
,,,,,,,,,,,,,,,,,,,,10,0,10,0,8,0,8,0,,,,,,profats,nw,h,upper,,,,,,,3,nw,LoDemNoTar,h,1,0.5845565740019083,,,,,,,,,,,,,,,,,,,377,2023-11-13_16h11.46.432,leap3,2022.2.5,59.96984288418229,
,,,,,,,,,,,,,,,,,,,,10,0,10,0,9,0,9,0,,,,,,humanize,w,g,upper,,,,,,,3,w,LoDemNoTar,g,1,0.42363651655614376,,,,,,,,,,,,,,,,,,,377,2023-11-13_16h11.46.432,leap3,2022.2.5,59.96984288418229,
,,,,,,,,,,,,,,,,,,,,10,0,10,0,10,0,10,0,,,,,,elbalm,nw,h,upper,,,,,,,3,nw,LoDemNoTar,h,1,0.5491547835990787,,,,,,,,,,,,,,,,,,,377,2023-11-13_16h11.46.432,leap3,2022.2.5,59.96984288418229,
,,,,,,,,,,,,,,,,,,,,10,0,10,0,11,0,11,0,,,,,,halms,nw,h,upper,,,,,,,3,nw,LoDemNoTar,h,1,0.5257733324542642,,,,,,,,,,,,,,,,,,,377,2023-11-13_16h11.46.432,leap3,2022.2.5,59.96984288418229,
,,,,,,,,,,,,,,,,,,,,10,0,10,0,12,0,12,0,,,,,,footstep,w,g,upper,,,,,,,3,w,LoDemNoTar,g,1,0.48715750500559807,,,,,,,,,,,,,,,,,,,377,2023-11-13_16h11.46.432,leap3,2022.2.5,59.96984288418229,
,,,,,,,,,,,,,,,,,,,,10,0,10,0,13,0,13,0,,,,,,ghists,nw,h,upper,,,,,,,3,nw,LoDemNoTar,h,1,0.48163828533142805,,,,,,,,,,,,,,,,,,,377,2023-11-13_16h11.46.432,leap3,2022.2.5,59.96984288418229,
,,,,,,,,,,,,,,,,,,,,10,0,10,0,14,0,14,0,,,,,,rivet,w,g,upper,,,,,,,3,w,LoDemNoTar,g,1,0.7409993782639503,,,,,,,,,,,,,,,,,,,377,2023-11-13_16h11.46.432,leap3,2022.2.5,59.96984288418229,
,,,,,,,,,,,,,,,,,,,,10,0,10,0,15,0,15,0,,,,,,smabled,nw,h,upper,,,,,,,3,nw,LoDemNoTar,h,1,0.5656451331451535,,,,,,,,,,,,,,,,,,,377,2023-11-13_16h11.46.432,leap3,2022.2.5,59.96984288418229,
,,,,,,,,,,,,,,,,,,,,10,0,10,0,16,0,16,0,,,,,,dumult,nw,h,upper,,,,,,,3,nw,LoDemNoTar,h,1,0.5655835568904877,,,,,,,,,,,,,,,,,,,377,2023-11-13_16h11.46.432,leap3,2022.2.5,59.96984288418229,
,,,,,,,,,,,,,,,,,,,,10,0,10,0,17,0,17,0,,,,,,hindsight,w,g,upper,,,,,,,3,w,LoDemNoTar,g,1,0.5325781060382724,,,,,,,,,,,,,,,,,,,377,2023-11-13_16h11.46.432,leap3,2022.2.5,59.96984288418229,
,,,,,,,,,,,,,,,,,,,,10,0,10,0,18,0,18,0,,,,,,confined,w,g,upper,,,,,,,3,w,LoDemNoTar,g,1,0.3820260940119624,,,,,,,,,,,,,,,,,,,377,2023-11-13_16h11.46.432,leap3,2022.2.5,59.96984288418229,
,,,,,,,,,,,,,,,,,,,,10,0,10,0,19,0,19,0,,,,,,dentures,w,g,upper,,,,,,,3,w,LoDemNoTar,h,0,0.47721687238663435,,,,,,,,,,,,,,,,,,,377,2023-11-13_16h11.46.432,leap3,2022.2.5,59.96984288418229,
,,,,,,,,,,,,,,,,,,,,10,0,10,0,20,0,20,0,,,,,,harmful,w,g,upper,,,,,,,3,w,LoDemNoTar,g,1,0.39252091385424137,,,,,,,,,,,,,,,,,,,377,2023-11-13_16h11.46.432,leap3,2022.2.5,59.96984288418229,
,,,,,,,,,,,,,,,,,,,,10,0,10,0,21,0,21,0,,,,,,extruded,w,g,upper,,,,,,,3,w,LoDemNoTar,g,1,0.41523800510913134,,,,,,,,,,,,,,,,,,,377,2023-11-13_16h11.46.432,leap3,2022.2.5,59.96984288418229,
,,,,,,,,,,,,,,,,,,,,10,0,10,0,22,0,22,0,,,,,,nature,w,g,upper,,,,,,,3,w,LoDemNoTar,g,1,0.3891659155488014,,,,,,,,,,,,,,,,,,,377,2023-11-13_16h11.46.432,leap3,2022.2.5,59.96984288418229,
,,,,,,,,,,,,,,,,,,,,10,0,10,0,23,0,23,0,,,,,,earmaff,nw,h,upper,,,,,,,3,nw,LoDemNoTar,h,1,0.5718637257814407,,,,,,,,,,,,,,,,,,,377,2023-11-13_16h11.46.432,leap3,2022.2.5,59.96984288418229,
,,,,,,,,,,,,,,,,,,,,10,0,10,0,24,0,24,0,,,,,,actively,w,g,upper,,,,,,,3,w,LoDemNoTar,g,1,0.42713006120175123,,,,,,,,,,,,,,,,,,,377,2023-11-13_16h11.46.432,leap3,2022.2.5,59.96984288418229,
,,,,,,,,,,,,,,,,,,,,10,0,10,0,25,0,25,0,,,,,,unamufed,nw,h,upper,,,,,,,3,nw,LoDemNoTar,h,1,0.6083986405283213,,,,,,,,,,,,,,,,,,,377,2023-11-13_16h11.46.432,leap3,2022.2.5,59.96984288418229,
,,,,,,,,,,,,,,,,,,,,10,0,10,0,26,0,26,0,,,,,,talate,nw,h,upper,,,,,,,3,nw,LoDemNoTar,h,1,0.5334857515990734,,,,,,,,,,,,,,,,,,,377,2023-11-13_16h11.46.432,leap3,2022.2.5,59.96984288418229,
,,,,,,,,,,,,,,,,,,,,10,0,10,0,27,0,27,0,,,,,,glattery,nw,h,upper,,,,,,,3,nw,LoDemNoTar,h,1,0.6147790215909481,,,,,,,,,,,,,,,,,,,377,2023-11-13_16h11.46.432,leap3,2022.2.5,59.96984288418229,
,,,,,,,,,,,,,,,,,,,,10,0,10,0,28,0,28,0,,,,,,bedding,w,g,upper,,,,,,,3,w,LoDemNoTar,g,1,0.5167201207950711,,,,,,,,,,,,,,,,,,,377,2023-11-13_16h11.46.432,leap3,2022.2.5,59.96984288418229,
,,,,,,,,,,,,,,,,,,,,10,0,10,0,29,0,29,0,,,,,,volder,nw,h,upper,,,,,,,3,nw,LoDemNoTar,h,1,0.5654954183846712,,,,,,,,,,,,,,,,,,,377,2023-11-13_16h11.46.432,leap3,2022.2.5,59.96984288418229,
,,,,,,,,,,,,,,,,,,,,10,0,10,0,,,,,,,,,,,,,,,,,,,,,,,,,,NA,,,,,,,,,,,,,,,,,,377,2023-11-13_16h11.46.432,leap3,2022.2.5,59.96984288418229,
,,,,,,,,,,,,,,,,,,,,11,0,11,0,0,0,0,0,,,,,,legalize,w,g,upper,,,,,,,4,w,LoDemTar,g,1,0.5423337090760469,,,,,,,,,,,,,,,,,,,377,2023-11-13_16h11.46.432,leap3,2022.2.5,59.96984288418229,
,,,,,,,,,,,,,,,,,,,,11,0,11,0,1,0,1,0,,,,,,antique,w,g,upper,,,,,,,4,w,LoDemTar,g,1,0.45379255805164576,,,,,,,,,,,,,,,,,,,377,2023-11-13_16h11.46.432,leap3,2022.2.5,59.96984288418229,
,,,,,,,,,,,,,,,,,,,,11,0,11,0,2,0,2,0,,,,,,sopes,nw,h,upper,,,,,,,4,nw,LoDemTar,h,1,0.4989849664270878,,,,,,,,,,,,,,,,,,,377,2023-11-13_16h11.46.432,leap3,2022.2.5,59.96984288418229,
,,,,,,,,,,,,,,,,,,,,11,0,11,0,3,0,3,0,,,,,,nores,nw,h,upper,,,,,,,4,nw,LoDemTar,h,1,0.5565291382372379,,,,,,,,,,,,,,,,,,,377,2023-11-13_16h11.46.432,leap3,2022.2.5,59.96984288418229,
,,,,,,,,,,,,,,,,,,,,11,0,11,0,4,0,4,0,,,,,,trecious,nw,h,upper,,,,,,,4,nw,LoDemTar,h,1,0.7166813034564257,,,,,,,,,,,,,,,,,,,377,2023-11-13_16h11.46.432,leap3,2022.2.5,59.96984288418229,
,,,,,,,,,,,,,,,,,,,,11,0,11,0,5,0,5,0,,,,,,turntable,w,g,upper,,,,,,,4,w,LoDemTar,g,1,0.5746539738029242,,,,,,,,,,,,,,,,,,,377,2023-11-13_16h11.46.432,leap3,2022.2.5,59.96984288418229,
,,,,,,,,,,,,,,,,,,,,11,0,11,0,6,0,6,0,,,,,,uncorked,w,g,upper,,,,,,,4,w,LoDemTar,g,1,0.789877905510366,,,,,,,,,,,,,,,,,,,377,2023-11-13_16h11.46.432,leap3,2022.2.5,59.96984288418229,
,,,,,,,,,,,,,,,,,,,,11,0,11,0,7,0,7,0,,,,,,snife,nw,h,upper,,,,,,,4,nw,LoDemTar,h,1,0.5885182786732912,,,,,,,,,,,,,,,,,,,377,2023-11-13_16h11.46.432,leap3,2022.2.5,59.96984288418229,
,,,,,,,,,,,,,,,,,,,,11,0,11,0,8,0,8,0,,,,,,require,w,g,upper,,,,,,,4,w,LoDemTar,g,1,0.41913088969886303,,,,,,,,,,,,,,,,,,,377,2023-11-13_16h11.46.432,leap3,2022.2.5,59.96984288418229,
,,,,,,,,,,,,,,,,,,,,11,0,11,0,9,0,9,0,,,,,,nimono,nw,h,upper,,,,,,,4,nw,LoDemTar,h,1,0.48051150143146515,,,,,,,,,,,,,,,,,,,377,2023-11-13_16h11.46.432,leap3,2022.2.5,59.96984288418229,
,,,,,,,,,,,,,,,,,,,,11,0,11,0,10,0,10,0,,,,,,prillway,nw,h,upper,,,,,,,4,nw,LoDemTar,h,1,0.5237672766670585,,,,,,,,,,,,,,,,,,,377,2023-11-13_16h11.46.432,leap3,2022.2.5,59.96984288418229,
,,,,,,,,,,,,,,,,,,,,11,0,11,0,11,0,11,0,,,,,,encrusted,w,g,upper,,,,,,,4,w,LoDemTar,g,1,0.47617822606116533,,,,,,,,,,,,,,,,,,,377,2023-11-13_16h11.46.432,leap3,2022.2.5,59.96984288418229,
,,,,,,,,,,,,,,,,,,,,11,0,11,0,12,0,12,0,,,,,,terming,w,g,upper,,,,,,,4,w,LoDemTar,g,1,0.5194282662123442,,,,,,,,,,,,,,,,,,,377,2023-11-13_16h11.46.432,leap3,2022.2.5,59.96984288418229,
,,,,,,,,,,,,,,,,,,,,11,0,11,0,13,0,13,0,,,,,,galashes,nw,h,upper,,,,,,,4,nw,LoDemTar,h,1,0.528832221403718,,,,,,,,,,,,,,,,,,,377,2023-11-13_16h11.46.432,leap3,2022.2.5,59.96984288418229,
,,,,,,,,,,,,,,,,,,,,11,0,11,0,14,0,14,0,,,,,,volition,w,g,upper,,,,,,,4,w,LoDemTar,g,1,0.5140192192047834,,,,,,,,,,,,,,,,,,,377,2023-11-13_16h11.46.432,leap3,2022.2.5,59.96984288418229,
,,,,,,,,,,,,,,,,,,,,11,0,11,0,15,0,15,0,,,,,,lasprey,nw,h,upper,,,,,,,4,nw,LoDemTar,h,1,0.5638769306242466,,,,,,,,,,,,,,,,,,,377,2023-11-13_16h11.46.432,leap3,2022.2.5,59.96984288418229,
,,,,,,,,,,,,,,,,,,,,11,0,11,0,16,0,16,0,,,,,,chight,nw,h,upper,,,,,,,4,nw,LoDemTar,h,1,0.64369086176157,,,,,,,,,,,,,,,,,,,377,2023-11-13_16h11.46.432,leap3,2022.2.5,59.96984288418229,
,,,,,,,,,,,,,,,,,,,,11,0,11,0,17,0,17,0,,,,,,epic,w,g,upper,,,,,,,4,w,LoDemTar,g,1,0.45617652405053377,,,,,,,,,,,,,,,,,,,377,2023-11-13_16h11.46.432,leap3,2022.2.5,59.96984288418229,
,,,,,,,,,,,,,,,,,,,,11,0,11,0,18,0,18,0,,,,,,deserve,w,g,upper,,,,,,,4,w,LoDemTar,g,1,0.40406252816319466,,,,,,,,,,,,,,,,,,,377,2023-11-13_16h11.46.432,leap3,2022.2.5,59.96984288418229,
,,,,,,,,,,,,,,,,,,,,11,0,11,0,19,0,19,0,,,,,,dests,nw,h,upper,,,,,,,4,nw,LoDemTar,h,1,0.5287111811339855,,,,,,,,,,,,,,,,,,,377,2023-11-13_16h11.46.432,leap3,2022.2.5,59.96984288418229,
,,,,,,,,,,,,,,,,,,,,11,0,11,0,20,0,20,0,,,,,,ecistle,nw,h,upper,,,,,,,4,nw,LoDemTar,h,1,0.5300788367167115,,,,,,,,,,,,,,,,,,,377,2023-11-13_16h11.46.432,leap3,2022.2.5,59.96984288418229,
,,,,,,,,,,,,,,,,,,,,11,0,11,0,21,0,21,0,,,,,,gonesty,nw,h,upper,,,,,,,4,nw,LoDemTar,h,1,0.5470572682097554,,,,,,,,,,,,,,,,,,,377,2023-11-13_16h11.46.432,leap3,2022.2.5,59.96984288418229,
,,,,,,,,,,,,,,,,,,,,11,0,11,0,22,0,22,0,,,,,,brials,nw,h,upper,,,,,,,4,nw,LoDemTar,h,1,0.8522660722956061,,,,,,,,,,,,,,,,,,,377,2023-11-13_16h11.46.432,leap3,2022.2.5,59.96984288418229,
,,,,,,,,,,,,,,,,,,,,11,0,11,0,23,0,23,0,,,,,,postal,w,g,upper,,,,,,,4,w,LoDemTar,h,0,0.5207376657053828,,,,,,,,,,,,,,,,,,,377,2023-11-13_16h11.46.432,leap3,2022.2.5,59.96984288418229,
,,,,,,,,,,,,,,,,,,,,11,0,11,0,24,0,24,0,,,,,,govern,w,g,upper,,,,,,,4,w,LoDemTar,g,1,0.489833353087306,,,,,,,,,,,,,,,,,,,377,2023-11-13_16h11.46.432,leap3,2022.2.5,59.96984288418229,
,,,,,,,,,,,,,,,,,,,,11,0,11,0,25,0,25,0,,,,,,ladybug,target,q,upper,,,,,,,4,target,LoDemTar,g,0,0.5883263051509857,,1,1,,,,,,,,,,,,,,,,377,2023-11-13_16h11.46.432,leap3,2022.2.5,59.96984288418229,
,,,,,,,,,,,,,,,,,,,,11,0,11,0,26,0,26,0,,,,,,ascending,w,g,upper,,,,,,,4,aftertar1,LoDemTar,g,1,0.5309478463605046,,,,,,,,,,,,,,,,,,,377,2023-11-13_16h11.46.432,leap3,2022.2.5,59.96984288418229,
,,,,,,,,,,,,,,,,,,,,11,0,11,0,27,0,27,0,,,,,,cegalia,nw,h,upper,,,,,,,4,aftertar2,LoDemTar,h,1,0.5322789791971445,,,,,,,,,,,,,,,,,,,377,2023-11-13_16h11.46.432,leap3,2022.2.5,59.96984288418229,
,,,,,,,,,,,,,,,,,,,,11,0,11,0,28,0,28,0,,,,,,hasks,nw,h,upper,,,,,,,4,aftertar3,LoDemTar,h,1,0.6934975599870086,,,,,,,,,,,,,,,,,,,377,2023-11-13_16h11.46.432,leap3,2022.2.5,59.96984288418229,
,,,,,,,,,,,,,,,,,,,,11,0,11,0,29,0,29,0,,,,,,entitle,w,g,upper,,,,,,,4,nw,LoDemTar,g,1,0.44823741912841797,,,,,,,,,,,,,,,,,,,377,2023-11-13_16h11.46.432,leap3,2022.2.5,59.96984288418229,
,,,,,,,,,,,,,,,,,,,,11,0,11,0,,,,,,,,,,,,,,,,,,,,,,,,,,1,,,,,,,,,,,,,,,,,,377,2023-11-13_16h11.46.432,leap3,2022.2.5,59.96984288418229,
,,,,,,,,,,,,,,,,,,,,12,0,12,0,0,0,0,0,,,,,,index,w,g,lower,,,,,,,2,w,HiDemNoTar,g,1,0.4362517911940813,,,,,,,,,,,,,,,,,,,377,2023-11-13_16h11.46.432,leap3,2022.2.5,59.96984288418229,
,,,,,,,,,,,,,,,,,,,,12,0,12,0,1,0,1,0,,,,,,lofty,w,g,lower,,,,,,,2,w,HiDemNoTar,g,1,0.520902774296701,,,,,,,,,,,,,,,,,,,377,2023-11-13_16h11.46.432,leap3,2022.2.5,59.96984288418229,
,,,,,,,,,,,,,,,,,,,,12,0,12,0,2,0,2,0,,,,,,stooping,w,g,lower,,,,,,,2,w,HiDemNoTar,g,1,0.4742316324263811,,,,,,,,,,,,,,,,,,,377,2023-11-13_16h11.46.432,leap3,2022.2.5,59.96984288418229,
,,,,,,,,,,,,,,,,,,,,12,0,12,0,3,0,3,0,,,,,,addition,w,g,lower,,,,,,,2,w,HiDemNoTar,g,1,0.3735276721417904,,,,,,,,,,,,,,,,,,,377,2023-11-13_16h11.46.432,leap3,2022.2.5,59.96984288418229,
,,,,,,,,,,,,,,,,,,,,12,0,12,0,4,0,4,0,,,,,,maintain,w,g,lower,,,,,,,2,w,HiDemNoTar,g,1,0.39684603828936815,,,,,,,,,,,,,,,,,,,377,2023-11-13_16h11.46.432,leap3,2022.2.5,59.96984288418229,
,,,,,,,,,,,,,,,,,,,,12,0,12,0,5,0,5,0,,,,,,owner,w,g,lower,,,,,,,2,w,HiDemNoTar,g,1,0.41154433880001307,,,,,,,,,,,,,,,,,,,377,2023-11-13_16h11.46.432,leap3,2022.2.5,59.96984288418229,
,,,,,,,,,,,,,,,,,,,,12,0,12,0,6,0,6,0,,,,,,roughly,w,g,lower,,,,,,,2,w,HiDemNoTar,g,1,0.39350703824311495,,,,,,,,,,,,,,,,,,,377,2023-11-13_16h11.46.432,leap3,2022.2.5,59.96984288418229,
,,,,,,,,,,,,,,,,,,,,12,0,12,0,7,0,7,0,,,,,,dehydrate,w,g,lower,,,,,,,2,w,HiDemNoTar,g,1,0.4321602936834097,,,,,,,,,,,,,,,,,,,377,2023-11-13_16h11.46.432,leap3,2022.2.5,59.96984288418229,
,,,,,,,,,,,,,,,,,,,,12,0,12,0,8,0,8,0,,,,,,finstrel,nw,h,lower,,,,,,,2,nw,HiDemNoTar,g,0,0.3884789180010557,,,,,,,,,,,,,,,,,,,377,2023-11-13_16h11.46.432,leap3,2022.2.5,59.96984288418229,
,,,,,,,,,,,,,,,,,,,,12,0,12,0,9,0,9,0,,,,,,mitro,nw,h,lower,,,,,,,2,nw,HiDemNoTar,h,1,0.6030810521915555,,,,,,,,,,,,,,,,,,,377,2023-11-13_16h11.46.432,leap3,2022.2.5,59.96984288418229,
,,,,,,,,,,,,,,,,,,,,12,0,12,0,10,0,10,0,,,,,,caloric,w,g,lower,,,,,,,2,w,HiDemNoTar,g,1,0.5442428737878799,,,,,,,,,,,,,,,,,,,377,2023-11-13_16h11.46.432,leap3,2022.2.5,59.96984288418229,
,,,,,,,,,,,,,,,,,,,,12,0,12,0,11,0,11,0,,,,,,tusied,nw,h,lower,,,,,,,2,nw,HiDemNoTar,h,1,0.5371703635901213,,,,,,,,,,,,,,,,,,,377,2023-11-13_16h11.46.432,leap3,2022.2.5,59.96984288418229,
,,,,,,,,,,,,,,,,,,,,12,0,12,0,12,0,12,0,,,,,,mabit,nw,h,lower,,,,,,,2,nw,HiDemNoTar,h,1,0.5465039880946279,,,,,,,,,,,,,,,,,,,377,2023-11-13_16h11.46.432,leap3,2022.2.5,59.96984288418229,
,,,,,,,,,,,,,,,,,,,,12,0,12,0,13,0,13,0,,,,,,fisco,nw,h,lower,,,,,,,2,nw,HiDemNoTar,h,1,0.6193733913823962,,,,,,,,,,,,,,,,,,,377,2023-11-13_16h11.46.432,leap3,2022.2.5,59.96984288418229,
,,,,,,,,,,,,,,,,,,,,12,0,12,0,14,0,14,0,,,,,,sliding,w,g,lower,,,,,,,2,w,HiDemNoTar,g,1,0.4885894535109401,,,,,,,,,,,,,,,,,,,377,2023-11-13_16h11.46.432,leap3,2022.2.5,59.96984288418229,
,,,,,,,,,,,,,,,,,,,,12,0,12,0,15,0,15,0,,,,,,otoist,nw,h,lower,,,,,,,2,nw,HiDemNoTar,h,1,0.5152552705258131,,,,,,,,,,,,,,,,,,,377,2023-11-13_16h11.46.432,leap3,2022.2.5,59.96984288418229,
,,,,,,,,,,,,,,,,,,,,12,0,12,0,16,0,16,0,,,,,,harder,w,g,lower,,,,,,,2,w,HiDemNoTar,g,1,0.4692587507888675,,,,,,,,,,,,,,,,,,,377,2023-11-13_16h11.46.432,leap3,2022.2.5,59.96984288418229,
,,,,,,,,,,,,,,,,,,,,12,0,12,0,17,0,17,0,,,,,,mullet,w,g,lower,,,,,,,2,w,HiDemNoTar,g,1,0.624564808793366,,,,,,,,,,,,,,,,,,,377,2023-11-13_16h11.46.432,leap3,2022.2.5,59.96984288418229,
,,,,,,,,,,,,,,,,,,,,12,0,12,0,18,0,18,0,,,,,,donastic,nw,h,lower,,,,,,,2,nw,HiDemNoTar,h,1,0.5329216048121452,,,,,,,,,,,,,,,,,,,377,2023-11-13_16h11.46.432,leap3,2022.2.5,59.96984288418229,
,,,,,,,,,,,,,,,,,,,,12,0,12,0,19,0,19,0,,,,,,intrude,w,g,lower,,,,,,,2,w,HiDemNoTar,g,1,0.494223072193563,,,,,,,,,,,,,,,,,,,377,2023-11-13_16h11.46.432,leap3,2022.2.5,59.96984288418229,
,,,,,,,,,,,,,,,,,,,,12,0,12,0,20,0,20,0,,,,,,saturate,w,g,lower,,,,,,,2,w,HiDemNoTar,g,1,0.49680746253579855,,,,,,,,,,,,,,,,,,,377,2023-11-13_16h11.46.432,leap3,2022.2.5,59.96984288418229,
,,,,,,,,,,,,,,,,,,,,12,0,12,0,21,0,21,0,,,,,,ottans,nw,h,lower,,,,,,,2,nw,HiDemNoTar,h,1,0.4994993079453707,,,,,,,,,,,,,,,,,,,377,2023-11-13_16h11.46.432,leap3,2022.2.5,59.96984288418229,
,,,,,,,,,,,,,,,,,,,,12,0,12,0,22,0,22,0,,,,,,louches,nw,h,lower,,,,,,,2,nw,HiDemNoTar,h,1,0.5420892164111137,,,,,,,,,,,,,,,,,,,377,2023-11-13_16h11.46.432,leap3,2022.2.5,59.96984288418229,
,,,,,,,,,,,,,,,,,,,,12,0,12,0,23,0,23,0,,,,,,latirizes,nw,h,lower,,,,,,,2,nw,HiDemNoTar,h,1,0.49476277083158493,,,,,,,,,,,,,,,,,,,377,2023-11-13_16h11.46.432,leap3,2022.2.5,59.96984288418229,
,,,,,,,,,,,,,,,,,,,,12,0,12,0,24,0,24,0,,,,,,kickoff,w,g,lower,,,,,,,2,w,HiDemNoTar,g,1,0.5294226286932826,,,,,,,,,,,,,,,,,,,377,2023-11-13_16h11.46.432,leap3,2022.2.5,59.96984288418229,
,,,,,,,,,,,,,,,,,,,,12,0,12,0,25,0,25,0,,,,,,thacked,nw,h,lower,,,,,,,2,nw,HiDemNoTar,h,1,0.5467394264414907,,,,,,,,,,,,,,,,,,,377,2023-11-13_16h11.46.432,leap3,2022.2.5,59.96984288418229,
,,,,,,,,,,,,,,,,,,,,12,0,12,0,26,0,26,0,,,,,,dileting,nw,h,lower,,,,,,,2,nw,HiDemNoTar,h,1,0.6025398448109627,,,,,,,,,,,,,,,,,,,377,2023-11-13_16h11.46.432,leap3,2022.2.5,59.96984288418229,
,,,,,,,,,,,,,,,,,,,,12,0,12,0,27,0,27,0,,,,,,elalt,nw,h,lower,,,,,,,2,nw,HiDemNoTar,h,1,0.4973453488200903,,,,,,,,,,,,,,,,,,,377,2023-11-13_16h11.46.432,leap3,2022.2.5,59.96984288418229,
,,,,,,,,,,,,,,,,,,,,12,0,12,0,28,0,28,0,,,,,,hanling,nw,h,lower,,,,,,,2,nw,HiDemNoTar,h,1,0.44301400519907475,,,,,,,,,,,,,,,,,,,377,2023-11-13_16h11.46.432,leap3,2022.2.5,59.96984288418229,
,,,,,,,,,,,,,,,,,,,,12,0,12,0,29,0,29,0,,,,,,elpired,nw,h,lower,,,,,,,2,nw,HiDemNoTar,h,1,0.4716484509408474,,,,,,,,,,,,,,,,,,,377,2023-11-13_16h11.46.432,leap3,2022.2.5,59.96984288418229,
,,,,,,,,,,,,,,,,,,,,12,0,12,0,,,,,,,,,,,,,,,,,,,,,,,,,,NA,,,,,,,,,,,,,,,,,,377,2023-11-13_16h11.46.432,leap3,2022.2.5,59.96984288418229,
,,,,,,,,,,,,,,,,,,,,13,0,13,0,0,0,0,0,,,,,,standard,w,g,lower,,,,,,,1,w,HiDemTar,g,1,0.5075295697897673,,,,,,,,,,,,,,,,,,,377,2023-11-13_16h11.46.432,leap3,2022.2.5,59.96984288418229,
,,,,,,,,,,,,,,,,,,,,13,0,13,0,1,0,1,0,,,,,,chiffol,nw,h,lower,,,,,,,1,nw,HiDemTar,h,1,0.4522797157987952,,,,,,,,,,,,,,,,,,,377,2023-11-13_16h11.46.432,leap3,2022.2.5,59.96984288418229,
,,,,,,,,,,,,,,,,,,,,13,0,13,0,2,0,2,0,,,,,,expounded,w,g,lower,,,,,,,1,w,HiDemTar,g,1,0.6233818819746375,,,,,,,,,,,,,,,,,,,377,2023-11-13_16h11.46.432,leap3,2022.2.5,59.96984288418229,
,,,,,,,,,,,,,,,,,,,,13,0,13,0,3,0,3,0,,,,,,unversed,w,g,lower,,,,,,,1,w,HiDemTar,h,0,0.5732120648026466,,,,,,,,,,,,,,,,,,,377,2023-11-13_16h11.46.432,leap3,2022.2.5,59.96984288418229,
,,,,,,,,,,,,,,,,,,,,13,0,13,0,4,0,4,0,,,,,,attract,w,g,lower,,,,,,,1,w,HiDemTar,g,1,0.4130734819918871,,,,,,,,,,,,,,,,,,,377,2023-11-13_16h11.46.432,leap3,2022.2.5,59.96984288418229,
,,,,,,,,,,,,,,,,,,,,13,0,13,0,5,0,5,0,,,,,,crimb,nw,h,lower,,,,,,,1,nw,HiDemTar,g,0,0.5229966677725315,,,,,,,,,,,,,,,,,,,377,2023-11-13_16h11.46.432,leap3,2022.2.5,59.96984288418229,
,,,,,,,,,,,,,,,,,,,,13,0,13,0,6,0,6,0,,,,,,consonant,w,g,lower,,,,,,,1,w,HiDemTar,h,0,0.5723653910681605,,,,,,,,,,,,,,,,,,,377,2023-11-13_16h11.46.432,leap3,2022.2.5,59.96984288418229,
,,,,,,,,,,,,,,,,,,,,13,0,13,0,7,0,7,0,,,,,,theles,nw,h,lower,,,,,,,1,nw,HiDemTar,h,1,0.5155966570600867,,,,,,,,,,,,,,,,,,,377,2023-11-13_16h11.46.432,leap3,2022.2.5,59.96984288418229,
,,,,,,,,,,,,,,,,,,,,13,0,13,0,8,0,8,0,,,,,,flieves,nw,h,lower,,,,,,,1,nw,HiDemTar,h,1,0.4935729010030627,,,,,,,,,,,,,,,,,,,377,2023-11-13_16h11.46.432,leap3,2022.2.5,59.96984288418229,
,,,,,,,,,,,,,,,,,,,,13,0,13,0,9,0,9,0,,,,,,senalize,nw,h,lower,,,,,,,1,nw,HiDemTar,h,1,0.6161659946665168,,,,,,,,,,,,,,,,,,,377,2023-11-13_16h11.46.432,leap3,2022.2.5,59.96984288418229,
,,,,,,,,,,,,,,,,,,,,13,0,13,0,10,0,10,0,,,,,,machinery,w,g,lower,,,,,,,1,w,HiDemTar,g,1,0.5181608228012919,,,,,,,,,,,,,,,,,,,377,2023-11-13_16h11.46.432,leap3,2022.2.5,59.96984288418229,
,,,,,,,,,,,,,,,,,,,,13,0,13,0,11,0,11,0,,,,,,ordinary,w,g,lower,,,,,,,1,w,HiDemTar,g,1,0.4400305785238743,,,,,,,,,,,,,,,,,,,377,2023-11-13_16h11.46.432,leap3,2022.2.5,59.96984288418229,
,,,,,,,,,,,,,,,,,,,,13,0,13,0,12,0,12,0,,,,,,togglo,nw,h,lower,,,,,,,1,nw,HiDemTar,h,1,0.4446871280670166,,,,,,,,,,,,,,,,,,,377,2023-11-13_16h11.46.432,leap3,2022.2.5,59.96984288418229,
,,,,,,,,,,,,,,,,,,,,13,0,13,0,13,0,13,0,,,,,,ugifies,nw,h,lower,,,,,,,1,nw,HiDemTar,h,1,0.5283390078693628,,,,,,,,,,,,,,,,,,,377,2023-11-13_16h11.46.432,leap3,2022.2.5,59.96984288418229,
,,,,,,,,,,,,,,,,,,,,13,0,13,0,14,0,14,0,,,,,,misobeyed,nw,h,lower,,,,,,,1,nw,HiDemTar,g,0,0.6975253690034151,,,,,,,,,,,,,,,,,,,377,2023-11-13_16h11.46.432,leap3,2022.2.5,59.96984288418229,
,,,,,,,,,,,,,,,,,,,,13,0,13,0,15,0,15,0,,,,,,bother,w,g,lower,,,,,,,1,w,HiDemTar,g,1,0.5242236647754908,,,,,,,,,,,,,,,,,,,377,2023-11-13_16h11.46.432,leap3,2022.2.5,59.96984288418229,
,,,,,,,,,,,,,,,,,,,,13,0,13,0,16,0,16,0,,,,,,cooray,nw,h,lower,,,,,,,1,nw,HiDemTar,h,1,0.5175103489309549,,,,,,,,,,,,,,,,,,,377,2023-11-13_16h11.46.432,leap3,2022.2.5,59.96984288418229,
,,,,,,,,,,,,,,,,,,,,13,0,13,0,17,0,17,0,,,,,,flooted,nw,h,lower,,,,,,,1,nw,HiDemTar,h,1,0.6868391800671816,,,,,,,,,,,,,,,,,,,377,2023-11-13_16h11.46.432,leap3,2022.2.5,59.96984288418229,
,,,,,,,,,,,,,,,,,,,,13,0,13,0,18,0,18,0,,,,,,jaguar,target,q,lower,,,,,,,1,target,HiDemTar,q,1,0.8015025276690722,,1,,,,,,,,,,,,,,,,,377,2023-11-13_16h11.46.432,leap3,2022.2.5,59.96984288418229,
,,,,,,,,,,,,,,,,,,,,13,0,13,0,19,0,19,0,,,,,,susher,nw,h,lower,,,,,,,1,aftertar1,HiDemTar,h,1,0.6232010768726468,,,,,,,,,,,,,,,,,,,377,2023-11-13_16h11.46.432,leap3,2022.2.5,59.96984288418229,
,,,,,,,,,,,,,,,,,,,,13,0,13,0,20,0,20,0,,,,,,puggers,nw,h,lower,,,,,,,1,aftertar2,HiDemTar,h,1,0.6285295318812132,,,,,,,,,,,,,,,,,,,377,2023-11-13_16h11.46.432,leap3,2022.2.5,59.96984288418229,
,,,,,,,,,,,,,,,,,,,,13,0,13,0,21,0,21,0,,,,,,overcoat,w,g,lower,,,,,,,1,aftertar3,HiDemTar,g,1,0.6889810664579272,,,,,,,,,,,,,,,,,,,377,2023-11-13_16h11.46.432,leap3,2022.2.5,59.96984288418229,
,,,,,,,,,,,,,,,,,,,,13,0,13,0,22,0,22,0,,,,,,nollow,nw,h,lower,,,,,,,1,w,HiDemTar,h,1,0.46754638850688934,,,,,,,,,,,,,,,,,,,377,2023-11-13_16h11.46.432,leap3,2022.2.5,59.96984288418229,
,,,,,,,,,,,,,,,,,,,,13,0,13,0,23,0,23,0,,,,,,defensa,nw,h,lower,,,,,,,1,nw,HiDemTar,h,1,0.6467114156112075,,,,,,,,,,,,,,,,,,,377,2023-11-13_16h11.46.432,leap3,2022.2.5,59.96984288418229,
,,,,,,,,,,,,,,,,,,,,13,0,13,0,24,0,24,0,,,,,,nauling,nw,h,lower,,,,,,,1,nw,HiDemTar,h,1,0.49944286420941353,,,,,,,,,,,,,,,,,,,377,2023-11-13_16h11.46.432,leap3,2022.2.5,59.96984288418229,
,,,,,,,,,,,,,,,,,,,,13,0,13,0,25,0,25,0,,,,,,solidity,w,g,lower,,,,,,,1,nw,HiDemTar,g,1,0.9660477321594954,,,,,,,,,,,,,,,,,,,377,2023-11-13_16h11.46.432,leap3,2022.2.5,59.96984288418229,
,,,,,,,,,,,,,,,,,,,,13,0,13,0,26,0,26,0,,,,,,achieve,w,g,lower,,,,,,,1,w,HiDemTar,g,1,0.4128694348037243,,,,,,,,,,,,,,,,,,,377,2023-11-13_16h11.46.432,leap3,2022.2.5,59.96984288418229,
,,,,,,,,,,,,,,,,,,,,13,0,13,0,27,0,27,0,,,,,,rearrange,w,g,lower,,,,,,,1,w,HiDemTar,g,1,0.5311564207077026,,,,,,,,,,,,,,,,,,,377,2023-11-13_16h11.46.432,leap3,2022.2.5,59.96984288418229,
,,,,,,,,,,,,,,,,,,,,13,0,13,0,28,0,28,0,,,,,,mopping,w,g,lower,,,,,,,1,w,HiDemTar,g,1,0.6531011536717415,,,,,,,,,,,,,,,,,,,377,2023-11-13_16h11.46.432,leap3,2022.2.5,59.96984288418229,
,,,,,,,,,,,,,,,,,,,,13,0,13,0,29,0,29,0,,,,,,companion,w,g,lower,,,,,,,1,w,HiDemTar,g,1,0.42544335685670376,,,,,,,,,,,,,,,,,,,377,2023-11-13_16h11.46.432,leap3,2022.2.5,59.96984288418229,
,,,,,,,,,,,,,,,,,,,,13,0,13,0,,,,,,,,,,,,,,,,,,,,,,,,,,1,,,,,,,,,,,,,,,,,,377,2023-11-13_16h11.46.432,leap3,2022.2.5,59.96984288418229,
,,,,,,,,,,,,,,,,,,,,14,0,14,0,0,0,0,0,,,,,,refebs,nw,h,lower,,,,,,,1,nw,HiDemTar,h,1,0.5660671116784215,,,,,,,,,,,,,,,,,,,377,2023-11-13_16h11.46.432,leap3,2022.2.5,59.96984288418229,
,,,,,,,,,,,,,,,,,,,,14,0,14,0,1,0,1,0,,,,,,apop,nw,h,lower,,,,,,,1,nw,HiDemTar,h,1,0.46201117150485516,,,,,,,,,,,,,,,,,,,377,2023-11-13_16h11.46.432,leap3,2022.2.5,59.96984288418229,
,,,,,,,,,,,,,,,,,,,,14,0,14,0,2,0,2,0,,,,,,moozy,nw,h,lower,,,,,,,1,nw,HiDemTar,h,1,0.6580707160755992,,,,,,,,,,,,,,,,,,,377,2023-11-13_16h11.46.432,leap3,2022.2.5,59.96984288418229,
,,,,,,,,,,,,,,,,,,,,14,0,14,0,3,0,3,0,,,,,,fetching,w,g,lower,,,,,,,1,w,HiDemTar,g,1,0.5659822933375835,,,,,,,,,,,,,,,,,,,377,2023-11-13_16h11.46.432,leap3,2022.2.5,59.96984288418229,
,,,,,,,,,,,,,,,,,,,,14,0,14,0,4,0,4,0,,,,,,grenavier,nw,h,lower,,,,,,,1,nw,HiDemTar,h,1,0.4939972935244441,,,,,,,,,,,,,,,,,,,377,2023-11-13_16h11.46.432,leap3,2022.2.5,59.96984288418229,
,,,,,,,,,,,,,,,,,,,,14,0,14,0,5,0,5,0,,,,,,massacre,w,g,lower,,,,,,,1,w,HiDemTar,g,1,0.5206616008654237,,,,,,,,,,,,,,,,,,,377,2023-11-13_16h11.46.432,leap3,2022.2.5,59.96984288418229,
,,,,,,,,,,,,,,,,,,,,14,0,14,0,6,0,6,0,,,,,,twarfs,nw,h,lower,,,,,,,1,nw,HiDemTar,h,1,0.5050951968878508,,,,,,,,,,,,,,,,,,,377,2023-11-13_16h11.46.432,leap3,2022.2.5,59.96984288418229,
,,,,,,,,,,,,,,,,,,,,14,0,14,0,7,0,7,0,,,,,,expired,w,g,lower,,,,,,,1,w,HiDemTar,g,1,0.46788234170526266,,,,,,,,,,,,,,,,,,,377,2023-11-13_16h11.46.432,leap3,2022.2.5,59.96984288418229,
,,,,,,,,,,,,,,,,,,,,14,0,14,0,8,0,8,0,,,,,,gumdrep,nw,h,lower,,,,,,,1,nw,HiDemTar,h,1,0.45424864534288645,,,,,,,,,,,,,,,,,,,377,2023-11-13_16h11.46.432,leap3,2022.2.5,59.96984288418229,
,,,,,,,,,,,,,,,,,,,,14,0,14,0,9,0,9,0,,,,,,thrapping,nw,h,lower,,,,,,,1,nw,HiDemTar,h,1,0.5621875077486038,,,,,,,,,,,,,,,,,,,377,2023-11-13_16h11.46.432,leap3,2022.2.5,59.96984288418229,
,,,,,,,,,,,,,,,,,,,,14,0,14,0,10,0,10,0,,,,,,nameplate,w,g,lower,,,,,,,1,w,HiDemTar,g,1,0.6341616408899426,,,,,,,,,,,,,,,,,,,377,2023-11-13_16h11.46.432,leap3,2022.2.5,59.96984288418229,
,,,,,,,,,,,,,,,,,,,,14,0,14,0,11,0,11,0,,,,,,number,w,g,lower,,,,,,,1,w,HiDemTar,g,1,0.39876003190875053,,,,,,,,,,,,,,,,,,,377,2023-11-13_16h11.46.432,leap3,2022.2.5,59.96984288418229,
,,,,,,,,,,,,,,,,,,,,14,0,14,0,12,0,12,0,,,,,,phambled,nw,h,lower,,,,,,,1,nw,HiDemTar,h,1,0.49348717648535967,,,,,,,,,,,,,,,,,,,377,2023-11-13_16h11.46.432,leap3,2022.2.5,59.96984288418229,
,,,,,,,,,,,,,,,,,,,,14,0,14,0,13,0,13,0,,,,,,dialect,w,g,lower,,,,,,,1,w,HiDemTar,g,1,0.6081613907590508,,,,,,,,,,,,,,,,,,,377,2023-11-13_16h11.46.432,leap3,2022.2.5,59.96984288418229,
,,,,,,,,,,,,,,,,,,,,14,0,14,0,14,0,14,0,,,,,,schides,nw,h,lower,,,,,,,1,nw,HiDemTar,h,1,0.5660450765863061,,,,,,,,,,,,,,,,,,,377,2023-11-13_16h11.46.432,leap3,2022.2.5,59.96984288418229,
,,,,,,,,,,,,,,,,,,,,14,0,14,0,15,0,15,0,,,,,,chicken,target,q,lower,,,,,,,1,target,HiDemTar,q,1,0.5740490779280663,,1,,,,,,,,,,,,,,,,,377,2023-11-13_16h11.46.432,leap3,2022.2.5,59.96984288418229,
,,,,,,,,,,,,,,,,,,,,14,0,14,0,16,0,16,0,,,,,,arrow,w,g,lower,,,,,,,1,aftertar1,HiDemTar,g,1,0.46048202831298113,,,,,,,,,,,,,,,,,,,377,2023-11-13_16h11.46.432,leap3,2022.2.5,59.96984288418229,
,,,,,,,,,,,,,,,,,,,,14,0,14,0,17,0,17,0,,,,,,agony,w,g,lower,,,,,,,1,aftertar2,HiDemTar,g,1,0.5121387299150229,,,,,,,,,,,,,,,,,,,377,2023-11-13_16h11.46.432,leap3,2022.2.5,59.96984288418229,
,,,,,,,,,,,,,,,,,,,,14,0,14,0,18,0,18,0,,,,,,surfaced,w,g,lower,,,,,,,1,aftertar3,HiDemTar,g,1,0.44114347733557224,,,,,,,,,,,,,,,,,,,377,2023-11-13_16h11.46.432,leap3,2022.2.5,59.96984288418229,
,,,,,,,,,,,,,,,,,,,,14,0,14,0,19,0,19,0,,,,,,trocess,nw,h,lower,,,,,,,1,w,HiDemTar,h,1,0.5184493865817785,,,,,,,,,,,,,,,,,,,377,2023-11-13_16h11.46.432,leap3,2022.2.5,59.96984288418229,
,,,,,,,,,,,,,,,,,,,,14,0,14,0,20,0,20,0,,,,,,fivalve,nw,h,lower,,,,,,,1,nw,HiDemTar,h,1,0.5203307811170816,,,,,,,,,,,,,,,,,,,377,2023-11-13_16h11.46.432,leap3,2022.2.5,59.96984288418229,
,,,,,,,,,,,,,,,,,,,,14,0,14,0,21,0,21,0,,,,,,official,w,g,lower,,,,,,,1,nw,HiDemTar,g,1,0.4815902914851904,,,,,,,,,,,,,,,,,,,377,2023-11-13_16h11.46.432,leap3,2022.2.5,59.96984288418229,
,,,,,,,,,,,,,,,,,,,,14,0,14,0,22,0,22,0,,,,,,sheerio,nw,h,lower,,,,,,,1,w,HiDemTar,h,1,0.6849019443616271,,,,,,,,,,,,,,,,,,,377,2023-11-13_16h11.46.432,leap3,2022.2.5,59.96984288418229,
,,,,,,,,,,,,,,,,,,,,14,0,14,0,23,0,23,0,,,,,,iolize,nw,h,lower,,,,,,,1,nw,HiDemTar,h,1,0.5915856193751097,,,,,,,,,,,,,,,,,,,377,2023-11-13_16h11.46.432,leap3,2022.2.5,59.96984288418229,
,,,,,,,,,,,,,,,,,,,,14,0,14,0,24,0,24,0,,,,,,season,w,g,lower,,,,,,,1,nw,HiDemTar,g,1,0.4460958344861865,,,,,,,,,,,,,,,,,,,377,2023-11-13_16h11.46.432,leap3,2022.2.5,59.96984288418229,
,,,,,,,,,,,,,,,,,,,,14,0,14,0,25,0,25,0,,,,,,offonents,nw,h,lower,,,,,,,1,w,HiDemTar,h,1,0.46698224265128374,,,,,,,,,,,,,,,,,,,377,2023-11-13_16h11.46.432,leap3,2022.2.5,59.96984288418229,
,,,,,,,,,,,,,,,,,,,,14,0,14,0,26,0,26,0,,,,,,other,w,g,lower,,,,,,,1,nw,HiDemTar,h,0,0.4627802697941661,,,,,,,,,,,,,,,,,,,377,2023-11-13_16h11.46.432,leap3,2022.2.5,59.96984288418229,
,,,,,,,,,,,,,,,,,,,,14,0,14,0,27,0,27,0,,,,,,tipoff,w,g,lower,,,,,,,1,w,HiDemTar,g,1,0.5947305336594582,,,,,,,,,,,,,,,,,,,377,2023-11-13_16h11.46.432,leap3,2022.2.5,59.96984288418229,
,,,,,,,,,,,,,,,,,,,,14,0,14,0,28,0,28,0,,,,,,typical,w,g,lower,,,,,,,1,w,HiDemTar,g,1,0.4484182232990861,,,,,,,,,,,,,,,,,,,377,2023-11-13_16h11.46.432,leap3,2022.2.5,59.96984288418229,
,,,,,,,,,,,,,,,,,,,,14,0,14,0,29,0,29,0,,,,,,mantos,nw,h,lower,,,,,,,1,w,HiDemTar,h,1,0.6130355698987842,,,,,,,,,,,,,,,,,,,377,2023-11-13_16h11.46.432,leap3,2022.2.5,59.96984288418229,
,,,,,,,,,,,,,,,,,,,,14,0,14,0,,,,,,,,,,,,,,,,,,,,,,,,,,1,,,,,,,,,,,,,,,,,,377,2023-11-13_16h11.46.432,leap3,2022.2.5,59.96984288418229,
,,,,,,,,,,,,,,,,,,,,15,0,15,0,0,0,0,0,,,,,,intercede,w,g,upper,,,,,,,3,w,LoDemNoTar,g,1,0.6355923833325505,,,,,,,,,,,,,,,,,,,377,2023-11-13_16h11.46.432,leap3,2022.2.5,59.96984288418229,
,,,,,,,,,,,,,,,,,,,,15,0,15,0,1,0,1,0,,,,,,acorn,w,g,upper,,,,,,,3,w,LoDemNoTar,g,1,0.5442673237994313,,,,,,,,,,,,,,,,,,,377,2023-11-13_16h11.46.432,leap3,2022.2.5,59.96984288418229,
,,,,,,,,,,,,,,,,,,,,15,0,15,0,2,0,2,0,,,,,,target,w,g,upper,,,,,,,3,w,LoDemNoTar,g,1,0.3919625021517277,,,,,,,,,,,,,,,,,,,377,2023-11-13_16h11.46.432,leap3,2022.2.5,59.96984288418229,
,,,,,,,,,,,,,,,,,,,,15,0,15,0,3,0,3,0,,,,,,pranny,nw,h,upper,,,,,,,3,nw,LoDemNoTar,h,1,0.5825481042265892,,,,,,,,,,,,,,,,,,,377,2023-11-13_16h11.46.432,leap3,2022.2.5,59.96984288418229,
,,,,,,,,,,,,,,,,,,,,15,0,15,0,4,0,4,0,,,,,,birn,nw,h,upper,,,,,,,3,nw,LoDemNoTar,h,1,0.6297852033749223,,,,,,,,,,,,,,,,,,,377,2023-11-13_16h11.46.432,leap3,2022.2.5,59.96984288418229,
,,,,,,,,,,,,,,,,,,,,15,0,15,0,5,0,5,0,,,,,,crudios,nw,h,upper,,,,,,,3,nw,LoDemNoTar,h,1,0.5151755847036839,,,,,,,,,,,,,,,,,,,377,2023-11-13_16h11.46.432,leap3,2022.2.5,59.96984288418229,
,,,,,,,,,,,,,,,,,,,,15,0,15,0,6,0,6,0,,,,,,gaioty,nw,h,upper,,,,,,,3,nw,LoDemNoTar,h,1,0.5172664588317275,,,,,,,,,,,,,,,,,,,377,2023-11-13_16h11.46.432,leap3,2022.2.5,59.96984288418229,
,,,,,,,,,,,,,,,,,,,,15,0,15,0,7,0,7,0,,,,,,baseline,w,g,upper,,,,,,,3,w,LoDemNoTar,g,1,0.44641035702079535,,,,,,,,,,,,,,,,,,,377,2023-11-13_16h11.46.432,leap3,2022.2.5,59.96984288418229,
,,,,,,,,,,,,,,,,,,,,15,0,15,0,8,0,8,0,,,,,,gettle,nw,h,upper,,,,,,,3,nw,LoDemNoTar,h,1,0.5311531005427241,,,,,,,,,,,,,,,,,,,377,2023-11-13_16h11.46.432,leap3,2022.2.5,59.96984288418229,
,,,,,,,,,,,,,,,,,,,,15,0,15,0,9,0,9,0,,,,,,sength,nw,h,upper,,,,,,,3,nw,LoDemNoTar,h,1,0.6512085916474462,,,,,,,,,,,,,,,,,,,377,2023-11-13_16h11.46.432,leap3,2022.2.5,59.96984288418229,
,,,,,,,,,,,,,,,,,,,,15,0,15,0,10,0,10,0,,,,,,hangar,w,g,upper,,,,,,,3,w,LoDemNoTar,h,0,0.4794864384457469,,,,,,,,,,,,,,,,,,,377,2023-11-13_16h11.46.432,leap3,2022.2.5,59.96984288418229,
,,,,,,,,,,,,,,,,,,,,15,0,15,0,11,0,11,0,,,,,,telecast,w,g,upper,,,,,,,3,w,LoDemNoTar,h,0,0.49137577693909407,,,,,,,,,,,,,,,,,,,377,2023-11-13_16h11.46.432,leap3,2022.2.5,59.96984288418229,
,,,,,,,,,,,,,,,,,,,,15,0,15,0,12,0,12,0,,,,,,mitten,w,g,upper,,,,,,,3,w,LoDemNoTar,h,0,0.5743838232010603,,,,,,,,,,,,,,,,,,,377,2023-11-13_16h11.46.432,leap3,2022.2.5,59.96984288418229,
,,,,,,,,,,,,,,,,,,,,15,0,15,0,13,0,13,0,,,,,,treenery,nw,h,upper,,,,,,,3,nw,LoDemNoTar,h,1,0.5646810429170728,,,,,,,,,,,,,,,,,,,377,2023-11-13_16h11.46.432,leap3,2022.2.5,59.96984288418229,
,,,,,,,,,,,,,,,,,,,,15,0,15,0,14,0,14,0,,,,,,cessation,w,g,upper,,,,,,,3,w,LoDemNoTar,h,0,0.49274373427033424,,,,,,,,,,,,,,,,,,,377,2023-11-13_16h11.46.432,leap3,2022.2.5,59.96984288418229,
,,,,,,,,,,,,,,,,,,,,15,0,15,0,15,0,15,0,,,,,,subpoena,w,g,upper,,,,,,,3,w,LoDemNoTar,g,1,1.1432362841442227,,,,,,,,,,,,,,,,,,,377,2023-11-13_16h11.46.432,leap3,2022.2.5,59.96984288418229,
,,,,,,,,,,,,,,,,,,,,15,0,15,0,16,0,16,0,,,,,,apticle,nw,h,upper,,,,,,,3,nw,LoDemNoTar,h,1,0.5759977838024497,,,,,,,,,,,,,,,,,,,377,2023-11-13_16h11.46.432,leap3,2022.2.5,59.96984288418229,
,,,,,,,,,,,,,,,,,,,,15,0,15,0,17,0,17,0,,,,,,unstatle,nw,h,upper,,,,,,,3,nw,LoDemNoTar,h,1,0.6952548967674375,,,,,,,,,,,,,,,,,,,377,2023-11-13_16h11.46.432,leap3,2022.2.5,59.96984288418229,
,,,,,,,,,,,,,,,,,,,,15,0,15,0,18,0,18,0,,,,,,student,w,g,upper,,,,,,,3,w,LoDemNoTar,g,1,0.39382005017250776,,,,,,,,,,,,,,,,,,,377,2023-11-13_16h11.46.432,leap3,2022.2.5,59.96984288418229,
,,,,,,,,,,,,,,,,,,,,15,0,15,0,19,0,19,0,,,,,,painter,w,g,upper,,,,,,,3,w,LoDemNoTar,g,1,0.4645131565630436,,,,,,,,,,,,,,,,,,,377,2023-11-13_16h11.46.432,leap3,2022.2.5,59.96984288418229,
,,,,,,,,,,,,,,,,,,,,15,0,15,0,20,0,20,0,,,,,,potent,w,g,upper,,,,,,,3,w,LoDemNoTar,g,1,0.4844454349949956,,,,,,,,,,,,,,,,,,,377,2023-11-13_16h11.46.432,leap3,2022.2.5,59.96984288418229,
,,,,,,,,,,,,,,,,,,,,15,0,15,0,21,0,21,0,,,,,,scrib,nw,h,upper,,,,,,,3,nw,LoDemNoTar,h,1,0.5830730106681585,,,,,,,,,,,,,,,,,,,377,2023-11-13_16h11.46.432,leap3,2022.2.5,59.96984288418229,
,,,,,,,,,,,,,,,,,,,,15,0,15,0,22,0,22,0,,,,,,unsmilung,nw,h,upper,,,,,,,3,nw,LoDemNoTar,h,1,0.606417334638536,,,,,,,,,,,,,,,,,,,377,2023-11-13_16h11.46.432,leap3,2022.2.5,59.96984288418229,
,,,,,,,,,,,,,,,,,,,,15,0,15,0,23,0,23,0,,,,,,mineluyer,nw,h,upper,,,,,,,3,nw,LoDemNoTar,h,1,0.4754079198464751,,,,,,,,,,,,,,,,,,,377,2023-11-13_16h11.46.432,leap3,2022.2.5,59.96984288418229,
,,,,,,,,,,,,,,,,,,,,15,0,15,0,24,0,24,0,,,,,,strenuous,w,g,upper,,,,,,,3,w,LoDemNoTar,g,1,0.6307269567623734,,,,,,,,,,,,,,,,,,,377,2023-11-13_16h11.46.432,leap3,2022.2.5,59.96984288418229,
,,,,,,,,,,,,,,,,,,,,15,0,15,0,25,0,25,0,,,,,,cartles,nw,h,upper,,,,,,,3,nw,LoDemNoTar,h,1,0.5479978146031499,,,,,,,,,,,,,,,,,,,377,2023-11-13_16h11.46.432,leap3,2022.2.5,59.96984288418229,
,,,,,,,,,,,,,,,,,,,,15,0,15,0,26,0,26,0,,,,,,metebing,nw,h,upper,,,,,,,3,nw,LoDemNoTar,h,1,0.5566293504089117,,,,,,,,,,,,,,,,,,,377,2023-11-13_16h11.46.432,leap3,2022.2.5,59.96984288418229,
,,,,,,,,,,,,,,,,,,,,15,0,15,0,27,0,27,0,,,,,,statute,w,g,upper,,,,,,,3,w,LoDemNoTar,g,1,0.5646104114130139,,,,,,,,,,,,,,,,,,,377,2023-11-13_16h11.46.432,leap3,2022.2.5,59.96984288418229,
,,,,,,,,,,,,,,,,,,,,15,0,15,0,28,0,28,0,,,,,,intersect,w,g,upper,,,,,,,3,w,LoDemNoTar,g,1,0.5166799761354923,,,,,,,,,,,,,,,,,,,377,2023-11-13_16h11.46.432,leap3,2022.2.5,59.96984288418229,
,,,,,,,,,,,,,,,,,,,,15,0,15,0,29,0,29,0,,,,,,runabouk,nw,h,upper,,,,,,,3,nw,LoDemNoTar,h,1,0.6226200265809894,,,,,,,,,,,,,,,,,,,377,2023-11-13_16h11.46.432,leap3,2022.2.5,59.96984288418229,
,,,,,,,,,,,,,,,,,,,,15,0,15,0,,,,,,,,,,,,,,,,,,,,,,,,,,NA,,,,,,,,,,,,,,,,,,377,2023-11-13_16h11.46.432,leap3,2022.2.5,59.96984288418229,
,,,,,,,,,,,,,,,,,,,,16,0,16,0,0,0,0,0,,,,,,superstar,w,g,upper,,,,,,,3,w,LoDemNoTar,g,1,0.5062394887208939,,,,,,,,,,,,,,,,,,,377,2023-11-13_16h11.46.432,leap3,2022.2.5,59.96984288418229,
,,,,,,,,,,,,,,,,,,,,16,0,16,0,1,0,1,0,,,,,,ounwit,nw,h,upper,,,,,,,3,nw,LoDemNoTar,h,1,0.45247470680624247,,,,,,,,,,,,,,,,,,,377,2023-11-13_16h11.46.432,leap3,2022.2.5,59.96984288418229,
,,,,,,,,,,,,,,,,,,,,16,0,16,0,2,0,2,0,,,,,,binder,w,g,upper,,,,,,,3,w,LoDemNoTar,g,1,0.6491074552759528,,,,,,,,,,,,,,,,,,,377,2023-11-13_16h11.46.432,leap3,2022.2.5,59.96984288418229,
,,,,,,,,,,,,,,,,,,,,16,0,16,0,3,0,3,0,,,,,,robbery,w,g,upper,,,,,,,3,w,LoDemNoTar,g,1,0.43010171689093113,,,,,,,,,,,,,,,,,,,377,2023-11-13_16h11.46.432,leap3,2022.2.5,59.96984288418229,
,,,,,,,,,,,,,,,,,,,,16,0,16,0,4,0,4,0,,,,,,chyme,nw,h,upper,,,,,,,3,nw,LoDemNoTar,g,0,0.4832564713433385,,,,,,,,,,,,,,,,,,,377,2023-11-13_16h11.46.432,leap3,2022.2.5,59.96984288418229,
,,,,,,,,,,,,,,,,,,,,16,0,16,0,5,0,5,0,,,,,,unburnid,nw,h,upper,,,,,,,3,nw,LoDemNoTar,h,1,0.534580540843308,,,,,,,,,,,,,,,,,,,377,2023-11-13_16h11.46.432,leap3,2022.2.5,59.96984288418229,
,,,,,,,,,,,,,,,,,,,,16,0,16,0,6,0,6,0,,,,,,causality,w,g,upper,,,,,,,3,w,LoDemNoTar,g,1,0.4473665989935398,,,,,,,,,,,,,,,,,,,377,2023-11-13_16h11.46.432,leap3,2022.2.5,59.96984288418229,
,,,,,,,,,,,,,,,,,,,,16,0,16,0,7,0,7,0,,,,,,seldom,w,g,upper,,,,,,,3,w,LoDemNoTar,g,1,0.4509353023022413,,,,,,,,,,,,,,,,,,,377,2023-11-13_16h11.46.432,leap3,2022.2.5,59.96984288418229,
