demoRace_loop.thisRepN,demoRace_loop.thisTrialN,demoRace_loop.thisN,demoRace_loop.thisIndex,LDTunderstand.thisRepN,LDTunderstand.thisTrialN,LDTunderstand.thisN,LDTunderstand.thisIndex,pracBlocks.thisRepN,pracBlocks.thisTrialN,pracBlocks.thisN,pracBlocks.thisIndex,pracTrial.thisRepN,pracTrial.thisTrialN,pracTrial.thisN,pracTrial.thisIndex,PMunderstand.thisRepN,PMunderstand.thisTrialN,PMunderstand.thisN,PMunderstand.thisIndex,LDT_block.thisRepN,LDT_block.thisTrialN,LDT_block.thisN,LDT_block.thisIndex,LDT_trial.thisRepN,LDT_trial.thisTrialN,LDT_trial.thisN,LDT_trial.thisIndex,ageTextbox.text,genderTextbox.text,race,raceResp,LDTunderstand,stim,word_type,corr_key,stim_location,LDTpracKey.keys,LDTpracKey.corr,LDTpracKey.rt,PMunderstand,cueTextbox.text,intentionTextbox.text,block_type,role,block_desc,LDTResp.keys,LDTResp.corr,LDTResp.rt,PM_accuracy,pressedQ,postQ1,Q2Textbox.text,Q3Textbox.text,Q4,Q5,Q6Key.keys,Q6Key.rt,postQ7_correct,postQ7,Q8Textbox.text,education,medTextbox.text,health,healthLimit,psych,participant,date,expName,psychopyVersion,frameRate,
0,0,0,0,,,,,,,,,,,,,,,,,,,,,,,,,"
20 ",Male,American Indian or Alaska Native,n,,,,,,,,,,,,,,,,,,,,,,,,,,,,,,,,,,,378,2023-11-13_16h28.17.580,leap3,2022.2.5,59.994512925718574,
1,0,1,0,,,,,,,,,,,,,,,,,,,,,,,,,,,Asian,n,,,,,,,,,,,,,,,,,,,,,,,,,,,,,,,,,,,378,2023-11-13_16h28.17.580,leap3,2022.2.5,59.994512925718574,
2,0,2,0,,,,,,,,,,,,,,,,,,,,,,,,,,,Black or African American,n,,,,,,,,,,,,,,,,,,,,,,,,,,,,,,,,,,,378,2023-11-13_16h28.17.580,leap3,2022.2.5,59.994512925718574,
3,0,3,0,,,,,,,,,,,,,,,,,,,,,,,,,,,Native Hawaiian or other Pacific Islander,n,,,,,,,,,,,,,,,,,,,,,,,,,,,,,,,,,,,378,2023-11-13_16h28.17.580,leap3,2022.2.5,59.994512925718574,
4,0,4,0,,,,,,,,,,,,,,,,,,,,,,,,,,,White,y,,,,,,,,,,,,,,,,,,,,,,,,,,,,,,,,,,,378,2023-11-13_16h28.17.580,leap3,2022.2.5,59.994512925718574,
,,,,0,0,0,0,,,,,,,,,,,,,,,,,,,,,,,,,y,,,,,,,,,,,,,,,,,,,,,,,,,,,,,,,,,,378,2023-11-13_16h28.17.580,leap3,2022.2.5,59.994512925718574,
,,,,,,,,0,0,0,0,0,0,0,0,,,,,,,,,,,,,,,,,,sponsor,w,g,upper,g,1,0.5270581324584782,,,,,,,,,,,,,,,,,,,,,,,,,,,378,2023-11-13_16h28.17.580,leap3,2022.2.5,59.994512925718574,
,,,,,,,,0,0,0,0,1,0,1,0,,,,,,,,,,,,,,,,,,turative,nw,h,upper,h,1,0.7722660880535841,,,,,,,,,,,,,,,,,,,,,,,,,,,378,2023-11-13_16h28.17.580,leap3,2022.2.5,59.994512925718574,
,,,,,,,,0,0,0,0,2,0,2,0,,,,,,,,,,,,,,,,,,revival,w,g,upper,g,1,0.5348011064343154,,,,,,,,,,,,,,,,,,,,,,,,,,,378,2023-11-13_16h28.17.580,leap3,2022.2.5,59.994512925718574,
,,,,,,,,0,0,0,0,3,0,3,0,,,,,,,,,,,,,,,,,,grocus,nw,h,upper,h,1,0.7019068086519837,,,,,,,,,,,,,,,,,,,,,,,,,,,378,2023-11-13_16h28.17.580,leap3,2022.2.5,59.994512925718574,
,,,,,,,,0,0,0,0,4,0,4,0,,,,,,,,,,,,,,,,,,summary,w,g,upper,g,1,0.5211223149672151,,,,,,,,,,,,,,,,,,,,,,,,,,,378,2023-11-13_16h28.17.580,leap3,2022.2.5,59.994512925718574,
,,,,,,,,0,0,0,0,5,0,5,0,,,,,,,,,,,,,,,,,,julled,nw,h,upper,h,1,0.6658979961648583,,,,,,,,,,,,,,,,,,,,,,,,,,,378,2023-11-13_16h28.17.580,leap3,2022.2.5,59.994512925718574,
,,,,,,,,0,0,0,0,6,0,6,0,,,,,,,,,,,,,,,,,,umpire,w,g,upper,g,1,0.5028397566638887,,,,,,,,,,,,,,,,,,,,,,,,,,,378,2023-11-13_16h28.17.580,leap3,2022.2.5,59.994512925718574,
,,,,,,,,0,0,0,0,7,0,7,0,,,,,,,,,,,,,,,,,,curlecs,nw,h,upper,h,1,0.5928257182240486,,,,,,,,,,,,,,,,,,,,,,,,,,,378,2023-11-13_16h28.17.580,leap3,2022.2.5,59.994512925718574,
,,,,,,,,0,0,0,0,8,0,8,0,,,,,,,,,,,,,,,,,,infinity,w,g,upper,g,1,0.5501808035187423,,,,,,,,,,,,,,,,,,,,,,,,,,,378,2023-11-13_16h28.17.580,leap3,2022.2.5,59.994512925718574,
,,,,,,,,0,0,0,0,9,0,9,0,,,,,,,,,,,,,,,,,,alolition,nw,h,upper,h,1,0.6704745972529054,,,,,,,,,,,,,,,,,,,,,,,,,,,378,2023-11-13_16h28.17.580,leap3,2022.2.5,59.994512925718574,
,,,,,,,,0,0,0,0,10,0,10,0,,,,,,,,,,,,,,,,,,slumber,w,g,upper,g,1,0.4977089655585587,,,,,,,,,,,,,,,,,,,,,,,,,,,378,2023-11-13_16h28.17.580,leap3,2022.2.5,59.994512925718574,
,,,,,,,,0,0,0,0,11,0,11,0,,,,,,,,,,,,,,,,,,trotch,nw,h,upper,h,1,0.5868539810180664,,,,,,,,,,,,,,,,,,,,,,,,,,,378,2023-11-13_16h28.17.580,leap3,2022.2.5,59.994512925718574,
,,,,,,,,0,0,0,0,12,0,12,0,,,,,,,,,,,,,,,,,,lumbigo,nw,h,upper,h,1,0.7225627885200083,,,,,,,,,,,,,,,,,,,,,,,,,,,378,2023-11-13_16h28.17.580,leap3,2022.2.5,59.994512925718574,
,,,,,,,,0,0,0,0,13,0,13,0,,,,,,,,,,,,,,,,,,picture,w,g,upper,g,1,0.5005520600825548,,,,,,,,,,,,,,,,,,,,,,,,,,,378,2023-11-13_16h28.17.580,leap3,2022.2.5,59.994512925718574,
,,,,,,,,0,0,0,0,,,,,,,,,,,,,,,,,,,,,,,,,,,,,,,,,,,,,,,,,,,,,,,,,,,,,,,378,2023-11-13_16h28.17.580,leap3,2022.2.5,59.994512925718574,
,,,,,,,,1,0,1,0,0,0,0,0,,,,,,,,,,,,,,,,,,unscrew,w,g,lower,g,1,0.5979694896377623,,,,,,,,,,,,,,,,,,,,,,,,,,,378,2023-11-13_16h28.17.580,leap3,2022.2.5,59.994512925718574,
,,,,,,,,1,0,1,0,1,0,1,0,,,,,,,,,,,,,,,,,,raestro,nw,h,lower,h,1,0.5807889737188816,,,,,,,,,,,,,,,,,,,,,,,,,,,378,2023-11-13_16h28.17.580,leap3,2022.2.5,59.994512925718574,
,,,,,,,,1,0,1,0,2,0,2,0,,,,,,,,,,,,,,,,,,tricycle,w,g,lower,g,1,0.6201570397242904,,,,,,,,,,,,,,,,,,,,,,,,,,,378,2023-11-13_16h28.17.580,leap3,2022.2.5,59.994512925718574,
,,,,,,,,1,0,1,0,3,0,3,0,,,,,,,,,,,,,,,,,,crinklo,nw,h,lower,h,1,0.5680923918262124,,,,,,,,,,,,,,,,,,,,,,,,,,,378,2023-11-13_16h28.17.580,leap3,2022.2.5,59.994512925718574,
,,,,,,,,1,0,1,0,4,0,4,0,,,,,,,,,,,,,,,,,,hiring,w,g,lower,g,1,0.48781291814520955,,,,,,,,,,,,,,,,,,,,,,,,,,,378,2023-11-13_16h28.17.580,leap3,2022.2.5,59.994512925718574,
,,,,,,,,1,0,1,0,5,0,5,0,,,,,,,,,,,,,,,,,,treeps,nw,h,lower,h,1,0.554432014003396,,,,,,,,,,,,,,,,,,,,,,,,,,,378,2023-11-13_16h28.17.580,leap3,2022.2.5,59.994512925718574,
,,,,,,,,1,0,1,0,6,0,6,0,,,,,,,,,,,,,,,,,,busted,w,g,lower,g,1,0.45851355604827404,,,,,,,,,,,,,,,,,,,,,,,,,,,378,2023-11-13_16h28.17.580,leap3,2022.2.5,59.994512925718574,
,,,,,,,,1,0,1,0,7,0,7,0,,,,,,,,,,,,,,,,,,latador,nw,h,lower,h,1,0.622436888050288,,,,,,,,,,,,,,,,,,,,,,,,,,,378,2023-11-13_16h28.17.580,leap3,2022.2.5,59.994512925718574,
,,,,,,,,1,0,1,0,8,0,8,0,,,,,,,,,,,,,,,,,,grimace,w,g,lower,g,1,0.4919020365923643,,,,,,,,,,,,,,,,,,,,,,,,,,,378,2023-11-13_16h28.17.580,leap3,2022.2.5,59.994512925718574,
,,,,,,,,1,0,1,0,9,0,9,0,,,,,,,,,,,,,,,,,,grutch,nw,h,lower,g,0,0.8144371034577489,,,,,,,,,,,,,,,,,,,,,,,,,,,378,2023-11-13_16h28.17.580,leap3,2022.2.5,59.994512925718574,
,,,,,,,,1,0,1,0,10,0,10,0,,,,,,,,,,,,,,,,,,reputable,w,g,lower,g,1,0.5381947699934244,,,,,,,,,,,,,,,,,,,,,,,,,,,378,2023-11-13_16h28.17.580,leap3,2022.2.5,59.994512925718574,
,,,,,,,,1,0,1,0,11,0,11,0,,,,,,,,,,,,,,,,,,hasking,nw,h,lower,h,1,0.47501189820468426,,,,,,,,,,,,,,,,,,,,,,,,,,,378,2023-11-13_16h28.17.580,leap3,2022.2.5,59.994512925718574,
,,,,,,,,1,0,1,0,12,0,12,0,,,,,,,,,,,,,,,,,,lurshing,nw,h,lower,h,1,0.551387285348028,,,,,,,,,,,,,,,,,,,,,,,,,,,378,2023-11-13_16h28.17.580,leap3,2022.2.5,59.994512925718574,
,,,,,,,,1,0,1,0,13,0,13,0,,,,,,,,,,,,,,,,,,overshoot,w,g,lower,g,1,0.5993528529070318,,,,,,,,,,,,,,,,,,,,,,,,,,,378,2023-11-13_16h28.17.580,leap3,2022.2.5,59.994512925718574,
,,,,,,,,1,0,1,0,,,,,,,,,,,,,,,,,,,,,,,,,,,,,,,,,,,,,,,,,,,,,,,,,,,,,,,378,2023-11-13_16h28.17.580,leap3,2022.2.5,59.994512925718574,
,,,,,,,,,,,,,,,,0,0,0,0,,,,,,,,,,,,,,,,,,,,,y,,,,,,,,,,,,,,,,,,,,,,,,,,378,2023-11-13_16h28.17.580,leap3,2022.2.5,59.994512925718574,
,,,,,,,,,,,,,,,,,,,,0,0,0,0,0,0,0,0,,,,,,fomrade,nw,h,lower,,,,,"animal
","q
 ",3,nw,LoDemNoTar,h,1,0.7932459493167698,,,,,,,,,,,,,,,,,,378,2023-11-13_16h28.17.580,leap3,2022.2.5,59.994512925718574,
,,,,,,,,,,,,,,,,,,,,0,0,0,0,1,0,1,0,,,,,,trocess,nw,h,lower,,,,,,,3,nw,LoDemNoTar,h,1,0.6644593947567046,,,,,,,,,,,,,,,,,,378,2023-11-13_16h28.17.580,leap3,2022.2.5,59.994512925718574,
,,,,,,,,,,,,,,,,,,,,0,0,0,0,2,0,2,0,,,,,,roughly,w,g,lower,,,,,,,3,w,LoDemNoTar,g,1,0.5491032106801867,,,,,,,,,,,,,,,,,,378,2023-11-13_16h28.17.580,leap3,2022.2.5,59.994512925718574,
,,,,,,,,,,,,,,,,,,,,0,0,0,0,3,0,3,0,,,,,,argue,w,g,lower,,,,,,,3,w,LoDemNoTar,g,1,0.557285975664854,,,,,,,,,,,,,,,,,,378,2023-11-13_16h28.17.580,leap3,2022.2.5,59.994512925718574,
,,,,,,,,,,,,,,,,,,,,0,0,0,0,4,0,4,0,,,,,,mebase,nw,h,lower,,,,,,,3,nw,LoDemNoTar,h,1,0.6139051886275411,,,,,,,,,,,,,,,,,,378,2023-11-13_16h28.17.580,leap3,2022.2.5,59.994512925718574,
,,,,,,,,,,,,,,,,,,,,0,0,0,0,5,0,5,0,,,,,,earterner,nw,h,lower,,,,,,,3,nw,LoDemNoTar,h,1,0.7570189014077187,,,,,,,,,,,,,,,,,,378,2023-11-13_16h28.17.580,leap3,2022.2.5,59.994512925718574,
,,,,,,,,,,,,,,,,,,,,0,0,0,0,6,0,6,0,,,,,,sefine,nw,h,lower,,,,,,,3,nw,LoDemNoTar,h,1,0.7824244401417673,,,,,,,,,,,,,,,,,,378,2023-11-13_16h28.17.580,leap3,2022.2.5,59.994512925718574,
,,,,,,,,,,,,,,,,,,,,0,0,0,0,7,0,7,0,,,,,,tipoff,w,g,lower,,,,,,,3,w,LoDemNoTar,g,1,0.5495155332610011,,,,,,,,,,,,,,,,,,378,2023-11-13_16h28.17.580,leap3,2022.2.5,59.994512925718574,
,,,,,,,,,,,,,,,,,,,,0,0,0,0,8,0,8,0,,,,,,tharcely,nw,h,lower,,,,,,,3,nw,LoDemNoTar,h,1,0.638889349065721,,,,,,,,,,,,,,,,,,378,2023-11-13_16h28.17.580,leap3,2022.2.5,59.994512925718574,
,,,,,,,,,,,,,,,,,,,,0,0,0,0,9,0,9,0,,,,,,tritical,nw,h,lower,,,,,,,3,nw,LoDemNoTar,h,1,0.8761922395788133,,,,,,,,,,,,,,,,,,378,2023-11-13_16h28.17.580,leap3,2022.2.5,59.994512925718574,
,,,,,,,,,,,,,,,,,,,,0,0,0,0,10,0,10,0,,,,,,showdown,w,g,lower,,,,,,,3,w,LoDemNoTar,g,1,0.6081221057102084,,,,,,,,,,,,,,,,,,378,2023-11-13_16h28.17.580,leap3,2022.2.5,59.994512925718574,
,,,,,,,,,,,,,,,,,,,,0,0,0,0,11,0,11,0,,,,,,gigglod,nw,h,lower,,,,,,,3,nw,LoDemNoTar,h,1,0.7187525765039027,,,,,,,,,,,,,,,,,,378,2023-11-13_16h28.17.580,leap3,2022.2.5,59.994512925718574,
,,,,,,,,,,,,,,,,,,,,0,0,0,0,12,0,12,0,,,,,,finstrel,nw,h,lower,,,,,,,3,nw,LoDemNoTar,h,1,0.6408652383834124,,,,,,,,,,,,,,,,,,378,2023-11-13_16h28.17.580,leap3,2022.2.5,59.994512925718574,
,,,,,,,,,,,,,,,,,,,,0,0,0,0,13,0,13,0,,,,,,dealer,w,g,lower,,,,,,,3,w,LoDemNoTar,g,1,0.5181394652463496,,,,,,,,,,,,,,,,,,378,2023-11-13_16h28.17.580,leap3,2022.2.5,59.994512925718574,
,,,,,,,,,,,,,,,,,,,,0,0,0,0,14,0,14,0,,,,,,inside,w,g,lower,,,,,,,3,w,LoDemNoTar,g,1,0.5761978840455413,,,,,,,,,,,,,,,,,,378,2023-11-13_16h28.17.580,leap3,2022.2.5,59.994512925718574,
,,,,,,,,,,,,,,,,,,,,0,0,0,0,15,0,15,0,,,,,,mining,w,g,lower,,,,,,,3,w,LoDemNoTar,g,1,0.6641297778114676,,,,,,,,,,,,,,,,,,378,2023-11-13_16h28.17.580,leap3,2022.2.5,59.994512925718574,
,,,,,,,,,,,,,,,,,,,,0,0,0,0,16,0,16,0,,,,,,gontracts,nw,h,lower,,,,,,,3,nw,LoDemNoTar,h,1,0.6758429426699877,,,,,,,,,,,,,,,,,,378,2023-11-13_16h28.17.580,leap3,2022.2.5,59.994512925718574,
,,,,,,,,,,,,,,,,,,,,0,0,0,0,17,0,17,0,,,,,,suspect,w,g,lower,,,,,,,3,w,LoDemNoTar,g,1,0.6398625033907592,,,,,,,,,,,,,,,,,,378,2023-11-13_16h28.17.580,leap3,2022.2.5,59.994512925718574,
,,,,,,,,,,,,,,,,,,,,0,0,0,0,18,0,18,0,,,,,,become,w,g,lower,,,,,,,3,w,LoDemNoTar,g,1,0.5731353466399014,,,,,,,,,,,,,,,,,,378,2023-11-13_16h28.17.580,leap3,2022.2.5,59.994512925718574,
,,,,,,,,,,,,,,,,,,,,0,0,0,0,19,0,19,0,,,,,,insertion,w,g,lower,,,,,,,3,w,LoDemNoTar,g,1,0.6371796894818544,,,,,,,,,,,,,,,,,,378,2023-11-13_16h28.17.580,leap3,2022.2.5,59.994512925718574,
,,,,,,,,,,,,,,,,,,,,0,0,0,0,20,0,20,0,,,,,,despise,w,g,lower,,,,,,,3,w,LoDemNoTar,g,1,0.5865141018293798,,,,,,,,,,,,,,,,,,378,2023-11-13_16h28.17.580,leap3,2022.2.5,59.994512925718574,
,,,,,,,,,,,,,,,,,,,,0,0,0,0,21,0,21,0,,,,,,giving,w,g,lower,,,,,,,3,w,LoDemNoTar,g,1,0.49784449441358447,,,,,,,,,,,,,,,,,,378,2023-11-13_16h28.17.580,leap3,2022.2.5,59.994512925718574,
,,,,,,,,,,,,,,,,,,,,0,0,0,0,22,0,22,0,,,,,,clooped,nw,h,lower,,,,,,,3,nw,LoDemNoTar,h,1,0.6451870808377862,,,,,,,,,,,,,,,,,,378,2023-11-13_16h28.17.580,leap3,2022.2.5,59.994512925718574,
,,,,,,,,,,,,,,,,,,,,0,0,0,0,23,0,23,0,,,,,,glapula,nw,h,lower,,,,,,,3,nw,LoDemNoTar,h,1,0.6425256975926459,,,,,,,,,,,,,,,,,,378,2023-11-13_16h28.17.580,leap3,2022.2.5,59.994512925718574,
,,,,,,,,,,,,,,,,,,,,0,0,0,0,24,0,24,0,,,,,,populace,w,g,lower,,,,,,,3,w,LoDemNoTar,g,1,0.7830734108574688,,,,,,,,,,,,,,,,,,378,2023-11-13_16h28.17.580,leap3,2022.2.5,59.994512925718574,
,,,,,,,,,,,,,,,,,,,,0,0,0,0,25,0,25,0,,,,,,sength,nw,h,lower,,,,,,,3,nw,LoDemNoTar,h,1,0.8549588271416724,,,,,,,,,,,,,,,,,,378,2023-11-13_16h28.17.580,leap3,2022.2.5,59.994512925718574,
,,,,,,,,,,,,,,,,,,,,0,0,0,0,26,0,26,0,,,,,,subpoena,w,g,lower,,,,,,,3,w,LoDemNoTar,g,1,0.7954889726825058,,,,,,,,,,,,,,,,,,378,2023-11-13_16h28.17.580,leap3,2022.2.5,59.994512925718574,
,,,,,,,,,,,,,,,,,,,,0,0,0,0,27,0,27,0,,,,,,rander,nw,h,lower,,,,,,,3,nw,LoDemNoTar,h,1,0.6748667699284852,,,,,,,,,,,,,,,,,,378,2023-11-13_16h28.17.580,leap3,2022.2.5,59.994512925718574,
,,,,,,,,,,,,,,,,,,,,0,0,0,0,28,0,28,0,,,,,,pamine,nw,h,lower,,,,,,,3,nw,LoDemNoTar,h,1,0.6856855624355376,,,,,,,,,,,,,,,,,,378,2023-11-13_16h28.17.580,leap3,2022.2.5,59.994512925718574,
,,,,,,,,,,,,,,,,,,,,0,0,0,0,29,0,29,0,,,,,,suddenly,w,g,lower,,,,,,,3,w,LoDemNoTar,g,1,0.5210287431254983,,,,,,,,,,,,,,,,,,378,2023-11-13_16h28.17.580,leap3,2022.2.5,59.994512925718574,
,,,,,,,,,,,,,,,,,,,,0,0,0,0,,,,,,,,,,,,,,,,,,,,,,,,,,NA,,,,,,,,,,,,,,,,,378,2023-11-13_16h28.17.580,leap3,2022.2.5,59.994512925718574,
,,,,,,,,,,,,,,,,,,,,1,0,1,0,0,0,0,0,,,,,,entertain,w,g,upper,,,,,,,1,w,HiDemTar,g,1,0.6041093547828496,,,,,,,,,,,,,,,,,,378,2023-11-13_16h28.17.580,leap3,2022.2.5,59.994512925718574,
,,,,,,,,,,,,,,,,,,,,1,0,1,0,1,0,1,0,,,,,,unrealon,nw,h,upper,,,,,,,1,nw,HiDemTar,h,1,0.6497401376254857,,,,,,,,,,,,,,,,,,378,2023-11-13_16h28.17.580,leap3,2022.2.5,59.994512925718574,
,,,,,,,,,,,,,,,,,,,,1,0,1,0,2,0,2,0,,,,,,cassette,w,g,upper,,,,,,,1,w,HiDemTar,g,1,0.7991956514306366,,,,,,,,,,,,,,,,,,378,2023-11-13_16h28.17.580,leap3,2022.2.5,59.994512925718574,
,,,,,,,,,,,,,,,,,,,,1,0,1,0,3,0,3,0,,,,,,scack,nw,h,upper,,,,,,,1,nw,HiDemTar,h,1,0.7184009249322116,,,,,,,,,,,,,,,,,,378,2023-11-13_16h28.17.580,leap3,2022.2.5,59.994512925718574,
,,,,,,,,,,,,,,,,,,,,1,0,1,0,4,0,4,0,,,,,,trallion,nw,h,upper,,,,,,,1,nw,HiDemTar,h,1,0.7124868407845497,,,,,,,,,,,,,,,,,,378,2023-11-13_16h28.17.580,leap3,2022.2.5,59.994512925718574,
,,,,,,,,,,,,,,,,,,,,1,0,1,0,5,0,5,0,,,,,,mortgage,w,g,upper,,,,,,,1,w,HiDemTar,g,1,0.7151992358267307,,,,,,,,,,,,,,,,,,378,2023-11-13_16h28.17.580,leap3,2022.2.5,59.994512925718574,
,,,,,,,,,,,,,,,,,,,,1,0,1,0,6,0,6,0,,,,,,jinds,nw,h,upper,,,,,,,1,nw,HiDemTar,h,1,0.6458402774296701,,,,,,,,,,,,,,,,,,378,2023-11-13_16h28.17.580,leap3,2022.2.5,59.994512925718574,
,,,,,,,,,,,,,,,,,,,,1,0,1,0,7,0,7,0,,,,,,peahem,nw,h,upper,,,,,,,1,nw,HiDemTar,h,1,0.6351491655223072,,,,,,,,,,,,,,,,,,378,2023-11-13_16h28.17.580,leap3,2022.2.5,59.994512925718574,
,,,,,,,,,,,,,,,,,,,,1,0,1,0,8,0,8,0,,,,,,bellicove,nw,h,upper,,,,,,,1,nw,HiDemTar,h,1,0.559551939368248,,,,,,,,,,,,,,,,,,378,2023-11-13_16h28.17.580,leap3,2022.2.5,59.994512925718574,
,,,,,,,,,,,,,,,,,,,,1,0,1,0,9,0,9,0,,,,,,undimmec,nw,h,upper,,,,,,,1,nw,HiDemTar,h,1,0.6481273705139756,,,,,,,,,,,,,,,,,,378,2023-11-13_16h28.17.580,leap3,2022.2.5,59.994512925718574,
,,,,,,,,,,,,,,,,,,,,1,0,1,0,10,0,10,0,,,,,,arranged,w,g,upper,,,,,,,1,w,HiDemTar,g,1,0.5414574313908815,,,,,,,,,,,,,,,,,,378,2023-11-13_16h28.17.580,leap3,2022.2.5,59.994512925718574,
,,,,,,,,,,,,,,,,,,,,1,0,1,0,11,0,11,0,,,,,,subber,nw,h,upper,,,,,,,1,nw,HiDemTar,h,1,0.7108191372826695,,,,,,,,,,,,,,,,,,378,2023-11-13_16h28.17.580,leap3,2022.2.5,59.994512925718574,
,,,,,,,,,,,,,,,,,,,,1,0,1,0,12,0,12,0,,,,,,poars,nw,h,upper,,,,,,,1,nw,HiDemTar,h,1,0.6174733191728592,,,,,,,,,,,,,,,,,,378,2023-11-13_16h28.17.580,leap3,2022.2.5,59.994512925718574,
,,,,,,,,,,,,,,,,,,,,1,0,1,0,13,0,13,0,,,,,,exemplify,w,g,upper,,,,,,,1,w,HiDemTar,g,1,0.6544664548709989,,,,,,,,,,,,,,,,,,378,2023-11-13_16h28.17.580,leap3,2022.2.5,59.994512925718574,
,,,,,,,,,,,,,,,,,,,,1,0,1,0,14,0,14,0,,,,,,mestowal,nw,h,upper,,,,,,,1,nw,HiDemTar,h,1,0.7641974217258394,,,,,,,,,,,,,,,,,,378,2023-11-13_16h28.17.580,leap3,2022.2.5,59.994512925718574,
,,,,,,,,,,,,,,,,,,,,1,0,1,0,15,0,15,0,,,,,,handle,w,g,upper,,,,,,,1,w,HiDemTar,g,1,0.5088628078810871,,,,,,,,,,,,,,,,,,378,2023-11-13_16h28.17.580,leap3,2022.2.5,59.994512925718574,
,,,,,,,,,,,,,,,,,,,,1,0,1,0,16,0,16,0,,,,,,eggays,nw,h,upper,,,,,,,1,nw,HiDemTar,h,1,1.1275738677941263,,,,,,,,,,,,,,,,,,378,2023-11-13_16h28.17.580,leap3,2022.2.5,59.994512925718574,
,,,,,,,,,,,,,,,,,,,,1,0,1,0,17,0,17,0,,,,,,educate,w,g,upper,,,,,,,1,w,HiDemTar,g,1,0.49661899683997035,,,,,,,,,,,,,,,,,,378,2023-11-13_16h28.17.580,leap3,2022.2.5,59.994512925718574,
,,,,,,,,,,,,,,,,,,,,1,0,1,0,18,0,18,0,,,,,,serving,w,g,upper,,,,,,,1,w,HiDemTar,g,1,0.48484485875815153,,,,,,,,,,,,,,,,,,378,2023-11-13_16h28.17.580,leap3,2022.2.5,59.994512925718574,
,,,,,,,,,,,,,,,,,,,,1,0,1,0,19,0,19,0,,,,,,affluent,w,g,upper,,,,,,,1,w,HiDemTar,g,1,0.6473763752728701,,,,,,,,,,,,,,,,,,378,2023-11-13_16h28.17.580,leap3,2022.2.5,59.994512925718574,
,,,,,,,,,,,,,,,,,,,,1,0,1,0,20,0,20,0,,,,,,misest,nw,h,upper,,,,,,,1,nw,HiDemTar,h,1,0.8993891649879515,,,,,,,,,,,,,,,,,,378,2023-11-13_16h28.17.580,leap3,2022.2.5,59.994512925718574,
,,,,,,,,,,,,,,,,,,,,1,0,1,0,21,0,21,0,,,,,,gures,nw,h,upper,,,,,,,1,nw,HiDemTar,h,1,0.6070420984178782,,,,,,,,,,,,,,,,,,378,2023-11-13_16h28.17.580,leap3,2022.2.5,59.994512925718574,
,,,,,,,,,,,,,,,,,,,,1,0,1,0,22,0,22,0,,,,,,jaguar,target,q,upper,,,,,,,1,target,HiDemTar,g,0,0.5984011306427419,,,,,,,,,,,,,,,,,,378,2023-11-13_16h28.17.580,leap3,2022.2.5,59.994512925718574,
,,,,,,,,,,,,,,,,,,,,1,0,1,0,23,0,23,0,,,,,,blocking,w,g,upper,,,,,,,1,aftertar1,HiDemTar,g,1,1.0618376736529171,,,,,,,,,,,,,,,,,,378,2023-11-13_16h28.17.580,leap3,2022.2.5,59.994512925718574,
,,,,,,,,,,,,,,,,,,,,1,0,1,0,24,0,24,0,,,,,,slogan,w,g,upper,,,,,,,1,aftertar2,HiDemTar,g,1,0.6423599836416543,,,,,,,,,,,,,,,,,,378,2023-11-13_16h28.17.580,leap3,2022.2.5,59.994512925718574,
,,,,,,,,,,,,,,,,,,,,1,0,1,0,25,0,25,0,,,,,,planar,w,g,upper,,,,,,,1,aftertar3,HiDemTar,g,1,0.6877701166085899,,,,,,,,,,,,,,,,,,378,2023-11-13_16h28.17.580,leap3,2022.2.5,59.994512925718574,
,,,,,,,,,,,,,,,,,,,,1,0,1,0,26,0,26,0,,,,,,comment,w,g,upper,,,,,,,1,w,HiDemTar,g,1,0.6663151485845447,,,,,,,,,,,,,,,,,,378,2023-11-13_16h28.17.580,leap3,2022.2.5,59.994512925718574,
,,,,,,,,,,,,,,,,,,,,1,0,1,0,27,0,27,0,,,,,,chone,nw,h,upper,,,,,,,1,w,HiDemTar,h,1,0.9277576319873333,,,,,,,,,,,,,,,,,,378,2023-11-13_16h28.17.580,leap3,2022.2.5,59.994512925718574,
,,,,,,,,,,,,,,,,,,,,1,0,1,0,28,0,28,0,,,,,,even,w,g,upper,,,,,,,1,nw,HiDemTar,g,1,0.7368627800606191,,,,,,,,,,,,,,,,,,378,2023-11-13_16h28.17.580,leap3,2022.2.5,59.994512925718574,
,,,,,,,,,,,,,,,,,,,,1,0,1,0,29,0,29,0,,,,,,booster,w,g,upper,,,,,,,1,w,HiDemTar,g,1,0.5782163334079087,,,,,,,,,,,,,,,,,,378,2023-11-13_16h28.17.580,leap3,2022.2.5,59.994512925718574,
,,,,,,,,,,,,,,,,,,,,1,0,1,0,,,,,,,,,,,,,,,,,,,,,,,,,,0,,,,,,,,,,,,,,,,,378,2023-11-13_16h28.17.580,leap3,2022.2.5,59.994512925718574,
,,,,,,,,,,,,,,,,,,,,2,0,2,0,0,0,0,0,,,,,,inverted,w,g,lower,,,,,,,3,w,LoDemNoTar,g,1,0.6341150384396315,,,,,,,,,,,,,,,,,,378,2023-11-13_16h28.17.580,leap3,2022.2.5,59.994512925718574,
,,,,,,,,,,,,,,,,,,,,2,0,2,0,1,0,1,0,,,,,,repayment,w,g,lower,,,,,,,3,w,LoDemNoTar,g,1,0.807423391379416,,,,,,,,,,,,,,,,,,378,2023-11-13_16h28.17.580,leap3,2022.2.5,59.994512925718574,
,,,,,,,,,,,,,,,,,,,,2,0,2,0,2,0,2,0,,,,,,derived,w,g,lower,,,,,,,3,w,LoDemNoTar,g,1,0.48616543831303716,,,,,,,,,,,,,,,,,,378,2023-11-13_16h28.17.580,leap3,2022.2.5,59.994512925718574,
,,,,,,,,,,,,,,,,,,,,2,0,2,0,3,0,3,0,,,,,,dorte,nw,h,lower,,,,,,,3,nw,LoDemNoTar,h,1,0.6964536448940635,,,,,,,,,,,,,,,,,,378,2023-11-13_16h28.17.580,leap3,2022.2.5,59.994512925718574,
,,,,,,,,,,,,,,,,,,,,2,0,2,0,4,0,4,0,,,,,,marinate,w,g,lower,,,,,,,3,w,LoDemNoTar,g,1,0.5637968108057976,,,,,,,,,,,,,,,,,,378,2023-11-13_16h28.17.580,leap3,2022.2.5,59.994512925718574,
,,,,,,,,,,,,,,,,,,,,2,0,2,0,5,0,5,0,,,,,,implode,w,g,lower,,,,,,,3,w,LoDemNoTar,g,1,0.6364760841242969,,,,,,,,,,,,,,,,,,378,2023-11-13_16h28.17.580,leap3,2022.2.5,59.994512925718574,
,,,,,,,,,,,,,,,,,,,,2,0,2,0,6,0,6,0,,,,,,scatter,w,g,lower,,,,,,,3,w,LoDemNoTar,g,1,0.6098417271859944,,,,,,,,,,,,,,,,,,378,2023-11-13_16h28.17.580,leap3,2022.2.5,59.994512925718574,
,,,,,,,,,,,,,,,,,,,,2,0,2,0,7,0,7,0,,,,,,virulent,w,g,lower,,,,,,,3,w,LoDemNoTar,g,1,0.6725011966191232,,,,,,,,,,,,,,,,,,378,2023-11-13_16h28.17.580,leap3,2022.2.5,59.994512925718574,
,,,,,,,,,,,,,,,,,,,,2,0,2,0,8,0,8,0,,,,,,decency,w,g,lower,,,,,,,3,w,LoDemNoTar,g,1,0.6524959988892078,,,,,,,,,,,,,,,,,,378,2023-11-13_16h28.17.580,leap3,2022.2.5,59.994512925718574,
,,,,,,,,,,,,,,,,,,,,2,0,2,0,9,0,9,0,,,,,,gazes,w,g,lower,,,,,,,3,w,LoDemNoTar,g,1,0.9271092652343214,,,,,,,,,,,,,,,,,,378,2023-11-13_16h28.17.580,leap3,2022.2.5,59.994512925718574,
,,,,,,,,,,,,,,,,,,,,2,0,2,0,10,0,10,0,,,,,,cemoir,nw,h,lower,,,,,,,3,nw,LoDemNoTar,h,1,0.48193716863170266,,,,,,,,,,,,,,,,,,378,2023-11-13_16h28.17.580,leap3,2022.2.5,59.994512925718574,
,,,,,,,,,,,,,,,,,,,,2,0,2,0,11,0,11,0,,,,,,nearsipe,nw,h,lower,,,,,,,3,nw,LoDemNoTar,h,1,0.9418061850592494,,,,,,,,,,,,,,,,,,378,2023-11-13_16h28.17.580,leap3,2022.2.5,59.994512925718574,
,,,,,,,,,,,,,,,,,,,,2,0,2,0,12,0,12,0,,,,,,dounger,nw,h,lower,,,,,,,3,nw,LoDemNoTar,h,1,0.7110370709560812,,,,,,,,,,,,,,,,,,378,2023-11-13_16h28.17.580,leap3,2022.2.5,59.994512925718574,
,,,,,,,,,,,,,,,,,,,,2,0,2,0,13,0,13,0,,,,,,farochial,nw,h,lower,,,,,,,3,nw,LoDemNoTar,h,1,0.7221362791024148,,,,,,,,,,,,,,,,,,378,2023-11-13_16h28.17.580,leap3,2022.2.5,59.994512925718574,
,,,,,,,,,,,,,,,,,,,,2,0,2,0,14,0,14,0,,,,,,grolific,nw,h,lower,,,,,,,3,nw,LoDemNoTar,h,1,0.780076373834163,,,,,,,,,,,,,,,,,,378,2023-11-13_16h28.17.580,leap3,2022.2.5,59.994512925718574,
,,,,,,,,,,,,,,,,,,,,2,0,2,0,15,0,15,0,,,,,,ignoble,w,g,lower,,,,,,,3,w,LoDemNoTar,h,0,0.9561167415231466,,,,,,,,,,,,,,,,,,378,2023-11-13_16h28.17.580,leap3,2022.2.5,59.994512925718574,
,,,,,,,,,,,,,,,,,,,,2,0,2,0,16,0,16,0,,,,,,standard,w,g,lower,,,,,,,3,w,LoDemNoTar,g,1,0.6447403472848237,,,,,,,,,,,,,,,,,,378,2023-11-13_16h28.17.580,leap3,2022.2.5,59.994512925718574,
,,,,,,,,,,,,,,,,,,,,2,0,2,0,17,0,17,0,,,,,,beartiset,nw,h,lower,,,,,,,3,nw,LoDemNoTar,h,1,0.6821436923928559,,,,,,,,,,,,,,,,,,378,2023-11-13_16h28.17.580,leap3,2022.2.5,59.994512925718574,
,,,,,,,,,,,,,,,,,,,,2,0,2,0,18,0,18,0,,,,,,ifling,nw,h,lower,,,,,,,3,nw,LoDemNoTar,h,1,0.6862261700443923,,,,,,,,,,,,,,,,,,378,2023-11-13_16h28.17.580,leap3,2022.2.5,59.994512925718574,
,,,,,,,,,,,,,,,,,,,,2,0,2,0,19,0,19,0,,,,,,hodels,nw,h,lower,,,,,,,3,nw,LoDemNoTar,h,1,0.6494410070590675,,,,,,,,,,,,,,,,,,378,2023-11-13_16h28.17.580,leap3,2022.2.5,59.994512925718574,
,,,,,,,,,,,,,,,,,,,,2,0,2,0,20,0,20,0,,,,,,nimp,nw,h,lower,,,,,,,3,nw,LoDemNoTar,h,1,0.9817468542605639,,,,,,,,,,,,,,,,,,378,2023-11-13_16h28.17.580,leap3,2022.2.5,59.994512925718574,
,,,,,,,,,,,,,,,,,,,,2,0,2,0,21,0,21,0,,,,,,sequence,w,g,lower,,,,,,,3,w,LoDemNoTar,g,1,0.6036988431587815,,,,,,,,,,,,,,,,,,378,2023-11-13_16h28.17.580,leap3,2022.2.5,59.994512925718574,
,,,,,,,,,,,,,,,,,,,,2,0,2,0,22,0,22,0,,,,,,chappef,nw,h,lower,,,,,,,3,nw,LoDemNoTar,h,1,0.6844208245165646,,,,,,,,,,,,,,,,,,378,2023-11-13_16h28.17.580,leap3,2022.2.5,59.994512925718574,
,,,,,,,,,,,,,,,,,,,,2,0,2,0,23,0,23,0,,,,,,peags,nw,h,lower,,,,,,,3,nw,LoDemNoTar,h,1,0.5757955224253237,,,,,,,,,,,,,,,,,,378,2023-11-13_16h28.17.580,leap3,2022.2.5,59.994512925718574,
,,,,,,,,,,,,,,,,,,,,2,0,2,0,24,0,24,0,,,,,,causality,w,g,lower,,,,,,,3,w,LoDemNoTar,g,1,0.599785097874701,,,,,,,,,,,,,,,,,,378,2023-11-13_16h28.17.580,leap3,2022.2.5,59.994512925718574,
,,,,,,,,,,,,,,,,,,,,2,0,2,0,25,0,25,0,,,,,,traze,nw,h,lower,,,,,,,3,nw,LoDemNoTar,h,1,0.6231655464507639,,,,,,,,,,,,,,,,,,378,2023-11-13_16h28.17.580,leap3,2022.2.5,59.994512925718574,
,,,,,,,,,,,,,,,,,,,,2,0,2,0,26,0,26,0,,,,,,standard,w,g,lower,,,,,,,3,w,LoDemNoTar,g,1,0.6131720026023686,,,,,,,,,,,,,,,,,,378,2023-11-13_16h28.17.580,leap3,2022.2.5,59.994512925718574,
,,,,,,,,,,,,,,,,,,,,2,0,2,0,27,0,27,0,,,,,,analysis,w,g,lower,,,,,,,3,w,LoDemNoTar,g,1,0.595787740778178,,,,,,,,,,,,,,,,,,378,2023-11-13_16h28.17.580,leap3,2022.2.5,59.994512925718574,
,,,,,,,,,,,,,,,,,,,,2,0,2,0,28,0,28,0,,,,,,senalize,nw,h,lower,,,,,,,3,nw,LoDemNoTar,h,1,0.7151192463934422,,,,,,,,,,,,,,,,,,378,2023-11-13_16h28.17.580,leap3,2022.2.5,59.994512925718574,
,,,,,,,,,,,,,,,,,,,,2,0,2,0,29,0,29,0,,,,,,moyeur,nw,h,lower,,,,,,,3,nw,LoDemNoTar,h,1,0.5978140383958817,,,,,,,,,,,,,,,,,,378,2023-11-13_16h28.17.580,leap3,2022.2.5,59.994512925718574,
,,,,,,,,,,,,,,,,,,,,2,0,2,0,,,,,,,,,,,,,,,,,,,,,,,,,,NA,,,,,,,,,,,,,,,,,378,2023-11-13_16h28.17.580,leap3,2022.2.5,59.994512925718574,
,,,,,,,,,,,,,,,,,,,,3,0,3,0,0,0,0,0,,,,,,student,w,g,lower,,,,,,,4,w,LoDemTar,g,1,0.564242638181895,,,,,,,,,,,,,,,,,,378,2023-11-13_16h28.17.580,leap3,2022.2.5,59.994512925718574,
,,,,,,,,,,,,,,,,,,,,3,0,3,0,1,0,1,0,,,,,,clume,nw,h,lower,,,,,,,4,nw,LoDemTar,h,1,0.595530868973583,,,,,,,,,,,,,,,,,,378,2023-11-13_16h28.17.580,leap3,2022.2.5,59.994512925718574,
,,,,,,,,,,,,,,,,,,,,3,0,3,0,2,0,2,0,,,,,,mandate,w,g,lower,,,,,,,4,w,LoDemTar,g,1,0.5952909011393785,,,,,,,,,,,,,,,,,,378,2023-11-13_16h28.17.580,leap3,2022.2.5,59.994512925718574,
,,,,,,,,,,,,,,,,,,,,3,0,3,0,3,0,3,0,,,,,,brighten,w,g,lower,,,,,,,4,w,LoDemTar,g,1,0.5151647650636733,,,,,,,,,,,,,,,,,,378,2023-11-13_16h28.17.580,leap3,2022.2.5,59.994512925718574,
,,,,,,,,,,,,,,,,,,,,3,0,3,0,4,0,4,0,,,,,,explosion,w,g,lower,,,,,,,4,w,LoDemTar,g,1,0.5981539175845683,,,,,,,,,,,,,,,,,,378,2023-11-13_16h28.17.580,leap3,2022.2.5,59.994512925718574,
,,,,,,,,,,,,,,,,,,,,3,0,3,0,5,0,5,0,,,,,,befin,nw,h,lower,,,,,,,4,nw,LoDemTar,h,1,0.6523897489532828,,,,,,,,,,,,,,,,,,378,2023-11-13_16h28.17.580,leap3,2022.2.5,59.994512925718574,
,,,,,,,,,,,,,,,,,,,,3,0,3,0,6,0,6,0,,,,,,crundle,nw,h,lower,,,,,,,4,nw,LoDemTar,g,0,0.4891190091148019,,,,,,,,,,,,,,,,,,378,2023-11-13_16h28.17.580,leap3,2022.2.5,59.994512925718574,
,,,,,,,,,,,,,,,,,,,,3,0,3,0,7,0,7,0,,,,,,rowel,nw,h,lower,,,,,,,4,nw,LoDemTar,h,1,0.9484163280576468,,,,,,,,,,,,,,,,,,378,2023-11-13_16h28.17.580,leap3,2022.2.5,59.994512925718574,
,,,,,,,,,,,,,,,,,,,,3,0,3,0,8,0,8,0,,,,,,pester,w,g,lower,,,,,,,4,w,LoDemTar,h,0,0.9897850346751511,,,,,,,,,,,,,,,,,,378,2023-11-13_16h28.17.580,leap3,2022.2.5,59.994512925718574,
,,,,,,,,,,,,,,,,,,,,3,0,3,0,9,0,9,0,,,,,,sequence,w,g,lower,,,,,,,4,w,LoDemTar,g,1,0.6526644295081496,,,,,,,,,,,,,,,,,,378,2023-11-13_16h28.17.580,leap3,2022.2.5,59.994512925718574,
,,,,,,,,,,,,,,,,,,,,3,0,3,0,10,0,10,0,,,,,,anemic,w,g,lower,,,,,,,4,w,LoDemTar,g,1,0.865807200782001,,,,,,,,,,,,,,,,,,378,2023-11-13_16h28.17.580,leap3,2022.2.5,59.994512925718574,
,,,,,,,,,,,,,,,,,,,,3,0,3,0,11,0,11,0,,,,,,wrestle,w,g,lower,,,,,,,4,w,LoDemTar,g,1,1.1184520577080548,,,,,,,,,,,,,,,,,,378,2023-11-13_16h28.17.580,leap3,2022.2.5,59.994512925718574,
,,,,,,,,,,,,,,,,,,,,3,0,3,0,12,0,12,0,,,,,,plashed,nw,h,lower,,,,,,,4,nw,LoDemTar,h,1,0.688414559699595,,,,,,,,,,,,,,,,,,378,2023-11-13_16h28.17.580,leap3,2022.2.5,59.994512925718574,
,,,,,,,,,,,,,,,,,,,,3,0,3,0,13,0,13,0,,,,,,runabouk,nw,h,lower,,,,,,,4,nw,LoDemTar,h,1,0.7317588529549539,,,,,,,,,,,,,,,,,,378,2023-11-13_16h28.17.580,leap3,2022.2.5,59.994512925718574,
,,,,,,,,,,,,,,,,,,,,3,0,3,0,14,0,14,0,,,,,,lancos,nw,h,lower,,,,,,,4,nw,LoDemTar,h,1,0.5007805582135916,,,,,,,,,,,,,,,,,,378,2023-11-13_16h28.17.580,leap3,2022.2.5,59.994512925718574,
,,,,,,,,,,,,,,,,,,,,3,0,3,0,15,0,15,0,,,,,,trake,nw,h,lower,,,,,,,4,nw,LoDemTar,h,1,0.6074323859065771,,,,,,,,,,,,,,,,,,378,2023-11-13_16h28.17.580,leap3,2022.2.5,59.994512925718574,
,,,,,,,,,,,,,,,,,,,,3,0,3,0,16,0,16,0,,,,,,managed,w,g,lower,,,,,,,4,w,LoDemTar,g,1,0.8462638282217085,,,,,,,,,,,,,,,,,,378,2023-11-13_16h28.17.580,leap3,2022.2.5,59.994512925718574,
,,,,,,,,,,,,,,,,,,,,3,0,3,0,17,0,17,0,,,,,,fuack,nw,h,lower,,,,,,,4,nw,LoDemTar,h,1,0.5954819698818028,,,,,,,,,,,,,,,,,,378,2023-11-13_16h28.17.580,leap3,2022.2.5,59.994512925718574,
,,,,,,,,,,,,,,,,,,,,3,0,3,0,18,0,18,0,,,,,,deficit,w,g,lower,,,,,,,4,w,LoDemTar,g,1,0.7308352016843855,,,,,,,,,,,,,,,,,,378,2023-11-13_16h28.17.580,leap3,2022.2.5,59.994512925718574,
,,,,,,,,,,,,,,,,,,,,3,0,3,0,19,0,19,0,,,,,,slending,nw,h,lower,,,,,,,4,nw,LoDemTar,h,1,0.8848138893954456,,,,,,,,,,,,,,,,,,378,2023-11-13_16h28.17.580,leap3,2022.2.5,59.994512925718574,
,,,,,,,,,,,,,,,,,,,,3,0,3,0,20,0,20,0,,,,,,frogmy,nw,h,lower,,,,,,,4,nw,LoDemTar,h,1,0.896206493023783,,,,,,,,,,,,,,,,,,378,2023-11-13_16h28.17.580,leap3,2022.2.5,59.994512925718574,
,,,,,,,,,,,,,,,,,,,,3,0,3,0,21,0,21,0,,,,,,ladybug,target,q,lower,,,,,,,4,target,LoDemTar,q,1,1.0355368577875197,,1,,,,,,,,,,,,,,,,378,2023-11-13_16h28.17.580,leap3,2022.2.5,59.994512925718574,
,,,,,,,,,,,,,,,,,,,,3,0,3,0,22,0,22,0,,,,,,servant,w,g,lower,,,,,,,4,aftertar1,LoDemTar,g,1,0.7608623164705932,,,,,,,,,,,,,,,,,,378,2023-11-13_16h28.17.580,leap3,2022.2.5,59.994512925718574,
,,,,,,,,,,,,,,,,,,,,3,0,3,0,23,0,23,0,,,,,,efcorted,nw,h,lower,,,,,,,4,aftertar2,LoDemTar,h,1,0.7925115558318794,,,,,,,,,,,,,,,,,,378,2023-11-13_16h28.17.580,leap3,2022.2.5,59.994512925718574,
,,,,,,,,,,,,,,,,,,,,3,0,3,0,24,0,24,0,,,,,,fashing,nw,h,lower,,,,,,,4,aftertar3,LoDemTar,h,1,0.8799321209080517,,,,,,,,,,,,,,,,,,378,2023-11-13_16h28.17.580,leap3,2022.2.5,59.994512925718574,
,,,,,,,,,,,,,,,,,,,,3,0,3,0,25,0,25,0,,,,,,reprint,w,g,lower,,,,,,,4,nw,LoDemTar,g,1,0.7625580918975174,,,,,,,,,,,,,,,,,,378,2023-11-13_16h28.17.580,leap3,2022.2.5,59.994512925718574,
,,,,,,,,,,,,,,,,,,,,3,0,3,0,26,0,26,0,,,,,,ameld,nw,h,lower,,,,,,,4,w,LoDemTar,h,1,0.6596651622094214,,,,,,,,,,,,,,,,,,378,2023-11-13_16h28.17.580,leap3,2022.2.5,59.994512925718574,
,,,,,,,,,,,,,,,,,,,,3,0,3,0,27,0,27,0,,,,,,geadpan,nw,h,lower,,,,,,,4,nw,LoDemTar,h,1,0.7529657022096217,,,,,,,,,,,,,,,,,,378,2023-11-13_16h28.17.580,leap3,2022.2.5,59.994512925718574,
,,,,,,,,,,,,,,,,,,,,3,0,3,0,28,0,28,0,,,,,,unmarked,w,g,lower,,,,,,,4,nw,LoDemTar,g,1,0.7778955306857824,,,,,,,,,,,,,,,,,,378,2023-11-13_16h28.17.580,leap3,2022.2.5,59.994512925718574,
,,,,,,,,,,,,,,,,,,,,3,0,3,0,29,0,29,0,,,,,,reconcile,w,g,lower,,,,,,,4,w,LoDemTar,q,0,0.9778590677306056,,,,,,,,,,,,,,,,,,378,2023-11-13_16h28.17.580,leap3,2022.2.5,59.994512925718574,
,,,,,,,,,,,,,,,,,,,,3,0,3,0,,,,,,,,,,,,,,,,,,,,,,,,,,1,,,,,,,,,,,,,,,,,378,2023-11-13_16h28.17.580,leap3,2022.2.5,59.994512925718574,
,,,,,,,,,,,,,,,,,,,,4,0,4,0,0,0,0,0,,,,,,afternoon,w,g,upper,,,,,,,1,w,HiDemTar,g,1,0.6648324769921601,,,,,,,,,,,,,,,,,,378,2023-11-13_16h28.17.580,leap3,2022.2.5,59.994512925718574,
,,,,,,,,,,,,,,,,,,,,4,0,4,0,1,0,1,0,,,,,,rationale,w,g,upper,,,,,,,1,w,HiDemTar,g,1,0.6614542081952095,,,,,,,,,,,,,,,,,,378,2023-11-13_16h28.17.580,leap3,2022.2.5,59.994512925718574,
,,,,,,,,,,,,,,,,,,,,4,0,4,0,2,0,2,0,,,,,,category,w,g,upper,,,,,,,1,w,HiDemTar,g,1,0.5301348567008972,,,,,,,,,,,,,,,,,,378,2023-11-13_16h28.17.580,leap3,2022.2.5,59.994512925718574,
,,,,,,,,,,,,,,,,,,,,4,0,4,0,3,0,3,0,,,,,,latter,w,g,upper,,,,,,,1,w,HiDemTar,g,1,0.7962046512402594,,,,,,,,,,,,,,,,,,378,2023-11-13_16h28.17.580,leap3,2022.2.5,59.994512925718574,
,,,,,,,,,,,,,,,,,,,,4,0,4,0,4,0,4,0,,,,,,expounded,w,g,upper,,,,,,,1,w,HiDemTar,h,0,1.1475023967213929,,,,,,,,,,,,,,,,,,378,2023-11-13_16h28.17.580,leap3,2022.2.5,59.994512925718574,
,,,,,,,,,,,,,,,,,,,,4,0,4,0,5,0,5,0,,,,,,duplex,w,g,upper,,,,,,,1,w,HiDemTar,g,1,0.9488014848902822,,,,,,,,,,,,,,,,,,378,2023-11-13_16h28.17.580,leap3,2022.2.5,59.994512925718574,
,,,,,,,,,,,,,,,,,,,,4,0,4,0,6,0,6,0,,,,,,retona,nw,h,upper,,,,,,,1,nw,HiDemTar,h,1,0.7011497770436108,,,,,,,,,,,,,,,,,,378,2023-11-13_16h28.17.580,leap3,2022.2.5,59.994512925718574,
,,,,,,,,,,,,,,,,,,,,4,0,4,0,7,0,7,0,,,,,,quittint,nw,h,upper,,,,,,,1,nw,HiDemTar,h,1,0.7118961266241968,,,,,,,,,,,,,,,,,,378,2023-11-13_16h28.17.580,leap3,2022.2.5,59.994512925718574,
,,,,,,,,,,,,,,,,,,,,4,0,4,0,8,0,8,0,,,,,,downtrund,nw,h,upper,,,,,,,1,nw,HiDemTar,h,1,0.7305384860374033,,,,,,,,,,,,,,,,,,378,2023-11-13_16h28.17.580,leap3,2022.2.5,59.994512925718574,
,,,,,,,,,,,,,,,,,,,,4,0,4,0,9,0,9,0,,,,,,lindo,nw,h,upper,,,,,,,1,nw,HiDemTar,h,1,0.5005819429643452,,,,,,,,,,,,,,,,,,378,2023-11-13_16h28.17.580,leap3,2022.2.5,59.994512925718574,
,,,,,,,,,,,,,,,,,,,,4,0,4,0,10,0,10,0,,,,,,flooted,nw,h,upper,,,,,,,1,nw,HiDemTar,h,1,1.0471887472085655,,,,,,,,,,,,,,,,,,378,2023-11-13_16h28.17.580,leap3,2022.2.5,59.994512925718574,
,,,,,,,,,,,,,,,,,,,,4,0,4,0,11,0,11,0,,,,,,pender,nw,h,upper,,,,,,,1,nw,HiDemTar,h,1,0.9245031201280653,,,,,,,,,,,,,,,,,,378,2023-11-13_16h28.17.580,leap3,2022.2.5,59.994512925718574,
,,,,,,,,,,,,,,,,,,,,4,0,4,0,12,0,12,0,,,,,,armada,w,g,upper,,,,,,,1,w,HiDemTar,g,1,1.150539880618453,,,,,,,,,,,,,,,,,,378,2023-11-13_16h28.17.580,leap3,2022.2.5,59.994512925718574,
,,,,,,,,,,,,,,,,,,,,4,0,4,0,13,0,13,0,,,,,,forgery,w,g,upper,,,,,,,1,w,HiDemTar,g,1,1.0462871310301125,,,,,,,,,,,,,,,,,,378,2023-11-13_16h28.17.580,leap3,2022.2.5,59.994512925718574,
,,,,,,,,,,,,,,,,,,,,4,0,4,0,14,0,14,0,,,,,,mogus,nw,h,upper,,,,,,,1,nw,HiDemTar,h,1,0.6823987527750432,,,,,,,,,,,,,,,,,,378,2023-11-13_16h28.17.580,leap3,2022.2.5,59.994512925718574,
,,,,,,,,,,,,,,,,,,,,4,0,4,0,15,0,15,0,,,,,,splinging,nw,h,upper,,,,,,,1,nw,HiDemTar,h,1,0.8624029727652669,,,,,,,,,,,,,,,,,,378,2023-11-13_16h28.17.580,leap3,2022.2.5,59.994512925718574,
,,,,,,,,,,,,,,,,,,,,4,0,4,0,16,0,16,0,,,,,,uncarled,nw,h,upper,,,,,,,1,nw,HiDemTar,h,1,0.6918996823951602,,,,,,,,,,,,,,,,,,378,2023-11-13_16h28.17.580,leap3,2022.2.5,59.994512925718574,
,,,,,,,,,,,,,,,,,,,,4,0,4,0,17,0,17,0,,,,,,arrival,w,g,upper,,,,,,,1,w,HiDemTar,g,1,0.6554984687827528,,,,,,,,,,,,,,,,,,378,2023-11-13_16h28.17.580,leap3,2022.2.5,59.994512925718574,
,,,,,,,,,,,,,,,,,,,,4,0,4,0,18,0,18,0,,,,,,lasprey,nw,h,upper,,,,,,,1,nw,HiDemTar,h,1,0.5881528281606734,,,,,,,,,,,,,,,,,,378,2023-11-13_16h28.17.580,leap3,2022.2.5,59.994512925718574,
,,,,,,,,,,,,,,,,,,,,4,0,4,0,19,0,19,0,,,,,,euphoric,w,g,upper,,,,,,,1,w,HiDemTar,g,1,0.6835065307095647,,,,,,,,,,,,,,,,,,378,2023-11-13_16h28.17.580,leap3,2022.2.5,59.994512925718574,
,,,,,,,,,,,,,,,,,,,,4,0,4,0,20,0,20,0,,,,,,postal,w,g,upper,,,,,,,1,w,HiDemTar,g,1,0.7995367380790412,,,,,,,,,,,,,,,,,,378,2023-11-13_16h28.17.580,leap3,2022.2.5,59.994512925718574,
,,,,,,,,,,,,,,,,,,,,4,0,4,0,21,0,21,0,,,,,,trembla,nw,h,upper,,,,,,,1,nw,HiDemTar,h,1,0.8708972432650626,,,,,,,,,,,,,,,,,,378,2023-11-13_16h28.17.580,leap3,2022.2.5,59.994512925718574,
,,,,,,,,,,,,,,,,,,,,4,0,4,0,22,0,22,0,,,,,,butterfly,target,q,upper,,,,,,,1,target,HiDemTar,q,1,0.9549232390709221,,1,,,,,,,,,,,,,,,,378,2023-11-13_16h28.17.580,leap3,2022.2.5,59.994512925718574,
,,,,,,,,,,,,,,,,,,,,4,0,4,0,23,0,23,0,,,,,,germeated,nw,h,upper,,,,,,,1,aftertar1,HiDemTar,h,1,1.178617367055267,,,,,,,,,,,,,,,,,,378,2023-11-13_16h28.17.580,leap3,2022.2.5,59.994512925718574,
,,,,,,,,,,,,,,,,,,,,4,0,4,0,24,0,24,0,,,,,,houted,nw,h,upper,,,,,,,1,aftertar2,HiDemTar,h,1,0.6505620665848255,,,,,,,,,,,,,,,,,,378,2023-11-13_16h28.17.580,leap3,2022.2.5,59.994512925718574,
,,,,,,,,,,,,,,,,,,,,4,0,4,0,25,0,25,0,,,,,,ements,nw,h,upper,,,,,,,1,aftertar3,HiDemTar,h,1,0.6711803148500621,,,,,,,,,,,,,,,,,,378,2023-11-13_16h28.17.580,leap3,2022.2.5,59.994512925718574,
,,,,,,,,,,,,,,,,,,,,4,0,4,0,26,0,26,0,,,,,,axis,w,g,upper,,,,,,,1,nw,HiDemTar,g,1,0.9472071300260723,,,,,,,,,,,,,,,,,,378,2023-11-13_16h28.17.580,leap3,2022.2.5,59.994512925718574,
,,,,,,,,,,,,,,,,,,,,4,0,4,0,27,0,27,0,,,,,,fission,w,g,upper,,,,,,,1,w,HiDemTar,g,1,0.7965285331010818,,,,,,,,,,,,,,,,,,378,2023-11-13_16h28.17.580,leap3,2022.2.5,59.994512925718574,
,,,,,,,,,,,,,,,,,,,,4,0,4,0,28,0,28,0,,,,,,ilcurring,nw,h,upper,,,,,,,1,w,HiDemTar,h,1,0.7239111382514238,,,,,,,,,,,,,,,,,,378,2023-11-13_16h28.17.580,leap3,2022.2.5,59.994512925718574,
,,,,,,,,,,,,,,,,,,,,4,0,4,0,29,0,29,0,,,,,,burning,w,g,upper,,,,,,,1,nw,HiDemTar,g,1,0.8859041598625481,,,,,,,,,,,,,,,,,,378,2023-11-13_16h28.17.580,leap3,2022.2.5,59.994512925718574,
,,,,,,,,,,,,,,,,,,,,4,0,4,0,,,,,,,,,,,,,,,,,,,,,,,,,,1,,,,,,,,,,,,,,,,,378,2023-11-13_16h28.17.580,leap3,2022.2.5,59.994512925718574,
,,,,,,,,,,,,,,,,,,,,5,0,5,0,0,0,0,0,,,,,,olerates,nw,h,upper,,,,,,,2,nw,HiDemNoTar,h,1,1.1201562848873436,,,,,,,,,,,,,,,,,,378,2023-11-13_16h28.17.580,leap3,2022.2.5,59.994512925718574,
,,,,,,,,,,,,,,,,,,,,5,0,5,0,1,0,1,0,,,,,,digest,w,g,upper,,,,,,,2,w,HiDemNoTar,g,1,0.6421969868242741,,,,,,,,,,,,,,,,,,378,2023-11-13_16h28.17.580,leap3,2022.2.5,59.994512925718574,
,,,,,,,,,,,,,,,,,,,,5,0,5,0,2,0,2,0,,,,,,tibs,nw,h,upper,,,,,,,2,nw,HiDemNoTar,h,1,0.6714157555252314,,,,,,,,,,,,,,,,,,378,2023-11-13_16h28.17.580,leap3,2022.2.5,59.994512925718574,
,,,,,,,,,,,,,,,,,,,,5,0,5,0,3,0,3,0,,,,,,dingly,nw,h,upper,,,,,,,2,nw,HiDemNoTar,h,1,0.7142656240612268,,,,,,,,,,,,,,,,,,378,2023-11-13_16h28.17.580,leap3,2022.2.5,59.994512925718574,
,,,,,,,,,,,,,,,,,,,,5,0,5,0,4,0,4,0,,,,,,redefloy,nw,h,upper,,,,,,,2,nw,HiDemNoTar,h,1,0.6289154258556664,,,,,,,,,,,,,,,,,,378,2023-11-13_16h28.17.580,leap3,2022.2.5,59.994512925718574,
,,,,,,,,,,,,,,,,,,,,5,0,5,0,5,0,5,0,,,,,,arrigns,nw,h,upper,,,,,,,2,nw,HiDemNoTar,h,1,0.9304244485683739,,,,,,,,,,,,,,,,,,378,2023-11-13_16h28.17.580,leap3,2022.2.5,59.994512925718574,
,,,,,,,,,,,,,,,,,,,,5,0,5,0,6,0,6,0,,,,,,golemic,nw,h,upper,,,,,,,2,nw,HiDemNoTar,h,1,0.5572250024415553,,,,,,,,,,,,,,,,,,378,2023-11-13_16h28.17.580,leap3,2022.2.5,59.994512925718574,
,,,,,,,,,,,,,,,,,,,,5,0,5,0,7,0,7,0,,,,,,squadroim,nw,h,upper,,,,,,,2,nw,HiDemNoTar,h,1,0.5571090928278863,,,,,,,,,,,,,,,,,,378,2023-11-13_16h28.17.580,leap3,2022.2.5,59.994512925718574,
,,,,,,,,,,,,,,,,,,,,5,0,5,0,8,0,8,0,,,,,,irregular,w,g,upper,,,,,,,2,w,HiDemNoTar,g,1,0.7584252054803073,,,,,,,,,,,,,,,,,,378,2023-11-13_16h28.17.580,leap3,2022.2.5,59.994512925718574,
,,,,,,,,,,,,,,,,,,,,5,0,5,0,9,0,9,0,,,,,,splum,nw,h,upper,,,,,,,2,nw,HiDemNoTar,h,1,0.6311608641408384,,,,,,,,,,,,,,,,,,378,2023-11-13_16h28.17.580,leap3,2022.2.5,59.994512925718574,
,,,,,,,,,,,,,,,,,,,,5,0,5,0,10,0,10,0,,,,,,retreat,w,g,upper,,,,,,,2,w,HiDemNoTar,g,1,0.6131098223850131,,,,,,,,,,,,,,,,,,378,2023-11-13_16h28.17.580,leap3,2022.2.5,59.994512925718574,
,,,,,,,,,,,,,,,,,,,,5,0,5,0,11,0,11,0,,,,,,resume,w,g,upper,,,,,,,2,w,HiDemNoTar,g,1,0.8357963860034943,,,,,,,,,,,,,,,,,,378,2023-11-13_16h28.17.580,leap3,2022.2.5,59.994512925718574,
,,,,,,,,,,,,,,,,,,,,5,0,5,0,12,0,12,0,,,,,,artifact,w,g,upper,,,,,,,2,w,HiDemNoTar,g,1,0.793178335763514,,,,,,,,,,,,,,,,,,378,2023-11-13_16h28.17.580,leap3,2022.2.5,59.994512925718574,
,,,,,,,,,,,,,,,,,,,,5,0,5,0,13,0,13,0,,,,,,rational,w,g,upper,,,,,,,2,w,HiDemNoTar,g,1,0.9197674454189837,,,,,,,,,,,,,,,,,,378,2023-11-13_16h28.17.580,leap3,2022.2.5,59.994512925718574,
,,,,,,,,,,,,,,,,,,,,5,0,5,0,14,0,14,0,,,,,,trises,nw,h,upper,,,,,,,2,nw,HiDemNoTar,h,1,0.9855244671925902,,,,,,,,,,,,,,,,,,378,2023-11-13_16h28.17.580,leap3,2022.2.5,59.994512925718574,
,,,,,,,,,,,,,,,,,,,,5,0,5,0,15,0,15,0,,,,,,satisfies,w,g,upper,,,,,,,2,w,HiDemNoTar,g,1,0.872901807539165,,,,,,,,,,,,,,,,,,378,2023-11-13_16h28.17.580,leap3,2022.2.5,59.994512925718574,
,,,,,,,,,,,,,,,,,,,,5,0,5,0,16,0,16,0,,,,,,maiden,w,g,upper,,,,,,,2,w,HiDemNoTar,g,1,0.9728855383582413,,,,,,,,,,,,,,,,,,378,2023-11-13_16h28.17.580,leap3,2022.2.5,59.994512925718574,
,,,,,,,,,,,,,,,,,,,,5,0,5,0,17,0,17,0,,,,,,egcused,nw,h,upper,,,,,,,2,nw,HiDemNoTar,h,1,0.6849004593677819,,,,,,,,,,,,,,,,,,378,2023-11-13_16h28.17.580,leap3,2022.2.5,59.994512925718574,
,,,,,,,,,,,,,,,,,,,,5,0,5,0,18,0,18,0,,,,,,religious,w,g,upper,,,,,,,2,w,HiDemNoTar,g,1,0.7361809080466628,,,,,,,,,,,,,,,,,,378,2023-11-13_16h28.17.580,leap3,2022.2.5,59.994512925718574,
,,,,,,,,,,,,,,,,,,,,5,0,5,0,19,0,19,0,,,,,,chyme,nw,h,upper,,,,,,,2,nw,HiDemNoTar,g,0,1.1375701278448105,,,,,,,,,,,,,,,,,,378,2023-11-13_16h28.17.580,leap3,2022.2.5,59.994512925718574,
,,,,,,,,,,,,,,,,,,,,5,0,5,0,20,0,20,0,,,,,,alber,nw,h,upper,,,,,,,2,nw,HiDemNoTar,h,1,0.7709104944951832,,,,,,,,,,,,,,,,,,378,2023-11-13_16h28.17.580,leap3,2022.2.5,59.994512925718574,
,,,,,,,,,,,,,,,,,,,,5,0,5,0,21,0,21,0,,,,,,hinsome,nw,h,upper,,,,,,,2,nw,HiDemNoTar,h,1,0.7068540779873729,,,,,,,,,,,,,,,,,,378,2023-11-13_16h28.17.580,leap3,2022.2.5,59.994512925718574,
,,,,,,,,,,,,,,,,,,,,5,0,5,0,22,0,22,0,,,,,,airline,w,g,upper,,,,,,,2,w,HiDemNoTar,g,1,0.7015038435347378,,,,,,,,,,,,,,,,,,378,2023-11-13_16h28.17.580,leap3,2022.2.5,59.994512925718574,
,,,,,,,,,,,,,,,,,,,,5,0,5,0,23,0,23,0,,,,,,distrust,w,g,upper,,,,,,,2,w,HiDemNoTar,g,1,0.7833453742787242,,,,,,,,,,,,,,,,,,378,2023-11-13_16h28.17.580,leap3,2022.2.5,59.994512925718574,
,,,,,,,,,,,,,,,,,,,,5,0,5,0,24,0,24,0,,,,,,living,w,g,upper,,,,,,,2,w,HiDemNoTar,g,1,0.6951560056768358,,,,,,,,,,,,,,,,,,378,2023-11-13_16h28.17.580,leap3,2022.2.5,59.994512925718574,
,,,,,,,,,,,,,,,,,,,,5,0,5,0,25,0,25,0,,,,,,odacles,nw,h,upper,,,,,,,2,nw,HiDemNoTar,h,1,0.7065374404191971,,,,,,,,,,,,,,,,,,378,2023-11-13_16h28.17.580,leap3,2022.2.5,59.994512925718574,
,,,,,,,,,,,,,,,,,,,,5,0,5,0,26,0,26,0,,,,,,pressing,w,g,upper,,,,,,,2,w,HiDemNoTar,g,1,0.9092296720482409,,,,,,,,,,,,,,,,,,378,2023-11-13_16h28.17.580,leap3,2022.2.5,59.994512925718574,
,,,,,,,,,,,,,,,,,,,,5,0,5,0,27,0,27,0,,,,,,numbled,nw,h,upper,,,,,,,2,nw,HiDemNoTar,h,1,1.2787239491008222,,,,,,,,,,,,,,,,,,378,2023-11-13_16h28.17.580,leap3,2022.2.5,59.994512925718574,
,,,,,,,,,,,,,,,,,,,,5,0,5,0,28,0,28,0,,,,,,flicking,w,g,upper,,,,,,,2,w,HiDemNoTar,g,1,0.7784044444561005,,,,,,,,,,,,,,,,,,378,2023-11-13_16h28.17.580,leap3,2022.2.5,59.994512925718574,
,,,,,,,,,,,,,,,,,,,,5,0,5,0,29,0,29,0,,,,,,binder,w,g,upper,,,,,,,2,w,HiDemNoTar,g,1,0.8583600367419422,,,,,,,,,,,,,,,,,,378,2023-11-13_16h28.17.580,leap3,2022.2.5,59.994512925718574,
,,,,,,,,,,,,,,,,,,,,5,0,5,0,,,,,,,,,,,,,,,,,,,,,,,,,,NA,,,,,,,,,,,,,,,,,378,2023-11-13_16h28.17.580,leap3,2022.2.5,59.994512925718574,
,,,,,,,,,,,,,,,,,,,,6,0,6,0,0,0,0,0,,,,,,curricula,w,g,upper,,,,,,,1,w,HiDemTar,g,1,0.9178760736249387,,,,,,,,,,,,,,,,,,378,2023-11-13_16h28.17.580,leap3,2022.2.5,59.994512925718574,
,,,,,,,,,,,,,,,,,,,,6,0,6,0,1,0,1,0,,,,,,ulcer,w,g,upper,,,,,,,1,w,HiDemTar,g,1,0.7520991005003452,,,,,,,,,,,,,,,,,,378,2023-11-13_16h28.17.580,leap3,2022.2.5,59.994512925718574,
,,,,,,,,,,,,,,,,,,,,6,0,6,0,2,0,2,0,,,,,,mitro,nw,h,upper,,,,,,,1,nw,HiDemTar,h,1,0.848766440525651,,,,,,,,,,,,,,,,,,378,2023-11-13_16h28.17.580,leap3,2022.2.5,59.994512925718574,
,,,,,,,,,,,,,,,,,,,,6,0,6,0,3,0,3,0,,,,,,donastic,nw,h,upper,,,,,,,1,nw,HiDemTar,h,1,0.7341138613410294,,,,,,,,,,,,,,,,,,378,2023-11-13_16h28.17.580,leap3,2022.2.5,59.994512925718574,
,,,,,,,,,,,,,,,,,,,,6,0,6,0,4,0,4,0,,,,,,reason,w,g,upper,,,,,,,1,w,HiDemTar,g,1,0.5835641529411077,,,,,,,,,,,,,,,,,,378,2023-11-13_16h28.17.580,leap3,2022.2.5,59.994512925718574,
,,,,,,,,,,,,,,,,,,,,6,0,6,0,5,0,5,0,,,,,,failure,w,g,upper,,,,,,,1,w,HiDemTar,g,1,0.5265419743955135,,,,,,,,,,,,,,,,,,378,2023-11-13_16h28.17.580,leap3,2022.2.5,59.994512925718574,
,,,,,,,,,,,,,,,,,,,,6,0,6,0,6,0,6,0,,,,,,amms,nw,h,upper,,,,,,,1,nw,HiDemTar,h,1,0.7934669009409845,,,,,,,,,,,,,,,,,,378,2023-11-13_16h28.17.580,leap3,2022.2.5,59.994512925718574,
,,,,,,,,,,,,,,,,,,,,6,0,6,0,7,0,7,0,,,,,,epthuse,nw,h,upper,,,,,,,1,nw,HiDemTar,h,1,0.7597807995043695,,,,,,,,,,,,,,,,,,378,2023-11-13_16h28.17.580,leap3,2022.2.5,59.994512925718574,
,,,,,,,,,,,,,,,,,,,,6,0,6,0,8,0,8,0,,,,,,dileting,nw,h,upper,,,,,,,1,nw,HiDemTar,h,1,0.6085054511204362,,,,,,,,,,,,,,,,,,378,2023-11-13_16h28.17.580,leap3,2022.2.5,59.994512925718574,
,,,,,,,,,,,,,,,,,,,,6,0,6,0,9,0,9,0,,,,,,galashes,nw,h,upper,,,,,,,1,nw,HiDemTar,h,1,0.7591583915054798,,,,,,,,,,,,,,,,,,378,2023-11-13_16h28.17.580,leap3,2022.2.5,59.994512925718574,
,,,,,,,,,,,,,,,,,,,,6,0,6,0,10,0,10,0,,,,,,perishing,w,g,upper,,,,,,,1,w,HiDemTar,g,1,0.8158437092788517,,,,,,,,,,,,,,,,,,378,2023-11-13_16h28.17.580,leap3,2022.2.5,59.994512925718574,
,,,,,,,,,,,,,,,,,,,,6,0,6,0,11,0,11,0,,,,,,vergas,nw,h,upper,,,,,,,1,nw,HiDemTar,h,1,1.0224750419147313,,,,,,,,,,,,,,,,,,378,2023-11-13_16h28.17.580,leap3,2022.2.5,59.994512925718574,
,,,,,,,,,,,,,,,,,,,,6,0,6,0,12,0,12,0,,,,,,integral,w,g,upper,,,,,,,1,w,HiDemTar,g,1,0.548533022403717,,,,,,,,,,,,,,,,,,378,2023-11-13_16h28.17.580,leap3,2022.2.5,59.994512925718574,
,,,,,,,,,,,,,,,,,,,,6,0,6,0,13,0,13,0,,,,,,natch,nw,h,upper,,,,,,,1,nw,HiDemTar,h,1,0.701855796854943,,,,,,,,,,,,,,,,,,378,2023-11-13_16h28.17.580,leap3,2022.2.5,59.994512925718574,
,,,,,,,,,,,,,,,,,,,,6,0,6,0,14,0,14,0,,,,,,emotion,w,g,upper,,,,,,,1,w,HiDemTar,g,1,0.6075953831896186,,,,,,,,,,,,,,,,,,378,2023-11-13_16h28.17.580,leap3,2022.2.5,59.994512925718574,
,,,,,,,,,,,,,,,,,,,,6,0,6,0,15,0,15,0,,,,,,spider,target,q,upper,,,,,,,1,target,HiDemTar,g,0,0.6312701324932277,,,,,,,,,,,,,,,,,,378,2023-11-13_16h28.17.580,leap3,2022.2.5,59.994512925718574,
,,,,,,,,,,,,,,,,,,,,6,0,6,0,16,0,16,0,,,,,,neliefs,nw,h,upper,,,,,,,1,aftertar1,HiDemTar,h,1,0.7801611926406622,,,,,,,,,,,,,,,,,,378,2023-11-13_16h28.17.580,leap3,2022.2.5,59.994512925718574,
,,,,,,,,,,,,,,,,,,,,6,0,6,0,17,0,17,0,,,,,,seartfelt,nw,h,upper,,,,,,,1,aftertar2,HiDemTar,h,1,0.682474818546325,,,,,,,,,,,,,,,,,,378,2023-11-13_16h28.17.580,leap3,2022.2.5,59.994512925718574,
,,,,,,,,,,,,,,,,,,,,6,0,6,0,18,0,18,0,,,,,,zears,nw,h,upper,,,,,,,1,aftertar3,HiDemTar,h,1,0.5739563694223762,,,,,,,,,,,,,,,,,,378,2023-11-13_16h28.17.580,leap3,2022.2.5,59.994512925718574,
,,,,,,,,,,,,,,,,,,,,6,0,6,0,19,0,19,0,,,,,,require,w,g,upper,,,,,,,1,nw,HiDemTar,g,1,0.6460476461797953,,,,,,,,,,,,,,,,,,378,2023-11-13_16h28.17.580,leap3,2022.2.5,59.994512925718574,
,,,,,,,,,,,,,,,,,,,,6,0,6,0,20,0,20,0,,,,,,caloric,w,g,upper,,,,,,,1,w,HiDemTar,g,1,0.602980749681592,,,,,,,,,,,,,,,,,,378,2023-11-13_16h28.17.580,leap3,2022.2.5,59.994512925718574,
,,,,,,,,,,,,,,,,,,,,6,0,6,0,21,0,21,0,,,,,,jiggling,w,g,upper,,,,,,,1,w,HiDemTar,g,1,0.7928912793286145,,,,,,,,,,,,,,,,,,378,2023-11-13_16h28.17.580,leap3,2022.2.5,59.994512925718574,
,,,,,,,,,,,,,,,,,,,,6,0,6,0,22,0,22,0,,,,,,antonym,w,g,upper,,,,,,,1,w,HiDemTar,g,1,0.9435001495294273,,,,,,,,,,,,,,,,,,378,2023-11-13_16h28.17.580,leap3,2022.2.5,59.994512925718574,
,,,,,,,,,,,,,,,,,,,,6,0,6,0,23,0,23,0,,,,,,plunging,w,g,upper,,,,,,,1,w,HiDemTar,g,1,0.7601910089142621,,,,,,,,,,,,,,,,,,378,2023-11-13_16h28.17.580,leap3,2022.2.5,59.994512925718574,
,,,,,,,,,,,,,,,,,,,,6,0,6,0,24,0,24,0,,,,,,detrabe,nw,h,upper,,,,,,,1,w,HiDemTar,h,1,0.7602064036764205,,,,,,,,,,,,,,,,,,378,2023-11-13_16h28.17.580,leap3,2022.2.5,59.994512925718574,
,,,,,,,,,,,,,,,,,,,,6,0,6,0,25,0,25,0,,,,,,anterior,w,g,upper,,,,,,,1,nw,HiDemTar,g,1,0.8231336106546223,,,,,,,,,,,,,,,,,,378,2023-11-13_16h28.17.580,leap3,2022.2.5,59.994512925718574,
,,,,,,,,,,,,,,,,,,,,6,0,6,0,26,0,26,0,,,,,,esdings,nw,h,upper,,,,,,,1,w,HiDemTar,h,1,0.6772057805210352,,,,,,,,,,,,,,,,,,378,2023-11-13_16h28.17.580,leap3,2022.2.5,59.994512925718574,
,,,,,,,,,,,,,,,,,,,,6,0,6,0,27,0,27,0,,,,,,erony,nw,h,upper,,,,,,,1,nw,HiDemTar,h,1,0.9131443230435252,,,,,,,,,,,,,,,,,,378,2023-11-13_16h28.17.580,leap3,2022.2.5,59.994512925718574,
,,,,,,,,,,,,,,,,,,,,6,0,6,0,28,0,28,0,,,,,,saturate,w,g,upper,,,,,,,1,nw,HiDemTar,g,1,0.6278022150509059,,,,,,,,,,,,,,,,,,378,2023-11-13_16h28.17.580,leap3,2022.2.5,59.994512925718574,
,,,,,,,,,,,,,,,,,,,,6,0,6,0,29,0,29,0,,,,,,sliding,w,g,upper,,,,,,,1,w,HiDemTar,g,1,0.5698249926790595,,,,,,,,,,,,,,,,,,378,2023-11-13_16h28.17.580,leap3,2022.2.5,59.994512925718574,
,,,,,,,,,,,,,,,,,,,,6,0,6,0,,,,,,,,,,,,,,,,,,,,,,,,,,0,,,,,,,,,,,,,,,,,378,2023-11-13_16h28.17.580,leap3,2022.2.5,59.994512925718574,
,,,,,,,,,,,,,,,,,,,,7,0,7,0,0,0,0,0,,,,,,labitable,nw,h,lower,,,,,,,3,nw,LoDemNoTar,h,1,0.7048172154463828,,,,,,,,,,,,,,,,,,378,2023-11-13_16h28.17.580,leap3,2022.2.5,59.994512925718574,
,,,,,,,,,,,,,,,,,,,,7,0,7,0,1,0,1,0,,,,,,boutique,w,g,lower,,,,,,,3,w,LoDemNoTar,g,1,0.6915096961893141,,,,,,,,,,,,,,,,,,378,2023-11-13_16h28.17.580,leap3,2022.2.5,59.994512925718574,
,,,,,,,,,,,,,,,,,,,,7,0,7,0,2,0,2,0,,,,,,mystery,w,g,lower,,,,,,,3,w,LoDemNoTar,g,1,0.9268089276738465,,,,,,,,,,,,,,,,,,378,2023-11-13_16h28.17.580,leap3,2022.2.5,59.994512925718574,
,,,,,,,,,,,,,,,,,,,,7,0,7,0,3,0,3,0,,,,,,obviously,w,g,lower,,,,,,,3,w,LoDemNoTar,g,1,0.6167829958721995,,,,,,,,,,,,,,,,,,378,2023-11-13_16h28.17.580,leap3,2022.2.5,59.994512925718574,
,,,,,,,,,,,,,,,,,,,,7,0,7,0,4,0,4,0,,,,,,podges,nw,h,lower,,,,,,,3,nw,LoDemNoTar,h,1,0.7435061261057854,,,,,,,,,,,,,,,,,,378,2023-11-13_16h28.17.580,leap3,2022.2.5,59.994512925718574,
,,,,,,,,,,,,,,,,,,,,7,0,7,0,5,0,5,0,,,,,,digested,w,g,lower,,,,,,,3,w,LoDemNoTar,g,1,0.6248229867778718,,,,,,,,,,,,,,,,,,378,2023-11-13_16h28.17.580,leap3,2022.2.5,59.994512925718574,
,,,,,,,,,,,,,,,,,,,,7,0,7,0,6,0,6,0,,,,,,roaned,nw,h,lower,,,,,,,3,nw,LoDemNoTar,h,1,0.6708636782132089,,,,,,,,,,,,,,,,,,378,2023-11-13_16h28.17.580,leap3,2022.2.5,59.994512925718574,
,,,,,,,,,,,,,,,,,,,,7,0,7,0,7,0,7,0,,,,,,sludding,nw,h,lower,,,,,,,3,nw,LoDemNoTar,h,1,0.8090246883220971,,,,,,,,,,,,,,,,,,378,2023-11-13_16h28.17.580,leap3,2022.2.5,59.994512925718574,
,,,,,,,,,,,,,,,,,,,,7,0,7,0,8,0,8,0,,,,,,brudent,nw,h,lower,,,,,,,3,nw,LoDemNoTar,h,1,0.7263032738119364,,,,,,,,,,,,,,,,,,378,2023-11-13_16h28.17.580,leap3,2022.2.5,59.994512925718574,
,,,,,,,,,,,,,,,,,,,,7,0,7,0,9,0,9,0,,,,,,shests,nw,h,lower,,,,,,,3,nw,LoDemNoTar,h,1,0.6242558169178665,,,,,,,,,,,,,,,,,,378,2023-11-13_16h28.17.580,leap3,2022.2.5,59.994512925718574,
,,,,,,,,,,,,,,,,,,,,7,0,7,0,10,0,10,0,,,,,,nollow,nw,h,lower,,,,,,,3,nw,LoDemNoTar,h,1,0.6218389295972884,,,,,,,,,,,,,,,,,,378,2023-11-13_16h28.17.580,leap3,2022.2.5,59.994512925718574,
,,,,,,,,,,,,,,,,,,,,7,0,7,0,11,0,11,0,,,,,,elpired,nw,h,lower,,,,,,,3,nw,LoDemNoTar,h,1,0.7391860946081579,,,,,,,,,,,,,,,,,,378,2023-11-13_16h28.17.580,leap3,2022.2.5,59.994512925718574,
,,,,,,,,,,,,,,,,,,,,7,0,7,0,12,0,12,0,,,,,,migmarole,nw,h,lower,,,,,,,3,nw,LoDemNoTar,h,1,0.7718045641668141,,,,,,,,,,,,,,,,,,378,2023-11-13_16h28.17.580,leap3,2022.2.5,59.994512925718574,
,,,,,,,,,,,,,,,,,,,,7,0,7,0,13,0,13,0,,,,,,afford,w,g,lower,,,,,,,3,w,LoDemNoTar,h,0,0.5951251871883869,,,,,,,,,,,,,,,,,,378,2023-11-13_16h28.17.580,leap3,2022.2.5,59.994512925718574,
,,,,,,,,,,,,,,,,,,,,7,0,7,0,14,0,14,0,,,,,,gablus,nw,h,lower,,,,,,,3,nw,LoDemNoTar,h,1,0.6898154304362833,,,,,,,,,,,,,,,,,,378,2023-11-13_16h28.17.580,leap3,2022.2.5,59.994512925718574,
,,,,,,,,,,,,,,,,,,,,7,0,7,0,15,0,15,0,,,,,,finish,w,g,lower,,,,,,,3,w,LoDemNoTar,g,1,0.5724736982956529,,,,,,,,,,,,,,,,,,378,2023-11-13_16h28.17.580,leap3,2022.2.5,59.994512925718574,
,,,,,,,,,,,,,,,,,,,,7,0,7,0,16,0,16,0,,,,,,sording,nw,h,lower,,,,,,,3,nw,LoDemNoTar,h,1,0.8830800815485418,,,,,,,,,,,,,,,,,,378,2023-11-13_16h28.17.580,leap3,2022.2.5,59.994512925718574,
,,,,,,,,,,,,,,,,,,,,7,0,7,0,17,0,17,0,,,,,,unwose,nw,h,lower,,,,,,,3,nw,LoDemNoTar,h,1,0.814259918872267,,,,,,,,,,,,,,,,,,378,2023-11-13_16h28.17.580,leap3,2022.2.5,59.994512925718574,
,,,,,,,,,,,,,,,,,,,,7,0,7,0,18,0,18,0,,,,,,graiking,nw,h,lower,,,,,,,3,nw,LoDemNoTar,h,1,0.6280956100672483,,,,,,,,,,,,,,,,,,378,2023-11-13_16h28.17.580,leap3,2022.2.5,59.994512925718574,
,,,,,,,,,,,,,,,,,,,,7,0,7,0,19,0,19,0,,,,,,ethical,w,g,lower,,,,,,,3,w,LoDemNoTar,g,1,0.6734354123473167,,,,,,,,,,,,,,,,,,378,2023-11-13_16h28.17.580,leap3,2022.2.5,59.994512925718574,
,,,,,,,,,,,,,,,,,,,,7,0,7,0,20,0,20,0,,,,,,ipiocy,nw,h,lower,,,,,,,3,nw,LoDemNoTar,h,1,1.3248301409184933,,,,,,,,,,,,,,,,,,378,2023-11-13_16h28.17.580,leap3,2022.2.5,59.994512925718574,
,,,,,,,,,,,,,,,,,,,,7,0,7,0,21,0,21,0,,,,,,pallir,nw,h,lower,,,,,,,3,nw,LoDemNoTar,h,1,0.6462124544195831,,,,,,,,,,,,,,,,,,378,2023-11-13_16h28.17.580,leap3,2022.2.5,59.994512925718574,
,,,,,,,,,,,,,,,,,,,,7,0,7,0,22,0,22,0,,,,,,oppose,w,g,lower,,,,,,,3,w,LoDemNoTar,g,1,0.7708157147280872,,,,,,,,,,,,,,,,,,378,2023-11-13_16h28.17.580,leap3,2022.2.5,59.994512925718574,
,,,,,,,,,,,,,,,,,,,,7,0,7,0,23,0,23,0,,,,,,purpose,w,g,lower,,,,,,,3,w,LoDemNoTar,g,1,0.7221519751474261,,,,,,,,,,,,,,,,,,378,2023-11-13_16h28.17.580,leap3,2022.2.5,59.994512925718574,
,,,,,,,,,,,,,,,,,,,,7,0,7,0,24,0,24,0,,,,,,defeat,w,g,lower,,,,,,,3,w,LoDemNoTar,g,1,0.6035702563822269,,,,,,,,,,,,,,,,,,378,2023-11-13_16h28.17.580,leap3,2022.2.5,59.994512925718574,
,,,,,,,,,,,,,,,,,,,,7,0,7,0,25,0,25,0,,,,,,treason,w,g,lower,,,,,,,3,w,LoDemNoTar,g,1,0.5535684302449226,,,,,,,,,,,,,,,,,,378,2023-11-13_16h28.17.580,leap3,2022.2.5,59.994512925718574,
,,,,,,,,,,,,,,,,,,,,7,0,7,0,26,0,26,0,,,,,,urgent,w,g,lower,,,,,,,3,w,LoDemNoTar,g,1,0.8244532849639654,,,,,,,,,,,,,,,,,,378,2023-11-13_16h28.17.580,leap3,2022.2.5,59.994512925718574,
,,,,,,,,,,,,,,,,,,,,7,0,7,0,27,0,27,0,,,,,,stooping,w,g,lower,,,,,,,3,w,LoDemNoTar,h,0,0.8138702348805964,,,,,,,,,,,,,,,,,,378,2023-11-13_16h28.17.580,leap3,2022.2.5,59.994512925718574,
,,,,,,,,,,,,,,,,,,,,7,0,7,0,28,0,28,0,,,,,,railway,w,g,lower,,,,,,,3,w,LoDemNoTar,g,1,0.571888115722686,,,,,,,,,,,,,,,,,,378,2023-11-13_16h28.17.580,leap3,2022.2.5,59.994512925718574,
,,,,,,,,,,,,,,,,,,,,7,0,7,0,29,0,29,0,,,,,,railroad,w,g,lower,,,,,,,3,w,LoDemNoTar,g,1,0.7952043311670423,,,,,,,,,,,,,,,,,,378,2023-11-13_16h28.17.580,leap3,2022.2.5,59.994512925718574,
,,,,,,,,,,,,,,,,,,,,7,0,7,0,,,,,,,,,,,,,,,,,,,,,,,,,,NA,,,,,,,,,,,,,,,,,378,2023-11-13_16h28.17.580,leap3,2022.2.5,59.994512925718574,
,,,,,,,,,,,,,,,,,,,,8,0,8,0,0,0,0,0,,,,,,chraps,nw,h,lower,,,,,,,3,nw,LoDemNoTar,h,1,0.7296157404780388,,,,,,,,,,,,,,,,,,378,2023-11-13_16h28.17.580,leap3,2022.2.5,59.994512925718574,
,,,,,,,,,,,,,,,,,,,,8,0,8,0,1,0,1,0,,,,,,gettle,nw,h,lower,,,,,,,3,nw,LoDemNoTar,h,1,0.730747364461422,,,,,,,,,,,,,,,,,,378,2023-11-13_16h28.17.580,leap3,2022.2.5,59.994512925718574,
,,,,,,,,,,,,,,,,,,,,8,0,8,0,2,0,2,0,,,,,,primal,w,g,lower,,,,,,,3,w,LoDemNoTar,g,1,0.7802116014063358,,,,,,,,,,,,,,,,,,378,2023-11-13_16h28.17.580,leap3,2022.2.5,59.994512925718574,
,,,,,,,,,,,,,,,,,,,,8,0,8,0,3,0,3,0,,,,,,pypecast,nw,h,lower,,,,,,,3,nw,LoDemNoTar,h,1,0.8914433503523469,,,,,,,,,,,,,,,,,,378,2023-11-13_16h28.17.580,leap3,2022.2.5,59.994512925718574,
,,,,,,,,,,,,,,,,,,,,8,0,8,0,4,0,4,0,,,,,,miability,nw,h,lower,,,,,,,3,nw,LoDemNoTar,h,1,0.6300790454261005,,,,,,,,,,,,,,,,,,378,2023-11-13_16h28.17.580,leap3,2022.2.5,59.994512925718574,
,,,,,,,,,,,,,,,,,,,,8,0,8,0,5,0,5,0,,,,,,veclors,nw,h,lower,,,,,,,3,nw,LoDemNoTar,h,1,0.6514857178553939,,,,,,,,,,,,,,,,,,378,2023-11-13_16h28.17.580,leap3,2022.2.5,59.994512925718574,
,,,,,,,,,,,,,,,,,,,,8,0,8,0,6,0,6,0,,,,,,anonymous,w,g,lower,,,,,,,3,w,LoDemNoTar,g,1,0.8881468819454312,,,,,,,,,,,,,,,,,,378,2023-11-13_16h28.17.580,leap3,2022.2.5,59.994512925718574,
,,,,,,,,,,,,,,,,,,,,8,0,8,0,7,0,7,0,,,,,,incorrect,w,g,lower,,,,,,,3,w,LoDemNoTar,g,1,0.6587943341583014,,,,,,,,,,,,,,,,,,378,2023-11-13_16h28.17.580,leap3,2022.2.5,59.994512925718574,
,,,,,,,,,,,,,,,,,,,,8,0,8,0,8,0,8,0,,,,,,intended,w,g,lower,,,,,,,3,w,LoDemNoTar,g,1,0.565861442591995,,,,,,,,,,,,,,,,,,378,2023-11-13_16h28.17.580,leap3,2022.2.5,59.994512925718574,
,,,,,,,,,,,,,,,,,,,,8,0,8,0,9,0,9,0,,,,,,fards,nw,h,lower,,,,,,,3,nw,LoDemNoTar,h,1,0.814811997115612,,,,,,,,,,,,,,,,,,378,2023-11-13_16h28.17.580,leap3,2022.2.5,59.994512925718574,
,,,,,,,,,,,,,,,,,,,,8,0,8,0,10,0,10,0,,,,,,issue,w,g,lower,,,,,,,3,w,LoDemNoTar,g,1,0.6838892721571028,,,,,,,,,,,,,,,,,,378,2023-11-13_16h28.17.580,leap3,2022.2.5,59.994512925718574,
,,,,,,,,,,,,,,,,,,,,8,0,8,0,11,0,11,0,,,,,,eyesight,w,g,lower,,,,,,,3,w,LoDemNoTar,g,1,0.5191231840290129,,,,,,,,,,,,,,,,,,378,2023-11-13_16h28.17.580,leap3,2022.2.5,59.994512925718574,
,,,,,,,,,,,,,,,,,,,,8,0,8,0,12,0,12,0,,,,,,frunted,nw,h,lower,,,,,,,3,nw,LoDemNoTar,h,1,1.1770616485737264,,,,,,,,,,,,,,,,,,378,2023-11-13_16h28.17.580,leap3,2022.2.5,59.994512925718574,
,,,,,,,,,,,,,,,,,,,,8,0,8,0,13,0,13,0,,,,,,ubefully,nw,h,lower,,,,,,,3,nw,LoDemNoTar,h,1,1.0084696523845196,,,,,,,,,,,,,,,,,,378,2023-11-13_16h28.17.580,leap3,2022.2.5,59.994512925718574,
,,,,,,,,,,,,,,,,,,,,8,0,8,0,14,0,14,0,,,,,,fravity,nw,h,lower,,,,,,,3,nw,LoDemNoTar,h,1,0.7264807596802711,,,,,,,,,,,,,,,,,,378,2023-11-13_16h28.17.580,leap3,2022.2.5,59.994512925718574,
,,,,,,,,,,,,,,,,,,,,8,0,8,0,15,0,15,0,,,,,,acorn,w,g,lower,,,,,,,3,w,LoDemNoTar,g,1,0.7758218431845307,,,,,,,,,,,,,,,,,,378,2023-11-13_16h28.17.580,leap3,2022.2.5,59.994512925718574,
,,,,,,,,,,,,,,,,,,,,8,0,8,0,16,0,16,0,,,,,,crazy,w,g,lower,,,,,,,3,w,LoDemNoTar,g,1,0.7751752873882651,,,,,,,,,,,,,,,,,,378,2023-11-13_16h28.17.580,leap3,2022.2.5,59.994512925718574,
,,,,,,,,,,,,,,,,,,,,8,0,8,0,17,0,17,0,,,,,,colicky,w,g,lower,,,,,,,3,w,LoDemNoTar,h,0,1.1177369826473296,,,,,,,,,,,,,,,,,,378,2023-11-13_16h28.17.580,leap3,2022.2.5,59.994512925718574,
,,,,,,,,,,,,,,,,,,,,8,0,8,0,18,0,18,0,,,,,,remade,w,g,lower,,,,,,,3,w,LoDemNoTar,g,1,1.6555543104186654,,,,,,,,,,,,,,,,,,378,2023-11-13_16h28.17.580,leap3,2022.2.5,59.994512925718574,
,,,,,,,,,,,,,,,,,,,,8,0,8,0,19,0,19,0,,,,,,lenie,nw,h,lower,,,,,,,3,nw,LoDemNoTar,h,1,0.7315466543659568,,,,,,,,,,,,,,,,,,378,2023-11-13_16h28.17.580,leap3,2022.2.5,59.994512925718574,
,,,,,,,,,,,,,,,,,,,,8,0,8,0,20,0,20,0,,,,,,gaioty,nw,h,lower,,,,,,,3,nw,LoDemNoTar,h,1,0.7157959872856736,,,,,,,,,,,,,,,,,,378,2023-11-13_16h28.17.580,leap3,2022.2.5,59.994512925718574,
,,,,,,,,,,,,,,,,,,,,8,0,8,0,21,0,21,0,,,,,,telecast,w,g,lower,,,,,,,3,w,LoDemNoTar,g,1,0.7339532789774239,,,,,,,,,,,,,,,,,,378,2023-11-13_16h28.17.580,leap3,2022.2.5,59.994512925718574,
,,,,,,,,,,,,,,,,,,,,8,0,8,0,22,0,22,0,,,,,,lawsuit,w,g,lower,,,,,,,3,w,LoDemNoTar,g,1,0.6399747906252742,,,,,,,,,,,,,,,,,,378,2023-11-13_16h28.17.580,leap3,2022.2.5,59.994512925718574,
,,,,,,,,,,,,,,,,,,,,8,0,8,0,23,0,23,0,,,,,,frader,nw,h,lower,,,,,,,3,nw,LoDemNoTar,h,1,0.8529120041057467,,,,,,,,,,,,,,,,,,378,2023-11-13_16h28.17.580,leap3,2022.2.5,59.994512925718574,
,,,,,,,,,,,,,,,,,,,,8,0,8,0,24,0,24,0,,,,,,bamps,nw,h,lower,,,,,,,3,nw,LoDemNoTar,h,1,1.2639198736287653,,,,,,,,,,,,,,,,,,378,2023-11-13_16h28.17.580,leap3,2022.2.5,59.994512925718574,
,,,,,,,,,,,,,,,,,,,,8,0,8,0,25,0,25,0,,,,,,persona,w,g,lower,,,,,,,3,w,LoDemNoTar,g,1,0.7558112125843763,,,,,,,,,,,,,,,,,,378,2023-11-13_16h28.17.580,leap3,2022.2.5,59.994512925718574,
,,,,,,,,,,,,,,,,,,,,8,0,8,0,26,0,26,0,,,,,,nature,w,g,lower,,,,,,,3,w,LoDemNoTar,g,1,0.715780290775001,,,,,,,,,,,,,,,,,,378,2023-11-13_16h28.17.580,leap3,2022.2.5,59.994512925718574,
,,,,,,,,,,,,,,,,,,,,8,0,8,0,27,0,27,0,,,,,,country,w,g,lower,,,,,,,3,w,LoDemNoTar,g,1,0.6139115276746452,,,,,,,,,,,,,,,,,,378,2023-11-13_16h28.17.580,leap3,2022.2.5,59.994512925718574,
,,,,,,,,,,,,,,,,,,,,8,0,8,0,28,0,28,0,,,,,,plapping,nw,h,lower,,,,,,,3,nw,LoDemNoTar,h,1,1.1958642890676856,,,,,,,,,,,,,,,,,,378,2023-11-13_16h28.17.580,leap3,2022.2.5,59.994512925718574,
,,,,,,,,,,,,,,,,,,,,8,0,8,0,29,0,29,0,,,,,,praiged,nw,h,lower,,,,,,,3,nw,LoDemNoTar,h,1,0.8665252947248518,,,,,,,,,,,,,,,,,,378,2023-11-13_16h28.17.580,leap3,2022.2.5,59.994512925718574,
,,,,,,,,,,,,,,,,,,,,8,0,8,0,,,,,,,,,,,,,,,,,,,,,,,,,,NA,,,,,,,,,,,,,,,,,378,2023-11-13_16h28.17.580,leap3,2022.2.5,59.994512925718574,
,,,,,,,,,,,,,,,,,,,,9,0,9,0,0,0,0,0,,,,,,puyer,nw,h,upper,,,,,,,1,nw,HiDemTar,h,1,0.7101131179369986,,,,,,,,,,,,,,,,,,378,2023-11-13_16h28.17.580,leap3,2022.2.5,59.994512925718574,
,,,,,,,,,,,,,,,,,,,,9,0,9,0,1,0,1,0,,,,,,sazer,nw,h,upper,,,,,,,1,nw,HiDemTar,h,1,0.8481615395285189,,,,,,,,,,,,,,,,,,378,2023-11-13_16h28.17.580,leap3,2022.2.5,59.994512925718574,
,,,,,,,,,,,,,,,,,,,,9,0,9,0,2,0,2,0,,,,,,practice,w,g,upper,,,,,,,1,w,HiDemTar,g,1,0.6048395223915577,,,,,,,,,,,,,,,,,,378,2023-11-13_16h28.17.580,leap3,2022.2.5,59.994512925718574,
,,,,,,,,,,,,,,,,,,,,9,0,9,0,3,0,3,0,,,,,,disease,w,g,upper,,,,,,,1,w,HiDemTar,g,1,0.5788028216920793,,,,,,,,,,,,,,,,,,378,2023-11-13_16h28.17.580,leap3,2022.2.5,59.994512925718574,
,,,,,,,,,,,,,,,,,,,,9,0,9,0,4,0,4,0,,,,,,earnest,w,g,upper,,,,,,,1,w,HiDemTar,g,1,1.114164324477315,,,,,,,,,,,,,,,,,,378,2023-11-13_16h28.17.580,leap3,2022.2.5,59.994512925718574,
,,,,,,,,,,,,,,,,,,,,9,0,9,0,5,0,5,0,,,,,,tasher,nw,h,upper,,,,,,,1,nw,HiDemTar,h,1,0.9401439148932695,,,,,,,,,,,,,,,,,,378,2023-11-13_16h28.17.580,leap3,2022.2.5,59.994512925718574,
,,,,,,,,,,,,,,,,,,,,9,0,9,0,6,0,6,0,,,,,,surround,w,g,upper,,,,,,,1,w,HiDemTar,g,1,1.196857063099742,,,,,,,,,,,,,,,,,,378,2023-11-13_16h28.17.580,leap3,2022.2.5,59.994512925718574,
,,,,,,,,,,,,,,,,,,,,9,0,9,0,7,0,7,0,,,,,,huests,nw,h,upper,,,,,,,1,nw,HiDemTar,h,1,0.7306459438987076,,,,,,,,,,,,,,,,,,378,2023-11-13_16h28.17.580,leap3,2022.2.5,59.994512925718574,
,,,,,,,,,,,,,,,,,,,,9,0,9,0,8,0,8,0,,,,,,dariner,nw,h,upper,,,,,,,1,nw,HiDemTar,h,1,1.0518972557038069,,,,,,,,,,,,,,,,,,378,2023-11-13_16h28.17.580,leap3,2022.2.5,59.994512925718574,
,,,,,,,,,,,,,,,,,,,,9,0,9,0,9,0,9,0,,,,,,resonant,w,g,upper,,,,,,,1,w,HiDemTar,g,1,1.023394466843456,,,,,,,,,,,,,,,,,,378,2023-11-13_16h28.17.580,leap3,2022.2.5,59.994512925718574,
,,,,,,,,,,,,,,,,,,,,9,0,9,0,10,0,10,0,,,,,,outset,w,g,upper,,,,,,,1,w,HiDemTar,g,1,0.7491902029141784,,,,,,,,,,,,,,,,,,378,2023-11-13_16h28.17.580,leap3,2022.2.5,59.994512925718574,
,,,,,,,,,,,,,,,,,,,,9,0,9,0,11,0,11,0,,,,,,plogging,nw,h,upper,,,,,,,1,nw,HiDemTar,h,1,0.8064867607317865,,,,,,,,,,,,,,,,,,378,2023-11-13_16h28.17.580,leap3,2022.2.5,59.994512925718574,
,,,,,,,,,,,,,,,,,,,,9,0,9,0,12,0,12,0,,,,,,envelop,w,g,upper,,,,,,,1,w,HiDemTar,g,1,1.2765557835809886,,,,,,,,,,,,,,,,,,378,2023-11-13_16h28.17.580,leap3,2022.2.5,59.994512925718574,
,,,,,,,,,,,,,,,,,,,,9,0,9,0,13,0,13,0,,,,,,region,w,g,upper,,,,,,,1,w,HiDemTar,g,1,0.8318195538595319,,,,,,,,,,,,,,,,,,378,2023-11-13_16h28.17.580,leap3,2022.2.5,59.994512925718574,
,,,,,,,,,,,,,,,,,,,,9,0,9,0,14,0,14,0,,,,,,fonducts,nw,h,upper,,,,,,,1,nw,HiDemTar,h,1,1.1572559718042612,,,,,,,,,,,,,,,,,,378,2023-11-13_16h28.17.580,leap3,2022.2.5,59.994512925718574,
,,,,,,,,,,,,,,,,,,,,9,0,9,0,15,0,15,0,,,,,,metebing,nw,h,upper,,,,,,,1,nw,HiDemTar,h,1,0.8043750403448939,,,,,,,,,,,,,,,,,,378,2023-11-13_16h28.17.580,leap3,2022.2.5,59.994512925718574,
,,,,,,,,,,,,,,,,,,,,9,0,9,0,16,0,16,0,,,,,,sustain,w,g,upper,,,,,,,1,w,HiDemTar,g,1,0.9703503269702196,,,,,,,,,,,,,,,,,,378,2023-11-13_16h28.17.580,leap3,2022.2.5,59.994512925718574,
,,,,,,,,,,,,,,,,,,,,9,0,9,0,17,0,17,0,,,,,,gestalion,nw,h,upper,,,,,,,1,nw,HiDemTar,h,1,0.7215147763490677,,,,,,,,,,,,,,,,,,378,2023-11-13_16h28.17.580,leap3,2022.2.5,59.994512925718574,
,,,,,,,,,,,,,,,,,,,,9,0,9,0,18,0,18,0,,,,,,monkey,target,q,upper,,,,,,,1,target,HiDemTar,g,0,0.6428755382075906,,,,,,,,,,,,,,,,,,378,2023-11-13_16h28.17.580,leap3,2022.2.5,59.994512925718574,
,,,,,,,,,,,,,,,,,,,,9,0,9,0,19,0,19,0,,,,,,number,w,g,upper,,,,,,,1,aftertar1,HiDemTar,g,1,0.6475662370212376,,,,,,,,,,,,,,,,,,378,2023-11-13_16h28.17.580,leap3,2022.2.5,59.994512925718574,
,,,,,,,,,,,,,,,,,,,,9,0,9,0,20,0,20,0,,,,,,stuggard,nw,h,upper,,,,,,,1,aftertar2,HiDemTar,h,1,0.7642309269867837,,,,,,,,,,,,,,,,,,378,2023-11-13_16h28.17.580,leap3,2022.2.5,59.994512925718574,
,,,,,,,,,,,,,,,,,,,,9,0,9,0,21,0,21,0,,,,,,harmful,w,g,upper,,,,,,,1,aftertar3,HiDemTar,g,1,0.9401750052347779,,,,,,,,,,,,,,,,,,378,2023-11-13_16h28.17.580,leap3,2022.2.5,59.994512925718574,
,,,,,,,,,,,,,,,,,,,,9,0,9,0,22,0,22,0,,,,,,glamorous,w,g,upper,,,,,,,1,w,HiDemTar,g,1,0.6687009455636144,,,,,,,,,,,,,,,,,,378,2023-11-13_16h28.17.580,leap3,2022.2.5,59.994512925718574,
,,,,,,,,,,,,,,,,,,,,9,0,9,0,23,0,23,0,,,,,,guivers,nw,h,upper,,,,,,,1,w,HiDemTar,h,1,0.8326940042898059,,,,,,,,,,,,,,,,,,378,2023-11-13_16h28.17.580,leap3,2022.2.5,59.994512925718574,
,,,,,,,,,,,,,,,,,,,,9,0,9,0,24,0,24,0,,,,,,funtair,nw,h,upper,,,,,,,1,nw,HiDemTar,h,1,1.6941055790521204,,,,,,,,,,,,,,,,,,378,2023-11-13_16h28.17.580,leap3,2022.2.5,59.994512925718574,
,,,,,,,,,,,,,,,,,,,,9,0,9,0,25,0,25,0,,,,,,personify,w,g,upper,,,,,,,1,nw,HiDemTar,g,1,0.8477489151991904,,,,,,,,,,,,,,,,,,378,2023-11-13_16h28.17.580,leap3,2022.2.5,59.994512925718574,
,,,,,,,,,,,,,,,,,,,,9,0,9,0,26,0,26,0,,,,,,worps,nw,h,upper,,,,,,,1,w,HiDemTar,h,1,0.9724499732255936,,,,,,,,,,,,,,,,,,378,2023-11-13_16h28.17.580,leap3,2022.2.5,59.994512925718574,
,,,,,,,,,,,,,,,,,,,,9,0,9,0,27,0,27,0,,,,,,skiing,w,g,upper,,,,,,,1,nw,HiDemTar,g,1,1.0437884433194995,,,,,,,,,,,,,,,,,,378,2023-11-13_16h28.17.580,leap3,2022.2.5,59.994512925718574,
,,,,,,,,,,,,,,,,,,,,9,0,9,0,28,0,28,0,,,,,,intersect,w,g,upper,,,,,,,1,w,HiDemTar,g,1,1.0484546930529177,,,,,,,,,,,,,,,,,,378,2023-11-13_16h28.17.580,leap3,2022.2.5,59.994512925718574,
,,,,,,,,,,,,,,,,,,,,9,0,9,0,29,0,29,0,,,,,,offonents,nw,h,upper,,,,,,,1,w,HiDemTar,h,1,0.773135406896472,,,,,,,,,,,,,,,,,,378,2023-11-13_16h28.17.580,leap3,2022.2.5,59.994512925718574,
,,,,,,,,,,,,,,,,,,,,9,0,9,0,,,,,,,,,,,,,,,,,,,,,,,,,,0,,,,,,,,,,,,,,,,,378,2023-11-13_16h28.17.580,leap3,2022.2.5,59.994512925718574,
,,,,,,,,,,,,,,,,,,,,10,0,10,0,0,0,0,0,,,,,,infancy,w,g,lower,,,,,,,3,w,LoDemNoTar,g,1,0.7314358768053353,,,,,,,,,,,,,,,,,,378,2023-11-13_16h28.17.580,leap3,2022.2.5,59.994512925718574,
,,,,,,,,,,,,,,,,,,,,10,0,10,0,1,0,1,0,,,,,,rejoiced,w,g,lower,,,,,,,3,w,LoDemNoTar,g,1,0.7568667703308165,,,,,,,,,,,,,,,,,,378,2023-11-13_16h28.17.580,leap3,2022.2.5,59.994512925718574,
,,,,,,,,,,,,,,,,,,,,10,0,10,0,2,0,2,0,,,,,,geissue,nw,h,lower,,,,,,,3,nw,LoDemNoTar,h,1,0.7166647021658719,,,,,,,,,,,,,,,,,,378,2023-11-13_16h28.17.580,leap3,2022.2.5,59.994512925718574,
,,,,,,,,,,,,,,,,,,,,10,0,10,0,3,0,3,0,,,,,,sonnet,w,g,lower,,,,,,,3,w,LoDemNoTar,h,0,0.6627464140765369,,,,,,,,,,,,,,,,,,378,2023-11-13_16h28.17.580,leap3,2022.2.5,59.994512925718574,
,,,,,,,,,,,,,,,,,,,,10,0,10,0,4,0,4,0,,,,,,rangel,nw,h,lower,,,,,,,3,nw,LoDemNoTar,h,1,0.7307570232078433,,,,,,,,,,,,,,,,,,378,2023-11-13_16h28.17.580,leap3,2022.2.5,59.994512925718574,
,,,,,,,,,,,,,,,,,,,,10,0,10,0,5,0,5,0,,,,,,slooping,nw,h,lower,,,,,,,3,nw,LoDemNoTar,h,1,0.7241465784609318,,,,,,,,,,,,,,,,,,378,2023-11-13_16h28.17.580,leap3,2022.2.5,59.994512925718574,
,,,,,,,,,,,,,,,,,,,,10,0,10,0,6,0,6,0,,,,,,brother,w,g,lower,,,,,,,3,w,LoDemNoTar,g,1,0.844628422986716,,,,,,,,,,,,,,,,,,378,2023-11-13_16h28.17.580,leap3,2022.2.5,59.994512925718574,
,,,,,,,,,,,,,,,,,,,,10,0,10,0,7,0,7,0,,,,,,bullet,w,g,lower,,,,,,,3,w,LoDemNoTar,g,1,1.0251412545330822,,,,,,,,,,,,,,,,,,378,2023-11-13_16h28.17.580,leap3,2022.2.5,59.994512925718574,
,,,,,,,,,,,,,,,,,,,,10,0,10,0,8,0,8,0,,,,,,mineluyer,nw,h,lower,,,,,,,3,nw,LoDemNoTar,h,1,0.7184555591084063,,,,,,,,,,,,,,,,,,378,2023-11-13_16h28.17.580,leap3,2022.2.5,59.994512925718574,
,,,,,,,,,,,,,,,,,,,,10,0,10,0,9,0,9,0,,,,,,forgive,w,g,lower,,,,,,,3,w,LoDemNoTar,g,1,0.6324370722286403,,,,,,,,,,,,,,,,,,378,2023-11-13_16h28.17.580,leap3,2022.2.5,59.994512925718574,
,,,,,,,,,,,,,,,,,,,,10,0,10,0,10,0,10,0,,,,,,alarm,w,g,lower,,,,,,,3,w,LoDemNoTar,g,1,0.805793116800487,,,,,,,,,,,,,,,,,,378,2023-11-13_16h28.17.580,leap3,2022.2.5,59.994512925718574,
,,,,,,,,,,,,,,,,,,,,10,0,10,0,11,0,11,0,,,,,,ebciting,nw,h,lower,,,,,,,3,nw,LoDemNoTar,h,1,0.6758646755479276,,,,,,,,,,,,,,,,,,378,2023-11-13_16h28.17.580,leap3,2022.2.5,59.994512925718574,
,,,,,,,,,,,,,,,,,,,,10,0,10,0,12,0,12,0,,,,,,throttle,w,g,lower,,,,,,,3,w,LoDemNoTar,g,1,1.015358701813966,,,,,,,,,,,,,,,,,,378,2023-11-13_16h28.17.580,leap3,2022.2.5,59.994512925718574,
,,,,,,,,,,,,,,,,,,,,10,0,10,0,13,0,13,0,,,,,,ofsters,nw,h,lower,,,,,,,3,nw,LoDemNoTar,h,1,0.6611810363829136,,,,,,,,,,,,,,,,,,378,2023-11-13_16h28.17.580,leap3,2022.2.5,59.994512925718574,
,,,,,,,,,,,,,,,,,,,,10,0,10,0,14,0,14,0,,,,,,baults,nw,h,lower,,,,,,,3,nw,LoDemNoTar,h,1,0.7122800755314529,,,,,,,,,,,,,,,,,,378,2023-11-13_16h28.17.580,leap3,2022.2.5,59.994512925718574,
,,,,,,,,,,,,,,,,,,,,10,0,10,0,15,0,15,0,,,,,,cheathe,nw,h,lower,,,,,,,3,nw,LoDemNoTar,h,1,0.7471989197656512,,,,,,,,,,,,,,,,,,378,2023-11-13_16h28.17.580,leap3,2022.2.5,59.994512925718574,
,,,,,,,,,,,,,,,,,,,,10,0,10,0,16,0,16,0,,,,,,omission,w,g,lower,,,,,,,3,w,LoDemNoTar,g,1,0.7789070196449757,,,,,,,,,,,,,,,,,,378,2023-11-13_16h28.17.580,leap3,2022.2.5,59.994512925718574,
,,,,,,,,,,,,,,,,,,,,10,0,10,0,17,0,17,0,,,,,,rapport,w,g,lower,,,,,,,3,w,LoDemNoTar,g,1,0.946201678365469,,,,,,,,,,,,,,,,,,378,2023-11-13_16h28.17.580,leap3,2022.2.5,59.994512925718574,
,,,,,,,,,,,,,,,,,,,,10,0,10,0,18,0,18,0,,,,,,rebool,nw,h,lower,,,,,,,3,nw,LoDemNoTar,h,1,0.8669240339659154,,,,,,,,,,,,,,,,,,378,2023-11-13_16h28.17.580,leap3,2022.2.5,59.994512925718574,
,,,,,,,,,,,,,,,,,,,,10,0,10,0,19,0,19,0,,,,,,grummer,nw,h,lower,,,,,,,3,nw,LoDemNoTar,h,1,0.8789263674989343,,,,,,,,,,,,,,,,,,378,2023-11-13_16h28.17.580,leap3,2022.2.5,59.994512925718574,
,,,,,,,,,,,,,,,,,,,,10,0,10,0,20,0,20,0,,,,,,reses,nw,h,lower,,,,,,,3,nw,LoDemNoTar,h,1,1.2328981733880937,,,,,,,,,,,,,,,,,,378,2023-11-13_16h28.17.580,leap3,2022.2.5,59.994512925718574,
,,,,,,,,,,,,,,,,,,,,10,0,10,0,21,0,21,0,,,,,,noblin,nw,h,lower,,,,,,,3,nw,LoDemNoTar,h,1,0.6868829890154302,,,,,,,,,,,,,,,,,,378,2023-11-13_16h28.17.580,leap3,2022.2.5,59.994512925718574,
,,,,,,,,,,,,,,,,,,,,10,0,10,0,22,0,22,0,,,,,,athcan,nw,h,lower,,,,,,,3,nw,LoDemNoTar,h,1,0.7702751071192324,,,,,,,,,,,,,,,,,,378,2023-11-13_16h28.17.580,leap3,2022.2.5,59.994512925718574,
,,,,,,,,,,,,,,,,,,,,10,0,10,0,23,0,23,0,,,,,,contain,w,g,lower,,,,,,,3,w,LoDemNoTar,g,1,0.7844975241459906,,,,,,,,,,,,,,,,,,378,2023-11-13_16h28.17.580,leap3,2022.2.5,59.994512925718574,
,,,,,,,,,,,,,,,,,,,,10,0,10,0,24,0,24,0,,,,,,intercede,w,g,lower,,,,,,,3,w,LoDemNoTar,g,1,1.199609000235796,,,,,,,,,,,,,,,,,,378,2023-11-13_16h28.17.580,leap3,2022.2.5,59.994512925718574,
,,,,,,,,,,,,,,,,,,,,10,0,10,0,25,0,25,0,,,,,,maximized,w,g,lower,,,,,,,3,w,LoDemNoTar,g,1,1.0537065253593028,,,,,,,,,,,,,,,,,,378,2023-11-13_16h28.17.580,leap3,2022.2.5,59.994512925718574,
,,,,,,,,,,,,,,,,,,,,10,0,10,0,26,0,26,0,,,,,,noblest,w,g,lower,,,,,,,3,w,LoDemNoTar,g,1,1.850684676785022,,,,,,,,,,,,,,,,,,378,2023-11-13_16h28.17.580,leap3,2022.2.5,59.994512925718574,
,,,,,,,,,,,,,,,,,,,,10,0,10,0,27,0,27,0,,,,,,begut,nw,h,lower,,,,,,,3,nw,LoDemNoTar,h,1,0.8871984789147973,,,,,,,,,,,,,,,,,,378,2023-11-13_16h28.17.580,leap3,2022.2.5,59.994512925718574,
,,,,,,,,,,,,,,,,,,,,10,0,10,0,28,0,28,0,,,,,,flacked,nw,h,lower,,,,,,,3,nw,LoDemNoTar,h,1,0.9779330203309655,,,,,,,,,,,,,,,,,,378,2023-11-13_16h28.17.580,leap3,2022.2.5,59.994512925718574,
,,,,,,,,,,,,,,,,,,,,10,0,10,0,29,0,29,0,,,,,,enunciate,w,g,lower,,,,,,,3,w,LoDemNoTar,g,1,1.257167862728238,,,,,,,,,,,,,,,,,,378,2023-11-13_16h28.17.580,leap3,2022.2.5,59.994512925718574,
,,,,,,,,,,,,,,,,,,,,10,0,10,0,,,,,,,,,,,,,,,,,,,,,,,,,,NA,,,,,,,,,,,,,,,,,378,2023-11-13_16h28.17.580,leap3,2022.2.5,59.994512925718574,
,,,,,,,,,,,,,,,,,,,,11,0,11,0,0,0,0,0,,,,,,blipover,nw,h,upper,,,,,,,1,nw,HiDemTar,h,1,1.0128313386812806,,,,,,,,,,,,,,,,,,378,2023-11-13_16h28.17.580,leap3,2022.2.5,59.994512925718574,
,,,,,,,,,,,,,,,,,,,,11,0,11,0,1,0,1,0,,,,,,tapling,nw,h,upper,,,,,,,1,nw,HiDemTar,h,1,0.8268574946559966,,,,,,,,,,,,,,,,,,378,2023-11-13_16h28.17.580,leap3,2022.2.5,59.994512925718574,
,,,,,,,,,,,,,,,,,,,,11,0,11,0,2,0,2,0,,,,,,earmaff,nw,h,upper,,,,,,,1,nw,HiDemTar,h,1,0.7521244552917778,,,,,,,,,,,,,,,,,,378,2023-11-13_16h28.17.580,leap3,2022.2.5,59.994512925718574,
,,,,,,,,,,,,,,,,,,,,11,0,11,0,3,0,3,0,,,,,,brouhuha,nw,h,upper,,,,,,,1,nw,HiDemTar,h,1,0.7528063277713954,,,,,,,,,,,,,,,,,,378,2023-11-13_16h28.17.580,leap3,2022.2.5,59.994512925718574,
,,,,,,,,,,,,,,,,,,,,11,0,11,0,4,0,4,0,,,,,,acoustic,w,g,upper,,,,,,,1,w,HiDemTar,g,1,1.7129218024201691,,,,,,,,,,,,,,,,,,378,2023-11-13_16h28.17.580,leap3,2022.2.5,59.994512925718574,
,,,,,,,,,,,,,,,,,,,,11,0,11,0,5,0,5,0,,,,,,admire,w,g,upper,,,,,,,1,w,HiDemTar,g,1,0.6738815419375896,,,,,,,,,,,,,,,,,,378,2023-11-13_16h28.17.580,leap3,2022.2.5,59.994512925718574,
,,,,,,,,,,,,,,,,,,,,11,0,11,0,6,0,6,0,,,,,,rascaps,nw,h,upper,,,,,,,1,nw,HiDemTar,h,1,0.9731252044439316,,,,,,,,,,,,,,,,,,378,2023-11-13_16h28.17.580,leap3,2022.2.5,59.994512925718574,
,,,,,,,,,,,,,,,,,,,,11,0,11,0,7,0,7,0,,,,,,pammed,nw,h,upper,,,,,,,1,nw,HiDemTar,h,1,1.2673730007372797,,,,,,,,,,,,,,,,,,378,2023-11-13_16h28.17.580,leap3,2022.2.5,59.994512925718574,
,,,,,,,,,,,,,,,,,,,,11,0,11,0,8,0,8,0,,,,,,violate,w,g,upper,,,,,,,1,w,HiDemTar,g,1,1.0956324404105544,,,,,,,,,,,,,,,,,,378,2023-11-13_16h28.17.580,leap3,2022.2.5,59.994512925718574,
,,,,,,,,,,,,,,,,,,,,11,0,11,0,9,0,9,0,,,,,,endgume,nw,h,upper,,,,,,,1,nw,HiDemTar,h,1,0.9150598435662687,,,,,,,,,,,,,,,,,,378,2023-11-13_16h28.17.580,leap3,2022.2.5,59.994512925718574,
,,,,,,,,,,,,,,,,,,,,11,0,11,0,10,0,10,0,,,,,,season,w,g,upper,,,,,,,1,w,HiDemTar,g,1,0.828952613286674,,,,,,,,,,,,,,,,,,378,2023-11-13_16h28.17.580,leap3,2022.2.5,59.994512925718574,
,,,,,,,,,,,,,,,,,,,,11,0,11,0,11,0,11,0,,,,,,extruded,w,g,upper,,,,,,,1,w,HiDemTar,h,0,1.066407332662493,,,,,,,,,,,,,,,,,,378,2023-11-13_16h28.17.580,leap3,2022.2.5,59.994512925718574,
,,,,,,,,,,,,,,,,,,,,11,0,11,0,12,0,12,0,,,,,,reforest,w,g,upper,,,,,,,1,w,HiDemTar,h,0,1.3421078510582447,,,,,,,,,,,,,,,,,,378,2023-11-13_16h28.17.580,leap3,2022.2.5,59.994512925718574,
,,,,,,,,,,,,,,,,,,,,11,0,11,0,13,0,13,0,,,,,,partner,w,g,upper,,,,,,,1,w,HiDemTar,g,1,0.7416355814784765,,,,,,,,,,,,,,,,,,378,2023-11-13_16h28.17.580,leap3,2022.2.5,59.994512925718574,
,,,,,,,,,,,,,,,,,,,,11,0,11,0,14,0,14,0,,,,,,flamingo,target,q,upper,,,,,,,1,target,HiDemTar,q,1,0.8463643435388803,,1,,,,,,,,,,,,,,,,378,2023-11-13_16h28.17.580,leap3,2022.2.5,59.994512925718574,
,,,,,,,,,,,,,,,,,,,,11,0,11,0,15,0,15,0,,,,,,handbook,w,g,upper,,,,,,,1,aftertar1,HiDemTar,g,1,0.9466719557531178,,,,,,,,,,,,,,,,,,378,2023-11-13_16h28.17.580,leap3,2022.2.5,59.994512925718574,
,,,,,,,,,,,,,,,,,,,,11,0,11,0,16,0,16,0,,,,,,image,w,g,upper,,,,,,,1,aftertar2,HiDemTar,g,1,0.6031678947620094,,,,,,,,,,,,,,,,,,378,2023-11-13_16h28.17.580,leap3,2022.2.5,59.994512925718574,
,,,,,,,,,,,,,,,,,,,,11,0,11,0,17,0,17,0,,,,,,refebs,nw,h,upper,,,,,,,1,aftertar3,HiDemTar,h,1,0.7931451322510839,,,,,,,,,,,,,,,,,,378,2023-11-13_16h28.17.580,leap3,2022.2.5,59.994512925718574,
,,,,,,,,,,,,,,,,,,,,11,0,11,0,18,0,18,0,,,,,,impirt,nw,h,upper,,,,,,,1,nw,HiDemTar,h,1,0.863585910294205,,,,,,,,,,,,,,,,,,378,2023-11-13_16h28.17.580,leap3,2022.2.5,59.994512925718574,
,,,,,,,,,,,,,,,,,,,,11,0,11,0,19,0,19,0,,,,,,movie,w,g,upper,,,,,,,1,nw,HiDemTar,g,1,0.6193556361831725,,,,,,,,,,,,,,,,,,378,2023-11-13_16h28.17.580,leap3,2022.2.5,59.994512925718574,
,,,,,,,,,,,,,,,,,,,,11,0,11,0,20,0,20,0,,,,,,fabstand,nw,h,upper,,,,,,,1,w,HiDemTar,h,1,0.9524173075333238,,,,,,,,,,,,,,,,,,378,2023-11-13_16h28.17.580,leap3,2022.2.5,59.994512925718574,
,,,,,,,,,,,,,,,,,,,,11,0,11,0,21,0,21,0,,,,,,pocket,w,g,upper,,,,,,,1,nw,HiDemTar,g,1,0.9042069418355823,,,,,,,,,,,,,,,,,,378,2023-11-13_16h28.17.580,leap3,2022.2.5,59.994512925718574,
,,,,,,,,,,,,,,,,,,,,11,0,11,0,22,0,22,0,,,,,,butcher,w,g,upper,,,,,,,1,w,HiDemTar,g,1,0.5780400549992919,,,,,,,,,,,,,,,,,,378,2023-11-13_16h28.17.580,leap3,2022.2.5,59.994512925718574,
,,,,,,,,,,,,,,,,,,,,11,0,11,0,23,0,23,0,,,,,,lignpost,nw,h,upper,,,,,,,1,w,HiDemTar,h,1,0.7374468534253538,,,,,,,,,,,,,,,,,,378,2023-11-13_16h28.17.580,leap3,2022.2.5,59.994512925718574,
,,,,,,,,,,,,,,,,,,,,11,0,11,0,24,0,24,0,,,,,,collision,w,g,upper,,,,,,,1,nw,HiDemTar,g,1,0.6740726111456752,,,,,,,,,,,,,,,,,,378,2023-11-13_16h28.17.580,leap3,2022.2.5,59.994512925718574,
,,,,,,,,,,,,,,,,,,,,11,0,11,0,25,0,25,0,,,,,,miteous,nw,h,upper,,,,,,,1,w,HiDemTar,h,1,0.9814250855706632,,,,,,,,,,,,,,,,,,378,2023-11-13_16h28.17.580,leap3,2022.2.5,59.994512925718574,
,,,,,,,,,,,,,,,,,,,,11,0,11,0,26,0,26,0,,,,,,shillac,nw,h,upper,,,,,,,1,nw,HiDemTar,h,1,0.964824115857482,,,,,,,,,,,,,,,,,,378,2023-11-13_16h28.17.580,leap3,2022.2.5,59.994512925718574,
,,,,,,,,,,,,,,,,,,,,11,0,11,0,27,0,27,0,,,,,,culer,nw,h,upper,,,,,,,1,nw,HiDemTar,h,1,0.931538263335824,,,,,,,,,,,,,,,,,,378,2023-11-13_16h28.17.580,leap3,2022.2.5,59.994512925718574,
,,,,,,,,,,,,,,,,,,,,11,0,11,0,28,0,28,0,,,,,,felevance,nw,h,upper,,,,,,,1,nw,HiDemTar,h,1,1.1163312825374305,,,,,,,,,,,,,,,,,,378,2023-11-13_16h28.17.580,leap3,2022.2.5,59.994512925718574,
,,,,,,,,,,,,,,,,,,,,11,0,11,0,29,0,29,0,,,,,,purport,w,g,upper,,,,,,,1,nw,HiDemTar,h,0,1.2392387674190104,,,,,,,,,,,,,,,,,,378,2023-11-13_16h28.17.580,leap3,2022.2.5,59.994512925718574,
,,,,,,,,,,,,,,,,,,,,11,0,11,0,,,,,,,,,,,,,,,,,,,,,,,,,,1,,,,,,,,,,,,,,,,,378,2023-11-13_16h28.17.580,leap3,2022.2.5,59.994512925718574,
,,,,,,,,,,,,,,,,,,,,12,0,12,0,0,0,0,0,,,,,,suburb,w,g,lower,,,,,,,3,w,LoDemNoTar,g,1,0.8444524458609521,,,,,,,,,,,,,,,,,,378,2023-11-13_16h28.17.580,leap3,2022.2.5,59.994512925718574,
,,,,,,,,,,,,,,,,,,,,12,0,12,0,1,0,1,0,,,,,,minimum,w,g,lower,,,,,,,3,w,LoDemNoTar,g,1,0.6011319379322231,,,,,,,,,,,,,,,,,,378,2023-11-13_16h28.17.580,leap3,2022.2.5,59.994512925718574,
,,,,,,,,,,,,,,,,,,,,12,0,12,0,2,0,2,0,,,,,,trooper,w,g,lower,,,,,,,3,w,LoDemNoTar,g,1,0.7597491056658328,,,,,,,,,,,,,,,,,,378,2023-11-13_16h28.17.580,leap3,2022.2.5,59.994512925718574,
,,,,,,,,,,,,,,,,,,,,12,0,12,0,3,0,3,0,,,,,,frigs,nw,h,lower,,,,,,,3,nw,LoDemNoTar,h,1,0.6877797753550112,,,,,,,,,,,,,,,,,,378,2023-11-13_16h28.17.580,leap3,2022.2.5,59.994512925718574,
,,,,,,,,,,,,,,,,,,,,12,0,12,0,4,0,4,0,,,,,,pretzel,w,g,lower,,,,,,,3,w,LoDemNoTar,g,1,1.3295054454356432,,,,,,,,,,,,,,,,,,378,2023-11-13_16h28.17.580,leap3,2022.2.5,59.994512925718574,
,,,,,,,,,,,,,,,,,,,,12,0,12,0,5,0,5,0,,,,,,grested,nw,h,lower,,,,,,,3,nw,LoDemNoTar,h,1,0.8907675151713192,,,,,,,,,,,,,,,,,,378,2023-11-13_16h28.17.580,leap3,2022.2.5,59.994512925718574,
,,,,,,,,,,,,,,,,,,,,12,0,12,0,6,0,6,0,,,,,,provide,w,g,lower,,,,,,,3,w,LoDemNoTar,g,1,1.3734685252420604,,,,,,,,,,,,,,,,,,378,2023-11-13_16h28.17.580,leap3,2022.2.5,59.994512925718574,
,,,,,,,,,,,,,,,,,,,,12,0,12,0,7,0,7,0,,,,,,emission,w,g,lower,,,,,,,3,w,LoDemNoTar,g,1,1.108872044365853,,,,,,,,,,,,,,,,,,378,2023-11-13_16h28.17.580,leap3,2022.2.5,59.994512925718574,
,,,,,,,,,,,,,,,,,,,,12,0,12,0,8,0,8,0,,,,,,newstrint,nw,h,lower,,,,,,,3,nw,LoDemNoTar,h,1,0.8308515315875411,,,,,,,,,,,,,,,,,,378,2023-11-13_16h28.17.580,leap3,2022.2.5,59.994512925718574,
,,,,,,,,,,,,,,,,,,,,12,0,12,0,9,0,9,0,,,,,,decantel,nw,h,lower,,,,,,,3,nw,LoDemNoTar,h,1,0.7721598381176591,,,,,,,,,,,,,,,,,,378,2023-11-13_16h28.17.580,leap3,2022.2.5,59.994512925718574,
,,,,,,,,,,,,,,,,,,,,12,0,12,0,10,0,10,0,,,,,,otoist,nw,h,lower,,,,,,,3,nw,LoDemNoTar,h,1,0.7306317570619285,,,,,,,,,,,,,,,,,,378,2023-11-13_16h28.17.580,leap3,2022.2.5,59.994512925718574,
,,,,,,,,,,,,,,,,,,,,12,0,12,0,11,0,11,0,,,,,,illness,w,g,lower,,,,,,,3,w,LoDemNoTar,g,1,0.6518234838731587,,,,,,,,,,,,,,,,,,378,2023-11-13_16h28.17.580,leap3,2022.2.5,59.994512925718574,
,,,,,,,,,,,,,,,,,,,,12,0,12,0,12,0,12,0,,,,,,elormity,nw,h,lower,,,,,,,3,nw,LoDemNoTar,h,1,0.6244218326173723,,,,,,,,,,,,,,,,,,378,2023-11-13_16h28.17.580,leap3,2022.2.5,59.994512925718574,
,,,,,,,,,,,,,,,,,,,,12,0,12,0,13,0,13,0,,,,,,slutches,nw,h,lower,,,,,,,3,nw,LoDemNoTar,h,1,1.709928387310356,,,,,,,,,,,,,,,,,,378,2023-11-13_16h28.17.580,leap3,2022.2.5,59.994512925718574,
,,,,,,,,,,,,,,,,,,,,12,0,12,0,14,0,14,0,,,,,,threaded,w,g,lower,,,,,,,3,w,LoDemNoTar,g,1,0.8781255683861673,,,,,,,,,,,,,,,,,,378,2023-11-13_16h28.17.580,leap3,2022.2.5,59.994512925718574,
,,,,,,,,,,,,,,,,,,,,12,0,12,0,15,0,15,0,,,,,,browting,nw,h,lower,,,,,,,3,nw,LoDemNoTar,h,1,0.9860363989137113,,,,,,,,,,,,,,,,,,378,2023-11-13_16h28.17.580,leap3,2022.2.5,59.994512925718574,
,,,,,,,,,,,,,,,,,,,,12,0,12,0,16,0,16,0,,,,,,greakable,nw,h,lower,,,,,,,3,nw,LoDemNoTar,h,1,1.1212700991891325,,,,,,,,,,,,,,,,,,378,2023-11-13_16h28.17.580,leap3,2022.2.5,59.994512925718574,
,,,,,,,,,,,,,,,,,,,,12,0,12,0,17,0,17,0,,,,,,trewl,nw,h,lower,,,,,,,3,nw,LoDemNoTar,h,1,0.699340206105262,,,,,,,,,,,,,,,,,,378,2023-11-13_16h28.17.580,leap3,2022.2.5,59.994512925718574,
,,,,,,,,,,,,,,,,,,,,12,0,12,0,18,0,18,0,,,,,,mopping,w,g,lower,,,,,,,3,w,LoDemNoTar,g,1,1.08588248770684,,,,,,,,,,,,,,,,,,378,2023-11-13_16h28.17.580,leap3,2022.2.5,59.994512925718574,
,,,,,,,,,,,,,,,,,,,,12,0,12,0,19,0,19,0,,,,,,cutout,w,g,lower,,,,,,,3,w,LoDemNoTar,g,1,0.823545933701098,,,,,,,,,,,,,,,,,,378,2023-11-13_16h28.17.580,leap3,2022.2.5,59.994512925718574,
,,,,,,,,,,,,,,,,,,,,12,0,12,0,20,0,20,0,,,,,,oalis,nw,h,lower,,,,,,,3,nw,LoDemNoTar,h,1,1.1408207160420716,,,,,,,,,,,,,,,,,,378,2023-11-13_16h28.17.580,leap3,2022.2.5,59.994512925718574,
,,,,,,,,,,,,,,,,,,,,12,0,12,0,21,0,21,0,,,,,,obtuse,w,g,lower,,,,,,,3,w,LoDemNoTar,g,1,1.0936604756861925,,,,,,,,,,,,,,,,,,378,2023-11-13_16h28.17.580,leap3,2022.2.5,59.994512925718574,
,,,,,,,,,,,,,,,,,,,,12,0,12,0,22,0,22,0,,,,,,tenpince,nw,h,lower,,,,,,,3,nw,LoDemNoTar,h,1,1.1842347360216081,,,,,,,,,,,,,,,,,,378,2023-11-13_16h28.17.580,leap3,2022.2.5,59.994512925718574,
,,,,,,,,,,,,,,,,,,,,12,0,12,0,23,0,23,0,,,,,,unlined,w,g,lower,,,,,,,3,w,LoDemNoTar,g,1,1.1275925822556019,,,,,,,,,,,,,,,,,,378,2023-11-13_16h28.17.580,leap3,2022.2.5,59.994512925718574,
,,,,,,,,,,,,,,,,,,,,12,0,12,0,24,0,24,0,,,,,,coupling,w,g,lower,,,,,,,3,w,LoDemNoTar,g,1,0.9289300050586462,,,,,,,,,,,,,,,,,,378,2023-11-13_16h28.17.580,leap3,2022.2.5,59.994512925718574,
,,,,,,,,,,,,,,,,,,,,12,0,12,0,25,0,25,0,,,,,,planofoad,nw,h,lower,,,,,,,3,nw,LoDemNoTar,h,1,1.1542058098129928,,,,,,,,,,,,,,,,,,378,2023-11-13_16h28.17.580,leap3,2022.2.5,59.994512925718574,
,,,,,,,,,,,,,,,,,,,,12,0,12,0,26,0,26,0,,,,,,lofty,w,g,lower,,,,,,,3,w,LoDemNoTar,g,1,0.9462689901702106,,,,,,,,,,,,,,,,,,378,2023-11-13_16h28.17.580,leap3,2022.2.5,59.994512925718574,
,,,,,,,,,,,,,,,,,,,,12,0,12,0,27,0,27,0,,,,,,sweeping,w,g,lower,,,,,,,3,w,LoDemNoTar,g,1,1.809891592245549,,,,,,,,,,,,,,,,,,378,2023-11-13_16h28.17.580,leap3,2022.2.5,59.994512925718574,
,,,,,,,,,,,,,,,,,,,,12,0,12,0,28,0,28,0,,,,,,crimb,nw,h,lower,,,,,,,3,nw,LoDemNoTar,h,1,1.8798783924430609,,,,,,,,,,,,,,,,,,378,2023-11-13_16h28.17.580,leap3,2022.2.5,59.994512925718574,
,,,,,,,,,,,,,,,,,,,,12,0,12,0,29,0,29,0,,,,,,chining,nw,h,lower,,,,,,,3,nw,LoDemNoTar,h,1,1.1072127926163375,,,,,,,,,,,,,,,,,,378,2023-11-13_16h28.17.580,leap3,2022.2.5,59.994512925718574,
,,,,,,,,,,,,,,,,,,,,12,0,12,0,,,,,,,,,,,,,,,,,,,,,,,,,,NA,,,,,,,,,,,,,,,,,378,2023-11-13_16h28.17.580,leap3,2022.2.5,59.994512925718574,
,,,,,,,,,,,,,,,,,,,,13,0,13,0,0,0,0,0,,,,,,alchemist,w,g,lower,,,,,,,4,w,LoDemTar,g,1,0.8448300561867654,,,,,,,,,,,,,,,,,,378,2023-11-13_16h28.17.580,leap3,2022.2.5,59.994512925718574,
,,,,,,,,,,,,,,,,,,,,13,0,13,0,1,0,1,0,,,,,,abraid,nw,h,lower,,,,,,,4,nw,LoDemTar,h,1,0.8403083914890885,,,,,,,,,,,,,,,,,,378,2023-11-13_16h28.17.580,leap3,2022.2.5,59.994512925718574,
,,,,,,,,,,,,,,,,,,,,13,0,13,0,2,0,2,0,,,,,,attended,w,g,lower,,,,,,,4,w,LoDemTar,g,1,0.7731553288176656,,,,,,,,,,,,,,,,,,378,2023-11-13_16h28.17.580,leap3,2022.2.5,59.994512925718574,
,,,,,,,,,,,,,,,,,,,,13,0,13,0,3,0,3,0,,,,,,nopping,nw,h,lower,,,,,,,4,nw,LoDemTar,h,1,1.0132391336373985,,,,,,,,,,,,,,,,,,378,2023-11-13_16h28.17.580,leap3,2022.2.5,59.994512925718574,
,,,,,,,,,,,,,,,,,,,,13,0,13,0,4,0,4,0,,,,,,aviation,w,g,lower,,,,,,,4,w,LoDemTar,g,1,0.803518399130553,,,,,,,,,,,,,,,,,,378,2023-11-13_16h28.17.580,leap3,2022.2.5,59.994512925718574,
,,,,,,,,,,,,,,,,,,,,13,0,13,0,5,0,5,0,,,,,,reborn,w,g,lower,,,,,,,4,w,LoDemTar,g,1,0.7534875953570008,,,,,,,,,,,,,,,,,,378,2023-11-13_16h28.17.580,leap3,2022.2.5,59.994512925718574,
,,,,,,,,,,,,,,,,,,,,13,0,13,0,6,0,6,0,,,,,,balign,nw,h,lower,,,,,,,4,nw,LoDemTar,h,1,0.8494972116313875,,,,,,,,,,,,,,,,,,378,2023-11-13_16h28.17.580,leap3,2022.2.5,59.994512925718574,
,,,,,,,,,,,,,,,,,,,,13,0,13,0,7,0,7,0,,,,,,stagger,w,g,lower,,,,,,,4,w,LoDemTar,g,1,0.789190033916384,,,,,,,,,,,,,,,,,,378,2023-11-13_16h28.17.580,leap3,2022.2.5,59.994512925718574,
,,,,,,,,,,,,,,,,,,,,13,0,13,0,8,0,8,0,,,,,,delegate,w,g,lower,,,,,,,4,w,LoDemTar,g,1,1.075813482515514,,,,,,,,,,,,,,,,,,378,2023-11-13_16h28.17.580,leap3,2022.2.5,59.994512925718574,
,,,,,,,,,,,,,,,,,,,,13,0,13,0,9,0,9,0,,,,,,fetching,w,g,lower,,,,,,,4,w,LoDemTar,g,1,0.743231747765094,,,,,,,,,,,,,,,,,,378,2023-11-13_16h28.17.580,leap3,2022.2.5,59.994512925718574,
,,,,,,,,,,,,,,,,,,,,13,0,13,0,10,0,10,0,,,,,,allained,nw,h,lower,,,,,,,4,nw,LoDemTar,h,1,1.0558997439220548,,,,,,,,,,,,,,,,,,378,2023-11-13_16h28.17.580,leap3,2022.2.5,59.994512925718574,
,,,,,,,,,,,,,,,,,,,,13,0,13,0,11,0,11,0,,,,,,veirs,nw,h,lower,,,,,,,4,nw,LoDemTar,h,1,1.4677597265690565,,,,,,,,,,,,,,,,,,378,2023-11-13_16h28.17.580,leap3,2022.2.5,59.994512925718574,
,,,,,,,,,,,,,,,,,,,,13,0,13,0,12,0,12,0,,,,,,ucility,nw,h,lower,,,,,,,4,nw,LoDemTar,h,1,0.9838712522760034,,,,,,,,,,,,,,,,,,378,2023-11-13_16h28.17.580,leap3,2022.2.5,59.994512925718574,
,,,,,,,,,,,,,,,,,,,,13,0,13,0,13,0,13,0,,,,,,boulder,w,g,lower,,,,,,,4,w,LoDemTar,g,1,0.9505470646545291,,,,,,,,,,,,,,,,,,378,2023-11-13_16h28.17.580,leap3,2022.2.5,59.994512925718574,
,,,,,,,,,,,,,,,,,,,,13,0,13,0,14,0,14,0,,,,,,handed,w,g,lower,,,,,,,4,w,LoDemTar,g,1,1.0064853113144636,,,,,,,,,,,,,,,,,,378,2023-11-13_16h28.17.580,leap3,2022.2.5,59.994512925718574,
,,,,,,,,,,,,,,,,,,,,13,0,13,0,15,0,15,0,,,,,,gumdrep,nw,h,lower,,,,,,,4,nw,LoDemTar,h,1,1.1325120809487998,,,,,,,,,,,,,,,,,,378,2023-11-13_16h28.17.580,leap3,2022.2.5,59.994512925718574,
,,,,,,,,,,,,,,,,,,,,13,0,13,0,16,0,16,0,,,,,,function,w,g,lower,,,,,,,4,w,LoDemTar,g,1,0.7329339422285557,,,,,,,,,,,,,,,,,,378,2023-11-13_16h28.17.580,leap3,2022.2.5,59.994512925718574,
,,,,,,,,,,,,,,,,,,,,13,0,13,0,17,0,17,0,,,,,,fracture,w,g,lower,,,,,,,4,w,LoDemTar,g,1,0.9662424940615892,,,,,,,,,,,,,,,,,,378,2023-11-13_16h28.17.580,leap3,2022.2.5,59.994512925718574,
,,,,,,,,,,,,,,,,,,,,13,0,13,0,18,0,18,0,,,,,,wimpid,nw,h,lower,,,,,,,4,nw,LoDemTar,h,1,1.4862837623804808,,,,,,,,,,,,,,,,,,378,2023-11-13_16h28.17.580,leap3,2022.2.5,59.994512925718574,
,,,,,,,,,,,,,,,,,,,,13,0,13,0,19,0,19,0,,,,,,dialect,w,g,lower,,,,,,,4,w,LoDemTar,g,1,1.1769294398836792,,,,,,,,,,,,,,,,,,378,2023-11-13_16h28.17.580,leap3,2022.2.5,59.994512925718574,
,,,,,,,,,,,,,,,,,,,,13,0,13,0,20,0,20,0,,,,,,mantos,nw,h,lower,,,,,,,4,nw,LoDemTar,h,1,1.0881892004981637,,,,,,,,,,,,,,,,,,378,2023-11-13_16h28.17.580,leap3,2022.2.5,59.994512925718574,
,,,,,,,,,,,,,,,,,,,,13,0,13,0,21,0,21,0,,,,,,gairs,nw,h,lower,,,,,,,4,nw,LoDemTar,h,1,0.6908743088133633,,,,,,,,,,,,,,,,,,378,2023-11-13_16h28.17.580,leap3,2022.2.5,59.994512925718574,
,,,,,,,,,,,,,,,,,,,,13,0,13,0,22,0,22,0,,,,,,ready,w,g,lower,,,,,,,4,w,LoDemTar,g,1,0.6913977111689746,,,,,,,,,,,,,,,,,,378,2023-11-13_16h28.17.580,leap3,2022.2.5,59.994512925718574,
,,,,,,,,,,,,,,,,,,,,13,0,13,0,23,0,23,0,,,,,,gigoho,nw,h,lower,,,,,,,4,nw,LoDemTar,h,1,1.0790495816618204,,,,,,,,,,,,,,,,,,378,2023-11-13_16h28.17.580,leap3,2022.2.5,59.994512925718574,
,,,,,,,,,,,,,,,,,,,,13,0,13,0,24,0,24,0,,,,,,happen,w,g,lower,,,,,,,4,w,LoDemTar,g,1,0.8982741432264447,,,,,,,,,,,,,,,,,,378,2023-11-13_16h28.17.580,leap3,2022.2.5,59.994512925718574,
,,,,,,,,,,,,,,,,,,,,13,0,13,0,25,0,25,0,,,,,,clattest,nw,h,lower,,,,,,,4,nw,LoDemTar,h,1,0.8292158241383731,,,,,,,,,,,,,,,,,,378,2023-11-13_16h28.17.580,leap3,2022.2.5,59.994512925718574,
,,,,,,,,,,,,,,,,,,,,13,0,13,0,26,0,26,0,,,,,,drauns,nw,h,lower,,,,,,,4,nw,LoDemTar,h,1,1.274591667111963,,,,,,,,,,,,,,,,,,378,2023-11-13_16h28.17.580,leap3,2022.2.5,59.994512925718574,
,,,,,,,,,,,,,,,,,,,,13,0,13,0,27,0,27,0,,,,,,sponto,nw,h,lower,,,,,,,4,nw,LoDemTar,h,1,0.7978385481983423,,,,,,,,,,,,,,,,,,378,2023-11-13_16h28.17.580,leap3,2022.2.5,59.994512925718574,
,,,,,,,,,,,,,,,,,,,,13,0,13,0,28,0,28,0,,,,,,octopus,target,q,lower,,,,,,,4,target,LoDemTar,q,1,1.796572300605476,,1,,,,,,,,,,,,,,,,378,2023-11-13_16h28.17.580,leap3,2022.2.5,59.994512925718574,
,,,,,,,,,,,,,,,,,,,,13,0,13,0,29,0,29,0,,,,,,penalize,w,g,lower,,,,,,,4,aftertar1,LoDemTar,g,1,1.3464550483040512,,,,,,,,,,,,,,,,,,378,2023-11-13_16h28.17.580,leap3,2022.2.5,59.994512925718574,
,,,,,,,,,,,,,,,,,,,,13,0,13,0,,,,,,,,,,,,,,,,,,,,,,,,,,1,,,,,,,,,,,,,,,,,378,2023-11-13_16h28.17.580,leap3,2022.2.5,59.994512925718574,
,,,,,,,,,,,,,,,,,,,,14,0,14,0,0,0,0,0,,,,,,drobate,nw,h,upper,,,,,,,1,nw,HiDemTar,h,1,0.8754442632198334,,,,,,,,,,,,,,,,,,378,2023-11-13_16h28.17.580,leap3,2022.2.5,59.994512925718574,
,,,,,,,,,,,,,,,,,,,,14,0,14,0,1,0,1,0,,,,,,outrank,w,g,upper,,,,,,,1,w,HiDemTar,g,1,0.6628955262713134,,,,,,,,,,,,,,,,,,378,2023-11-13_16h28.17.580,leap3,2022.2.5,59.994512925718574,
,,,,,,,,,,,,,,,,,,,,14,0,14,0,2,0,2,0,,,,,,nelvet,nw,h,upper,,,,,,,1,nw,HiDemTar,h,1,0.8668923401273787,,,,,,,,,,,,,,,,,,378,2023-11-13_16h28.17.580,leap3,2022.2.5,59.994512925718574,
,,,,,,,,,,,,,,,,,,,,14,0,14,0,3,0,3,0,,,,,,chesume,nw,h,upper,,,,,,,1,nw,HiDemTar,h,1,1.8868691641837358,,,,,,,,,,,,,,,,,,378,2023-11-13_16h28.17.580,leap3,2022.2.5,59.994512925718574,
,,,,,,,,,,,,,,,,,,,,14,0,14,0,4,0,4,0,,,,,,talent,w,g,upper,,,,,,,1,w,HiDemTar,g,1,0.6334470515139401,,,,,,,,,,,,,,,,,,378,2023-11-13_16h28.17.580,leap3,2022.2.5,59.994512925718574,
,,,,,,,,,,,,,,,,,,,,14,0,14,0,5,0,5,0,,,,,,uncounted,w,g,upper,,,,,,,1,w,HiDemTar,g,1,0.949815689586103,,,,,,,,,,,,,,,,,,378,2023-11-13_16h28.17.580,leap3,2022.2.5,59.994512925718574,
,,,,,,,,,,,,,,,,,,,,14,0,14,0,6,0,6,0,,,,,,whirling,w,g,upper,,,,,,,1,w,HiDemTar,g,1,0.758510326500982,,,,,,,,,,,,,,,,,,378,2023-11-13_16h28.17.580,leap3,2022.2.5,59.994512925718574,
,,,,,,,,,,,,,,,,,,,,14,0,14,0,7,0,7,0,,,,,,picnic,w,g,upper,,,,,,,1,w,HiDemTar,g,1,0.5985022485256195,,,,,,,,,,,,,,,,,,378,2023-11-13_16h28.17.580,leap3,2022.2.5,59.994512925718574,
,,,,,,,,,,,,,,,,,,,,14,0,14,0,8,0,8,0,,,,,,horks,nw,h,upper,,,,,,,1,nw,HiDemTar,h,1,1.6612124284729362,,,,,,,,,,,,,,,,,,378,2023-11-13_16h28.17.580,leap3,2022.2.5,59.994512925718574,
,,,,,,,,,,,,,,,,,,,,14,0,14,0,9,0,9,0,,,,,,bailmenz,nw,h,upper,,,,,,,1,nw,HiDemTar,h,1,1.550875956658274,,,,,,,,,,,,,,,,,,378,2023-11-13_16h28.17.580,leap3,2022.2.5,59.994512925718574,
,,,,,,,,,,,,,,,,,,,,14,0,14,0,10,0,10,0,,,,,,rainfall,w,g,upper,,,,,,,1,w,HiDemTar,g,1,1.088278849143535,,,,,,,,,,,,,,,,,,378,2023-11-13_16h28.17.580,leap3,2022.2.5,59.994512925718574,
,,,,,,,,,,,,,,,,,,,,14,0,14,0,11,0,11,0,,,,,,forecast,w,g,upper,,,,,,,1,w,HiDemTar,g,1,2.0989180426113307,,,,,,,,,,,,,,,,,,378,2023-11-13_16h28.17.580,leap3,2022.2.5,59.994512925718574,
,,,,,,,,,,,,,,,,,,,,14,0,14,0,12,0,12,0,,,,,,sonkers,nw,h,upper,,,,,,,1,nw,HiDemTar,h,1,1.2134646731428802,,,,,,,,,,,,,,,,,,378,2023-11-13_16h28.17.580,leap3,2022.2.5,59.994512925718574,
,,,,,,,,,,,,,,,,,,,,14,0,14,0,13,0,13,0,,,,,,haurded,nw,h,upper,,,,,,,1,nw,HiDemTar,h,1,0.7394936769269407,,,,,,,,,,,,,,,,,,378,2023-11-13_16h28.17.580,leap3,2022.2.5,59.994512925718574,
,,,,,,,,,,,,,,,,,,,,14,0,14,0,14,0,14,0,,,,,,bentler,nw,h,upper,,,,,,,1,nw,HiDemTar,h,1,0.8762224242091179,,,,,,,,,,,,,,,,,,378,2023-11-13_16h28.17.580,leap3,2022.2.5,59.994512925718574,
,,,,,,,,,,,,,,,,,,,,14,0,14,0,15,0,15,0,,,,,,truthful,w,g,upper,,,,,,,1,w,HiDemTar,g,1,0.8234762069769204,,,,,,,,,,,,,,,,,,378,2023-11-13_16h28.17.580,leap3,2022.2.5,59.994512925718574,
,,,,,,,,,,,,,,,,,,,,14,0,14,0,16,0,16,0,,,,,,crocodile,target,q,upper,,,,,,,1,target,HiDemTar,q,1,1.036873435601592,,1,,,,,,,,,,,,,,,,378,2023-11-13_16h28.17.580,leap3,2022.2.5,59.994512925718574,
,,,,,,,,,,,,,,,,,,,,14,0,14,0,17,0,17,0,,,,,,laser,w,g,upper,,,,,,,1,aftertar1,HiDemTar,g,1,0.9695413778536022,,,,,,,,,,,,,,,,,,378,2023-11-13_16h28.17.580,leap3,2022.2.5,59.994512925718574,
,,,,,,,,,,,,,,,,,,,,14,0,14,0,18,0,18,0,,,,,,ounwit,nw,h,upper,,,,,,,1,aftertar2,HiDemTar,g,0,2.0968546182848513,,,,,,,,,,,,,,,,,,378,2023-11-13_16h28.17.580,leap3,2022.2.5,59.994512925718574,
,,,,,,,,,,,,,,,,,,,,14,0,14,0,19,0,19,0,,,,,,passet,nw,h,upper,,,,,,,1,aftertar3,HiDemTar,h,1,0.9784307652153075,,,,,,,,,,,,,,,,,,378,2023-11-13_16h28.17.580,leap3,2022.2.5,59.994512925718574,
,,,,,,,,,,,,,,,,,,,,14,0,14,0,20,0,20,0,,,,,,whirlpool,w,g,upper,,,,,,,1,nw,HiDemTar,g,1,0.8098279023543,,,,,,,,,,,,,,,,,,378,2023-11-13_16h28.17.580,leap3,2022.2.5,59.994512925718574,
,,,,,,,,,,,,,,,,,,,,14,0,14,0,21,0,21,0,,,,,,eugenifs,nw,h,upper,,,,,,,1,w,HiDemTar,h,1,1.311819639056921,,,,,,,,,,,,,,,,,,378,2023-11-13_16h28.17.580,leap3,2022.2.5,59.994512925718574,
,,,,,,,,,,,,,,,,,,,,14,0,14,0,22,0,22,0,,,,,,gewer,nw,h,upper,,,,,,,1,nw,HiDemTar,h,1,0.8658244060352445,,,,,,,,,,,,,,,,,,378,2023-11-13_16h28.17.580,leap3,2022.2.5,59.994512925718574,
,,,,,,,,,,,,,,,,,,,,14,0,14,0,23,0,23,0,,,,,,bropic,nw,h,upper,,,,,,,1,nw,HiDemTar,h,1,1.3338810168206692,,,,,,,,,,,,,,,,,,378,2023-11-13_16h28.17.580,leap3,2022.2.5,59.994512925718574,
,,,,,,,,,,,,,,,,,,,,14,0,14,0,24,0,24,0,,,,,,micron,w,g,upper,,,,,,,1,nw,HiDemTar,h,0,1.046512912493199,,,,,,,,,,,,,,,,,,378,2023-11-13_16h28.17.580,leap3,2022.2.5,59.994512925718574,
,,,,,,,,,,,,,,,,,,,,14,0,14,0,25,0,25,0,,,,,,tracing,w,g,upper,,,,,,,1,w,HiDemTar,g,1,1.7951901443302631,,,,,,,,,,,,,,,,,,378,2023-11-13_16h28.17.580,leap3,2022.2.5,59.994512925718574,
,,,,,,,,,,,,,,,,,,,,14,0,14,0,26,0,26,0,,,,,,destroy,w,g,upper,,,,,,,1,w,HiDemTar,g,1,0.8487966251559556,,,,,,,,,,,,,,,,,,378,2023-11-13_16h28.17.580,leap3,2022.2.5,59.994512925718574,
,,,,,,,,,,,,,,,,,,,,14,0,14,0,27,0,27,0,,,,,,seldom,w,g,upper,,,,,,,1,w,HiDemTar,g,1,0.7974603343755007,,,,,,,,,,,,,,,,,,378,2023-11-13_16h28.17.580,leap3,2022.2.5,59.994512925718574,
,,,,,,,,,,,,,,,,,,,,14,0,14,0,28,0,28,0,,,,,,correct,w,g,upper,,,,,,,1,w,HiDemTar,g,1,0.5950222574174404,,,,,,,,,,,,,,,,,,378,2023-11-13_16h28.17.580,leap3,2022.2.5,59.994512925718574,
,,,,,,,,,,,,,,,,,,,,14,0,14,0,29,0,29,0,,,,,,bengths,nw,h,upper,,,,,,,1,w,HiDemTar,h,1,0.6656076195649803,,,,,,,,,,,,,,,,,,378,2023-11-13_16h28.17.580,leap3,2022.2.5,59.994512925718574,
,,,,,,,,,,,,,,,,,,,,14,0,14,0,,,,,,,,,,,,,,,,,,,,,,,,,,1,,,,,,,,,,,,,,,,,378,2023-11-13_16h28.17.580,leap3,2022.2.5,59.994512925718574,
,,,,,,,,,,,,,,,,,,,,15,0,15,0,0,0,0,0,,,,,,midday,w,g,upper,,,,,,,2,w,HiDemNoTar,g,1,0.7430126066319644,,,,,,,,,,,,,,,,,,378,2023-11-13_16h28.17.580,leap3,2022.2.5,59.994512925718574,
,,,,,,,,,,,,,,,,,,,,15,0,15,0,1,0,1,0,,,,,,gepealed,nw,h,upper,,,,,,,2,nw,HiDemNoTar,h,1,0.7984715206548572,,,,,,,,,,,,,,,,,,378,2023-11-13_16h28.17.580,leap3,2022.2.5,59.994512925718574,
,,,,,,,,,,,,,,,,,,,,15,0,15,0,2,0,2,0,,,,,,tucker,w,g,upper,,,,,,,2,w,HiDemNoTar,g,1,1.789113364648074,,,,,,,,,,,,,,,,,,378,2023-11-13_16h28.17.580,leap3,2022.2.5,59.994512925718574,
,,,,,,,,,,,,,,,,,,,,15,0,15,0,3,0,3,0,,,,,,gremieres,nw,h,upper,,,,,,,2,nw,HiDemNoTar,h,1,0.9958941112272441,,,,,,,,,,,,,,,,,,378,2023-11-13_16h28.17.580,leap3,2022.2.5,59.994512925718574,
,,,,,,,,,,,,,,,,,,,,15,0,15,0,4,0,4,0,,,,,,rootsie,nw,h,upper,,,,,,,2,nw,HiDemNoTar,h,1,1.5384902777150273,,,,,,,,,,,,,,,,,,378,2023-11-13_16h28.17.580,leap3,2022.2.5,59.994512925718574,
,,,,,,,,,,,,,,,,,,,,15,0,15,0,5,0,5,0,,,,,,classify,w,g,upper,,,,,,,2,w,HiDemNoTar,g,1,3.0344381355680525,,,,,,,,,,,,,,,,,,378,2023-11-13_16h28.17.580,leap3,2022.2.5,59.994512925718574,
,,,,,,,,,,,,,,,,,,,,15,0,15,0,6,0,6,0,,,,,,paranoid,w,g,upper,,,,,,,2,w,HiDemNoTar,g,1,0.7118608104065061,,,,,,,,,,,,,,,,,,378,2023-11-13_16h28.17.580,leap3,2022.2.5,59.994512925718574,
,,,,,,,,,,,,,,,,,,,,15,0,15,0,7,0,7,0,,,,,,reloant,nw,h,upper,,,,,,,2,nw,HiDemNoTar,h,1,0.7369949892163277,,,,,,,,,,,,,,,,,,378,2023-11-13_16h28.17.580,leap3,2022.2.5,59.994512925718574,
,,,,,,,,,,,,,,,,,,,,15,0,15,0,8,0,8,0,,,,,,submit,w,g,upper,,,,,,,2,w,HiDemNoTar,g,1,0.6895981002599001,,,,,,,,,,,,,,,,,,378,2023-11-13_16h28.17.580,leap3,2022.2.5,59.994512925718574,
,,,,,,,,,,,,,,,,,,,,15,0,15,0,9,0,9,0,,,,,,fatho,nw,h,upper,,,,,,,2,nw,HiDemNoTar,h,1,1.9963124711066484,,,,,,,,,,,,,,,,,,378,2023-11-13_16h28.17.580,leap3,2022.2.5,59.994512925718574,
,,,,,,,,,,,,,,,,,,,,15,0,15,0,10,0,10,0,,,,,,volder,nw,h,upper,,,,,,,2,nw,HiDemNoTar,h,1,0.8188247480429709,,,,,,,,,,,,,,,,,,378,2023-11-13_16h28.17.580,leap3,2022.2.5,59.994512925718574,
,,,,,,,,,,,,,,,,,,,,15,0,15,0,11,0,11,0,,,,,,glates,nw,h,upper,,,,,,,2,nw,HiDemNoTar,h,1,1.1362335500307381,,,,,,,,,,,,,,,,,,378,2023-11-13_16h28.17.580,leap3,2022.2.5,59.994512925718574,
,,,,,,,,,,,,,,,,,,,,15,0,15,0,12,0,12,0,,,,,,gerby,nw,h,upper,,,,,,,2,nw,HiDemNoTar,h,1,0.6968490644358099,,,,,,,,,,,,,,,,,,378,2023-11-13_16h28.17.580,leap3,2022.2.5,59.994512925718574,
,,,,,,,,,,,,,,,,,,,,15,0,15,0,13,0,13,0,,,,,,cookbook,w,g,upper,,,,,,,2,w,HiDemNoTar,g,1,1.0915342667140067,,,,,,,,,,,,,,,,,,378,2023-11-13_16h28.17.580,leap3,2022.2.5,59.994512925718574,
,,,,,,,,,,,,,,,,,,,,15,0,15,0,14,0,14,0,,,,,,triangle,w,g,upper,,,,,,,2,w,HiDemNoTar,g,1,1.5880867238156497,,,,,,,,,,,,,,,,,,378,2023-11-13_16h28.17.580,leap3,2022.2.5,59.994512925718574,
,,,,,,,,,,,,,,,,,,,,15,0,15,0,15,0,15,0,,,,,,warmer,w,g,upper,,,,,,,2,w,HiDemNoTar,g,1,1.4826105888932943,,,,,,,,,,,,,,,,,,378,2023-11-13_16h28.17.580,leap3,2022.2.5,59.994512925718574,
,,,,,,,,,,,,,,,,,,,,15,0,15,0,16,0,16,0,,,,,,vaporize,w,g,upper,,,,,,,2,w,HiDemNoTar,g,1,1.9108517970889807,,,,,,,,,,,,,,,,,,378,2023-11-13_16h28.17.580,leap3,2022.2.5,59.994512925718574,
,,,,,,,,,,,,,,,,,,,,15,0,15,0,17,0,17,0,,,,,,rantho,nw,h,upper,,,,,,,2,nw,HiDemNoTar,h,1,0.8172705392353237,,,,,,,,,,,,,,,,,,378,2023-11-13_16h28.17.580,leap3,2022.2.5,59.994512925718574,
,,,,,,,,,,,,,,,,,,,,15,0,15,0,18,0,18,0,,,,,,halter,w,g,upper,,,,,,,2,w,HiDemNoTar,h,0,1.1664556581526995,,,,,,,,,,,,,,,,,,378,2023-11-13_16h28.17.580,leap3,2022.2.5,59.994512925718574,
,,,,,,,,,,,,,,,,,,,,15,0,15,0,19,0,19,0,,,,,,joses,nw,h,upper,,,,,,,2,nw,HiDemNoTar,h,1,0.5744667928665876,,,,,,,,,,,,,,,,,,378,2023-11-13_16h28.17.580,leap3,2022.2.5,59.994512925718574,
,,,,,,,,,,,,,,,,,,,,15,0,15,0,20,0,20,0,,,,,,sefraud,nw,h,upper,,,,,,,2,nw,HiDemNoTar,h,1,0.5089989406988025,,,,,,,,,,,,,,,,,,378,2023-11-13_16h28.17.580,leap3,2022.2.5,59.994512925718574,
,,,,,,,,,,,,,,,,,,,,15,0,15,0,21,0,21,0,,,,,,apology,w,g,upper,,,,,,,2,w,HiDemNoTar,g,1,0.5430569178424776,,,,,,,,,,,,,,,,,,378,2023-11-13_16h28.17.580,leap3,2022.2.5,59.994512925718574,
,,,,,,,,,,,,,,,,,,,,15,0,15,0,22,0,22,0,,,,,,pigned,nw,h,upper,,,,,,,2,nw,HiDemNoTar,h,1,0.7755462569184601,,,,,,,,,,,,,,,,,,378,2023-11-13_16h28.17.580,leap3,2022.2.5,59.994512925718574,
,,,,,,,,,,,,,,,,,,,,15,0,15,0,23,0,23,0,,,,,,ludictous,nw,h,upper,,,,,,,2,nw,HiDemNoTar,h,1,1.3510727006942034,,,,,,,,,,,,,,,,,,378,2023-11-13_16h28.17.580,leap3,2022.2.5,59.994512925718574,
,,,,,,,,,,,,,,,,,,,,15,0,15,0,24,0,24,0,,,,,,lifetime,w,g,upper,,,,,,,2,w,HiDemNoTar,g,1,0.8949239458888769,,,,,,,,,,,,,,,,,,378,2023-11-13_16h28.17.580,leap3,2022.2.5,59.994512925718574,
,,,,,,,,,,,,,,,,,,,,15,0,15,0,25,0,25,0,,,,,,cabinet,w,g,upper,,,,,,,2,w,HiDemNoTar,g,1,1.7935508145019412,,,,,,,,,,,,,,,,,,378,2023-11-13_16h28.17.580,leap3,2022.2.5,59.994512925718574,
,,,,,,,,,,,,,,,,,,,,15,0,15,0,26,0,26,0,,,,,,innocent,w,g,upper,,,,,,,2,w,HiDemNoTar,g,1,0.5602383390069008,,,,,,,,,,,,,,,,,,378,2023-11-13_16h28.17.580,leap3,2022.2.5,59.994512925718574,
,,,,,,,,,,,,,,,,,,,,15,0,15,0,27,0,27,0,,,,,,scrobby,nw,h,upper,,,,,,,2,nw,HiDemNoTar,h,1,1.120144210755825,,,,,,,,,,,,,,,,,,378,2023-11-13_16h28.17.580,leap3,2022.2.5,59.994512925718574,
,,,,,,,,,,,,,,,,,,,,15,0,15,0,28,0,28,0,,,,,,mixture,w,g,upper,,,,,,,2,w,HiDemNoTar,g,1,0.7535310620442033,,,,,,,,,,,,,,,,,,378,2023-11-13_16h28.17.580,leap3,2022.2.5,59.994512925718574,
,,,,,,,,,,,,,,,,,,,,15,0,15,0,29,0,29,0,,,,,,fullity,nw,h,upper,,,,,,,2,nw,HiDemNoTar,h,1,1.448742775246501,,,,,,,,,,,,,,,,,,378,2023-11-13_16h28.17.580,leap3,2022.2.5,59.994512925718574,
,,,,,,,,,,,,,,,,,,,,15,0,15,0,,,,,,,,,,,,,,,,,,,,,,,,,,NA,,,,,,,,,,,,,,,,,378,2023-11-13_16h28.17.580,leap3,2022.2.5,59.994512925718574,
,,,,,,,,,,,,,,,,,,,,16,0,16,0,0,0,0,0,,,,,,contact,w,g,upper,,,,,,,1,w,HiDemTar,g,1,1.3338828277774155,,,,,,,,,,,,,,,,,,378,2023-11-13_16h28.17.580,leap3,2022.2.5,59.994512925718574,
,,,,,,,,,,,,,,,,,,,,16,0,16,0,1,0,1,0,,,,,,charcoal,w,g,upper,,,,,,,1,w,HiDemTar,g,1,0.7254508584737778,,,,,,,,,,,,,,,,,,378,2023-11-13_16h28.17.580,leap3,2022.2.5,59.994512925718574,
,,,,,,,,,,,,,,,,,,,,16,0,16,0,2,0,2,0,,,,,,bettled,nw,h,upper,,,,,,,1,nw,HiDemTar,h,1,1.141720219515264,,,,,,,,,,,,,,,,,,378,2023-11-13_16h28.17.580,leap3,2022.2.5,59.994512925718574,
,,,,,,,,,,,,,,,,,,,,16,0,16,0,3,0,3,0,,,,,,flieves,nw,h,upper,,,,,,,1,nw,HiDemTar,h,1,2.4551859968341887,,,,,,,,,,,,,,,,,,378,2023-11-13_16h28.17.580,leap3,2022.2.5,59.994512925718574,
,,,,,,,,,,,,,,,,,,,,16,0,16,0,4,0,4,0,,,,,,pranny,nw,h,upper,,,,,,,1,nw,HiDemTar,h,1,0.7640917752869427,,,,,,,,,,,,,,,,,,378,2023-11-13_16h28.17.580,leap3,2022.2.5,59.994512925718574,
,,,,,,,,,,,,,,,,,,,,16,0,16,0,5,0,5,0,,,,,,castaway,w,g,upper,,,,,,,1,w,HiDemTar,g,1,1.2041397206485271,,,,,,,,,,,,,,,,,,378,2023-11-13_16h28.17.580,leap3,2022.2.5,59.994512925718574,
,,,,,,,,,,,,,,,,,,,,16,0,16,0,6,0,6,0,,,,,,comply,w,g,upper,,,,,,,1,w,HiDemTar,g,1,0.8341214377433062,,,,,,,,,,,,,,,,,,378,2023-11-13_16h28.17.580,leap3,2022.2.5,59.994512925718574,
,,,,,,,,,,,,,,,,,,,,16,0,16,0,7,0,7,0,,,,,,colored,w,g,upper,,,,,,,1,w,HiDemTar,g,1,1.454787257593125,,,,,,,,,,,,,,,,,,378,2023-11-13_16h28.17.580,leap3,2022.2.5,59.994512925718574,
