demoRace_loop.thisRepN,demoRace_loop.thisTrialN,demoRace_loop.thisN,demoRace_loop.thisIndex,LDTunderstand.thisRepN,LDTunderstand.thisTrialN,LDTunderstand.thisN,LDTunderstand.thisIndex,pracBlocks.thisRepN,pracBlocks.thisTrialN,pracBlocks.thisN,pracBlocks.thisIndex,pracTrial.thisRepN,pracTrial.thisTrialN,pracTrial.thisN,pracTrial.thisIndex,PMunderstand.thisRepN,PMunderstand.thisTrialN,PMunderstand.thisN,PMunderstand.thisIndex,LDT_block.thisRepN,LDT_block.thisTrialN,LDT_block.thisN,LDT_block.thisIndex,LDT_trial.thisRepN,LDT_trial.thisTrialN,LDT_trial.thisN,LDT_trial.thisIndex,ageTextbox.text,genderTextbox.text,race,raceResp,LDTunderstand,stim,word_type,corr_key,stim_location,LDTpracKey.keys,LDTpracKey.corr,LDTpracKey.rt,PMunderstand,cueTextbox.text,intentionTextbox.text,block_type,role,block_desc,LDTResp.keys,LDTResp.corr,LDTResp.rt,pressedQ,PM_accuracy,pressedQ_blank,pressedQ_late,postQ1,Q2Textbox.text,Q3Textbox.text,Q4,Q5,Q6Key.keys,Q6Key.rt,postQ7_correct,postQ7,Q8Textbox.text,education,medTextbox.text,health,healthLimit,psych,participant,date,expName,psychopyVersion,frameRate,
0,0,0,0,,,,,,,,,,,,,,,,,,,,,,,,,"
18 ",female,American Indian or Alaska Native,n,,,,,,,,,,,,,,,,,,,,,,,,,,,,,,,,,,,,,379,2023-11-15_15h37.48.723,leap3,2022.2.5,59.99992755512373,
1,0,1,0,,,,,,,,,,,,,,,,,,,,,,,,,,,Asian,n,,,,,,,,,,,,,,,,,,,,,,,,,,,,,,,,,,,,,379,2023-11-15_15h37.48.723,leap3,2022.2.5,59.99992755512373,
2,0,2,0,,,,,,,,,,,,,,,,,,,,,,,,,,,Black or African American,n,,,,,,,,,,,,,,,,,,,,,,,,,,,,,,,,,,,,,379,2023-11-15_15h37.48.723,leap3,2022.2.5,59.99992755512373,
3,0,3,0,,,,,,,,,,,,,,,,,,,,,,,,,,,Native Hawaiian or other Pacific Islander,n,,,,,,,,,,,,,,,,,,,,,,,,,,,,,,,,,,,,,379,2023-11-15_15h37.48.723,leap3,2022.2.5,59.99992755512373,
4,0,4,0,,,,,,,,,,,,,,,,,,,,,,,,,,,White,y,,,,,,,,,,,,,,,,,,,,,,,,,,,,,,,,,,,,,379,2023-11-15_15h37.48.723,leap3,2022.2.5,59.99992755512373,
,,,,0,0,0,0,,,,,,,,,,,,,,,,,,,,,,,,,y,,,,,,,,,,,,,,,,,,,,,,,,,,,,,,,,,,,,379,2023-11-15_15h37.48.723,leap3,2022.2.5,59.99992755512373,
,,,,,,,,0,0,0,0,0,0,0,0,,,,,,,,,,,,,,,,,,lurshing,nw,h,lower,h,1,1.3498921354330378,,,,,,,,,,,,,,,,,,,,,,,,,,,,,379,2023-11-15_15h37.48.723,leap3,2022.2.5,59.99992755512373,
,,,,,,,,0,0,0,0,1,0,1,0,,,,,,,,,,,,,,,,,,infinity,w,g,lower,g,1,0.6292569800280035,,,,,,,,,,,,,,,,,,,,,,,,,,,,,379,2023-11-15_15h37.48.723,leap3,2022.2.5,59.99992755512373,
,,,,,,,,0,0,0,0,2,0,2,0,,,,,,,,,,,,,,,,,,summary,w,g,lower,g,1,0.5631144277576823,,,,,,,,,,,,,,,,,,,,,,,,,,,,,379,2023-11-15_15h37.48.723,leap3,2022.2.5,59.99992755512373,
,,,,,,,,0,0,0,0,3,0,3,0,,,,,,,,,,,,,,,,,,reputable,w,g,lower,g,1,0.5996435609267792,,,,,,,,,,,,,,,,,,,,,,,,,,,,,379,2023-11-15_15h37.48.723,leap3,2022.2.5,59.99992755512373,
,,,,,,,,0,0,0,0,4,0,4,0,,,,,,,,,,,,,,,,,,overshoot,w,g,lower,g,1,0.6165795292181429,,,,,,,,,,,,,,,,,,,,,,,,,,,,,379,2023-11-15_15h37.48.723,leap3,2022.2.5,59.99992755512373,
,,,,,,,,0,0,0,0,5,0,5,0,,,,,,,,,,,,,,,,,,busted,w,g,lower,g,1,0.6069390038828715,,,,,,,,,,,,,,,,,,,,,,,,,,,,,379,2023-11-15_15h37.48.723,leap3,2022.2.5,59.99992755512373,
,,,,,,,,0,0,0,0,6,0,6,0,,,,,,,,,,,,,,,,,,latador,nw,h,lower,h,1,0.6610536892403616,,,,,,,,,,,,,,,,,,,,,,,,,,,,,379,2023-11-15_15h37.48.723,leap3,2022.2.5,59.99992755512373,
,,,,,,,,0,0,0,0,7,0,7,0,,,,,,,,,,,,,,,,,,hiring,w,g,lower,g,1,0.5290870377721149,,,,,,,,,,,,,,,,,,,,,,,,,,,,,379,2023-11-15_15h37.48.723,leap3,2022.2.5,59.99992755512373,
,,,,,,,,0,0,0,0,8,0,8,0,,,,,,,,,,,,,,,,,,treeps,nw,h,lower,h,1,0.730458649864886,,,,,,,,,,,,,,,,,,,,,,,,,,,,,379,2023-11-15_15h37.48.723,leap3,2022.2.5,59.99992755512373,
,,,,,,,,0,0,0,0,9,0,9,0,,,,,,,,,,,,,,,,,,turative,nw,h,lower,h,1,0.8748048249617568,,,,,,,,,,,,,,,,,,,,,,,,,,,,,379,2023-11-15_15h37.48.723,leap3,2022.2.5,59.99992755512373,
,,,,,,,,0,0,0,0,10,0,10,0,,,,,,,,,,,,,,,,,,raestro,nw,h,lower,h,1,0.5662002531171311,,,,,,,,,,,,,,,,,,,,,,,,,,,,,379,2023-11-15_15h37.48.723,leap3,2022.2.5,59.99992755512373,
,,,,,,,,0,0,0,0,11,0,11,0,,,,,,,,,,,,,,,,,,julled,nw,h,lower,h,1,0.7418079551571282,,,,,,,,,,,,,,,,,,,,,,,,,,,,,379,2023-11-15_15h37.48.723,leap3,2022.2.5,59.99992755512373,
,,,,,,,,0,0,0,0,12,0,12,0,,,,,,,,,,,,,,,,,,curlecs,nw,h,lower,h,1,0.6391580030031037,,,,,,,,,,,,,,,,,,,,,,,,,,,,,379,2023-11-15_15h37.48.723,leap3,2022.2.5,59.99992755512373,
,,,,,,,,0,0,0,0,13,0,13,0,,,,,,,,,,,,,,,,,,unscrew,w,g,lower,g,1,0.49899337332317373,,,,,,,,,,,,,,,,,,,,,,,,,,,,,379,2023-11-15_15h37.48.723,leap3,2022.2.5,59.99992755512373,
,,,,,,,,0,0,0,0,,,,,,,,,,,,,,,,,,,,,,,,,,,,,,,,,,,,,,,,,,,,,,,,,,,,,,,,,379,2023-11-15_15h37.48.723,leap3,2022.2.5,59.99992755512373,
,,,,,,,,1,0,1,0,0,0,0,0,,,,,,,,,,,,,,,,,,grocus,nw,h,upper,h,1,0.7344020346499747,,,,,,,,,,,,,,,,,,,,,,,,,,,,,379,2023-11-15_15h37.48.723,leap3,2022.2.5,59.99992755512373,
,,,,,,,,1,0,1,0,1,0,1,0,,,,,,,,,,,,,,,,,,umpire,w,g,upper,g,1,1.3829505828980473,,,,,,,,,,,,,,,,,,,,,,,,,,,,,379,2023-11-15_15h37.48.723,leap3,2022.2.5,59.99992755512373,
,,,,,,,,1,0,1,0,2,0,2,0,,,,,,,,,,,,,,,,,,revival,w,g,upper,g,1,0.5814823783875909,,,,,,,,,,,,,,,,,,,,,,,,,,,,,379,2023-11-15_15h37.48.723,leap3,2022.2.5,59.99992755512373,
,,,,,,,,1,0,1,0,3,0,3,0,,,,,,,,,,,,,,,,,,picture,w,g,upper,g,1,0.5007296217372641,,,,,,,,,,,,,,,,,,,,,,,,,,,,,379,2023-11-15_15h37.48.723,leap3,2022.2.5,59.99992755512373,
,,,,,,,,1,0,1,0,4,0,4,0,,,,,,,,,,,,,,,,,,slumber,w,g,upper,g,1,0.6068264133646153,,,,,,,,,,,,,,,,,,,,,,,,,,,,,379,2023-11-15_15h37.48.723,leap3,2022.2.5,59.99992755512373,
,,,,,,,,1,0,1,0,5,0,5,0,,,,,,,,,,,,,,,,,,sponsor,w,g,upper,g,1,0.5167875047336565,,,,,,,,,,,,,,,,,,,,,,,,,,,,,379,2023-11-15_15h37.48.723,leap3,2022.2.5,59.99992755512373,
,,,,,,,,1,0,1,0,6,0,6,0,,,,,,,,,,,,,,,,,,lumbigo,nw,h,upper,h,1,0.5428840548775042,,,,,,,,,,,,,,,,,,,,,,,,,,,,,379,2023-11-15_15h37.48.723,leap3,2022.2.5,59.99992755512373,
,,,,,,,,1,0,1,0,7,0,7,0,,,,,,,,,,,,,,,,,,grimace,w,g,upper,g,1,0.5835594168747775,,,,,,,,,,,,,,,,,,,,,,,,,,,,,379,2023-11-15_15h37.48.723,leap3,2022.2.5,59.99992755512373,
,,,,,,,,1,0,1,0,8,0,8,0,,,,,,,,,,,,,,,,,,grutch,nw,h,upper,h,1,0.6220834849809762,,,,,,,,,,,,,,,,,,,,,,,,,,,,,379,2023-11-15_15h37.48.723,leap3,2022.2.5,59.99992755512373,
,,,,,,,,1,0,1,0,9,0,9,0,,,,,,,,,,,,,,,,,,hasking,nw,h,upper,h,1,0.6512601253125467,,,,,,,,,,,,,,,,,,,,,,,,,,,,,379,2023-11-15_15h37.48.723,leap3,2022.2.5,59.99992755512373,
,,,,,,,,1,0,1,0,10,0,10,0,,,,,,,,,,,,,,,,,,trotch,nw,h,upper,h,1,0.5514309731297544,,,,,,,,,,,,,,,,,,,,,,,,,,,,,379,2023-11-15_15h37.48.723,leap3,2022.2.5,59.99992755512373,
,,,,,,,,1,0,1,0,11,0,11,0,,,,,,,,,,,,,,,,,,crinklo,nw,h,upper,h,1,0.4795414748296025,,,,,,,,,,,,,,,,,,,,,,,,,,,,,379,2023-11-15_15h37.48.723,leap3,2022.2.5,59.99992755512373,
,,,,,,,,1,0,1,0,12,0,12,0,,,,,,,,,,,,,,,,,,alolition,nw,h,upper,h,1,1.5309573081322014,,,,,,,,,,,,,,,,,,,,,,,,,,,,,379,2023-11-15_15h37.48.723,leap3,2022.2.5,59.99992755512373,
,,,,,,,,1,0,1,0,13,0,13,0,,,,,,,,,,,,,,,,,,tricycle,w,g,upper,g,1,0.548324923729524,,,,,,,,,,,,,,,,,,,,,,,,,,,,,379,2023-11-15_15h37.48.723,leap3,2022.2.5,59.99992755512373,
,,,,,,,,1,0,1,0,,,,,,,,,,,,,,,,,,,,,,,,,,,,,,,,,,,,,,,,,,,,,,,,,,,,,,,,,379,2023-11-15_15h37.48.723,leap3,2022.2.5,59.99992755512373,
,,,,,,,,,,,,,,,,0,0,0,0,,,,,,,,,,,,,,,,,,,,,y,,,,,,,,,,,,,,,,,,,,,,,,,,,,379,2023-11-15_15h37.48.723,leap3,2022.2.5,59.99992755512373,
,,,,,,,,,,,,,,,,,,,,0,0,0,0,0,0,0,0,,,,,,movie,w,g,upper,,,,,animal,"
q
",4,w,LoDemTar,g,1,0.8179852505054441,,,,,,,,,,,,,,,,,,,,379,2023-11-15_15h37.48.723,leap3,2022.2.5,59.99992755512373,
,,,,,,,,,,,,,,,,,,,,0,0,0,0,1,0,1,0,,,,,,permeable,w,g,upper,,,,,,,4,w,LoDemTar,g,1,1.1126639147623791,,,,,,,,,,,,,,,,,,,,379,2023-11-15_15h37.48.723,leap3,2022.2.5,59.99992755512373,
,,,,,,,,,,,,,,,,,,,,0,0,0,0,2,0,2,0,,,,,,lignpost,nw,h,upper,,,,,,,4,nw,LoDemTar,h,1,0.8352073737914907,,,,,,,,,,,,,,,,,,,,379,2023-11-15_15h37.48.723,leap3,2022.2.5,59.99992755512373,
,,,,,,,,,,,,,,,,,,,,0,0,0,0,3,0,3,0,,,,,,rawhide,w,g,upper,,,,,,,4,w,LoDemTar,g,1,1.0086520097393077,,,,,,,,,,,,,,,,,,,,379,2023-11-15_15h37.48.723,leap3,2022.2.5,59.99992755512373,
,,,,,,,,,,,,,,,,,,,,0,0,0,0,4,0,4,0,,,,,,cayward,nw,h,upper,,,,,,,4,nw,LoDemTar,h,1,0.9273637689620955,,,,,,,,,,,,,,,,,,,,379,2023-11-15_15h37.48.723,leap3,2022.2.5,59.99992755512373,
,,,,,,,,,,,,,,,,,,,,0,0,0,0,5,0,5,0,,,,,,attrove,nw,h,upper,,,,,,,4,nw,LoDemTar,h,1,0.8493515198351815,,,,,,,,,,,,,,,,,,,,379,2023-11-15_15h37.48.723,leap3,2022.2.5,59.99992755512373,
,,,,,,,,,,,,,,,,,,,,0,0,0,0,6,0,6,0,,,,,,potter,w,g,upper,,,,,,,4,w,LoDemTar,g,1,1.646785180477309,,,,,,,,,,,,,,,,,,,,379,2023-11-15_15h37.48.723,leap3,2022.2.5,59.99992755512373,
,,,,,,,,,,,,,,,,,,,,0,0,0,0,7,0,7,0,,,,,,levels,w,g,upper,,,,,,,4,w,LoDemTar,g,1,0.6912285516737029,,,,,,,,,,,,,,,,,,,,379,2023-11-15_15h37.48.723,leap3,2022.2.5,59.99992755512373,
,,,,,,,,,,,,,,,,,,,,0,0,0,0,8,0,8,0,,,,,,burning,w,g,upper,,,,,,,4,w,LoDemTar,g,1,0.7506787598031224,,,,,,,,,,,,,,,,,,,,379,2023-11-15_15h37.48.723,leap3,2022.2.5,59.99992755512373,
,,,,,,,,,,,,,,,,,,,,0,0,0,0,9,0,9,0,,,,,,bookend,w,g,upper,,,,,,,4,w,LoDemTar,g,1,0.7352417848305777,,,,,,,,,,,,,,,,,,,,379,2023-11-15_15h37.48.723,leap3,2022.2.5,59.99992755512373,
,,,,,,,,,,,,,,,,,,,,0,0,0,0,10,0,10,0,,,,,,railway,w,g,upper,,,,,,,4,w,LoDemTar,g,1,0.6805587135531823,,,,,,,,,,,,,,,,,,,,379,2023-11-15_15h37.48.723,leap3,2022.2.5,59.99992755512373,
,,,,,,,,,,,,,,,,,,,,0,0,0,0,11,0,11,0,,,,,,intended,w,g,upper,,,,,,,4,w,LoDemTar,g,1,0.6765640140656615,,,,,,,,,,,,,,,,,,,,379,2023-11-15_15h37.48.723,leap3,2022.2.5,59.99992755512373,
,,,,,,,,,,,,,,,,,,,,0,0,0,0,12,0,12,0,,,,,,jungle,w,g,upper,,,,,,,4,w,LoDemTar,g,1,0.5206569359579589,,,,,,,,,,,,,,,,,,,,379,2023-11-15_15h37.48.723,leap3,2022.2.5,59.99992755512373,
,,,,,,,,,,,,,,,,,,,,0,0,0,0,13,0,13,0,,,,,,vibrate,w,g,upper,,,,,,,4,w,LoDemTar,g,1,0.5706845553431776,,,,,,,,,,,,,,,,,,,,379,2023-11-15_15h37.48.723,leap3,2022.2.5,59.99992755512373,
,,,,,,,,,,,,,,,,,,,,0,0,0,0,14,0,14,0,,,,,,crudios,nw,h,upper,,,,,,,4,nw,LoDemTar,h,1,0.7147183143897564,,,,,,,,,,,,,,,,,,,,379,2023-11-15_15h37.48.723,leap3,2022.2.5,59.99992755512373,
,,,,,,,,,,,,,,,,,,,,0,0,0,0,15,0,15,0,,,,,,perform,w,g,upper,,,,,,,4,w,LoDemTar,g,1,0.6534431135805789,,,,,,,,,,,,,,,,,,,,379,2023-11-15_15h37.48.723,leap3,2022.2.5,59.99992755512373,
,,,,,,,,,,,,,,,,,,,,0,0,0,0,16,0,16,0,,,,,,formation,w,g,upper,,,,,,,4,w,LoDemTar,g,1,0.8252698268115637,,,,,,,,,,,,,,,,,,,,379,2023-11-15_15h37.48.723,leap3,2022.2.5,59.99992755512373,
,,,,,,,,,,,,,,,,,,,,0,0,0,0,17,0,17,0,,,,,,outlaved,nw,h,upper,,,,,,,4,nw,LoDemTar,h,1,0.8472225629448076,,,,,,,,,,,,,,,,,,,,379,2023-11-15_15h37.48.723,leap3,2022.2.5,59.99992755512373,
,,,,,,,,,,,,,,,,,,,,0,0,0,0,18,0,18,0,,,,,,smabled,nw,h,upper,,,,,,,4,nw,LoDemTar,h,1,0.7405341428675456,,,,,,,,,,,,,,,,,,,,379,2023-11-15_15h37.48.723,leap3,2022.2.5,59.99992755512373,
,,,,,,,,,,,,,,,,,,,,0,0,0,0,19,0,19,0,,,,,,potent,w,g,upper,,,,,,,4,w,LoDemTar,g,1,0.7259106570272706,,,,,,,,,,,,,,,,,,,,379,2023-11-15_15h37.48.723,leap3,2022.2.5,59.99992755512373,
,,,,,,,,,,,,,,,,,,,,0,0,0,0,20,0,20,0,,,,,,welayed,nw,h,upper,,,,,,,4,nw,LoDemTar,h,1,0.6079562426020857,,,,,,,,,,,,,,,,,,,,379,2023-11-15_15h37.48.723,leap3,2022.2.5,59.99992755512373,
,,,,,,,,,,,,,,,,,,,,0,0,0,0,21,0,21,0,,,,,,bluads,nw,h,upper,,,,,,,4,nw,LoDemTar,h,1,0.6066564711072715,,,,,,,,,,,,,,,,,,,,379,2023-11-15_15h37.48.723,leap3,2022.2.5,59.99992755512373,
,,,,,,,,,,,,,,,,,,,,0,0,0,0,22,0,22,0,,,,,,ements,nw,h,upper,,,,,,,4,nw,LoDemTar,h,1,0.7413775152672315,,,,,,,,,,,,,,,,,,,,379,2023-11-15_15h37.48.723,leap3,2022.2.5,59.99992755512373,
,,,,,,,,,,,,,,,,,,,,0,0,0,0,23,0,23,0,,,,,,pexts,nw,h,upper,,,,,,,4,nw,LoDemTar,h,1,0.7011422524010413,,,,,,,,,,,,,,,,,,,,379,2023-11-15_15h37.48.723,leap3,2022.2.5,59.99992755512373,
,,,,,,,,,,,,,,,,,,,,0,0,0,0,24,0,24,0,,,,,,ladybug,target,q,upper,,,,,,,4,target,LoDemTar,q,1,0.7684378764606663,1,,,,,,,,,,,,,,,,,,,379,2023-11-15_15h37.48.723,leap3,2022.2.5,59.99992755512373,
,,,,,,,,,,,,,,,,,,,,0,0,0,0,25,0,25,0,,,,,,sunhess,nw,h,upper,,,,,,,4,aftertar1,LoDemTar,h,1,0.8332818646449596,,,,,,,,,,,,,,,,,,,,379,2023-11-15_15h37.48.723,leap3,2022.2.5,59.99992755512373,
,,,,,,,,,,,,,,,,,,,,0,0,0,0,26,0,26,0,,,,,,sludding,nw,h,upper,,,,,,,4,aftertar2,LoDemTar,h,1,0.8546502167519066,,,,,,,,,,,,,,,,,,,,379,2023-11-15_15h37.48.723,leap3,2022.2.5,59.99992755512373,
,,,,,,,,,,,,,,,,,,,,0,0,0,0,27,0,27,0,,,,,,chraps,nw,h,upper,,,,,,,4,aftertar3,LoDemTar,h,1,0.6672135677727056,,,,,,,,,,,,,,,,,,,,379,2023-11-15_15h37.48.723,leap3,2022.2.5,59.99992755512373,
,,,,,,,,,,,,,,,,,,,,0,0,0,0,28,0,28,0,,,,,,aicline,nw,h,upper,,,,,,,4,nw,LoDemTar,h,1,0.7112521564413328,,,,,,,,,,,,,,,,,,,,379,2023-11-15_15h37.48.723,leap3,2022.2.5,59.99992755512373,
,,,,,,,,,,,,,,,,,,,,0,0,0,0,29,0,29,0,,,,,,heaviest,w,g,upper,,,,,,,4,nw,LoDemTar,q,0,0.7377248132470413,,,,,,,,,,,,,,,,,,,,379,2023-11-15_15h37.48.723,leap3,2022.2.5,59.99992755512373,
,,,,,,,,,,,,,,,,,,,,0,0,0,0,,,,,,,,,,,,,,,,,,,,,,,,,,,1,,,,,,,,,,,,,,,,,,379,2023-11-15_15h37.48.723,leap3,2022.2.5,59.99992755512373,
,,,,,,,,,,,,,,,,,,,,1,0,1,0,0,0,0,0,,,,,,intrude,w,g,lower,,,,,,,1,w,HiDemTar,g,1,1.2274639835741255,,,,,,,,,,,,,,,,,,,,379,2023-11-15_15h37.48.723,leap3,2022.2.5,59.99992755512373,
,,,,,,,,,,,,,,,,,,,,1,0,1,0,1,0,1,0,,,,,,mullet,w,g,lower,,,,,,,1,w,HiDemTar,g,1,0.6403958949886146,,,,,,,,,,,,,,,,,,,,379,2023-11-15_15h37.48.723,leap3,2022.2.5,59.99992755512373,
,,,,,,,,,,,,,,,,,,,,1,0,1,0,2,0,2,0,,,,,,yellep,nw,h,lower,,,,,,,1,nw,HiDemTar,h,1,0.6697995274735149,,,,,,,,,,,,,,,,,,,,379,2023-11-15_15h37.48.723,leap3,2022.2.5,59.99992755512373,
,,,,,,,,,,,,,,,,,,,,1,0,1,0,3,0,3,0,,,,,,dazid,nw,h,lower,,,,,,,1,nw,HiDemTar,h,1,0.9195237863459624,,,,,,,,,,,,,,,,,,,,379,2023-11-15_15h37.48.723,leap3,2022.2.5,59.99992755512373,
,,,,,,,,,,,,,,,,,,,,1,0,1,0,4,0,4,0,,,,,,churnad,nw,h,lower,,,,,,,1,nw,HiDemTar,h,1,0.5798744167623227,,,,,,,,,,,,,,,,,,,,379,2023-11-15_15h37.48.723,leap3,2022.2.5,59.99992755512373,
,,,,,,,,,,,,,,,,,,,,1,0,1,0,5,0,5,0,,,,,,crundle,nw,h,lower,,,,,,,1,nw,HiDemTar,h,1,0.6599356322039966,,,,,,,,,,,,,,,,,,,,379,2023-11-15_15h37.48.723,leap3,2022.2.5,59.99992755512373,
,,,,,,,,,,,,,,,,,,,,1,0,1,0,6,0,6,0,,,,,,retain,w,g,lower,,,,,,,1,w,HiDemTar,g,1,0.4885955031859339,,,,,,,,,,,,,,,,,,,,379,2023-11-15_15h37.48.723,leap3,2022.2.5,59.99992755512373,
,,,,,,,,,,,,,,,,,,,,1,0,1,0,7,0,7,0,,,,,,perishing,w,g,lower,,,,,,,1,w,HiDemTar,h,0,0.7639937204512535,,,,,,,,,,,,,,,,,,,,379,2023-11-15_15h37.48.723,leap3,2022.2.5,59.99992755512373,
,,,,,,,,,,,,,,,,,,,,1,0,1,0,8,0,8,0,,,,,,telecast,w,g,lower,,,,,,,1,w,HiDemTar,h,0,0.7646771116924356,,,,,,,,,,,,,,,,,,,,379,2023-11-15_15h37.48.723,leap3,2022.2.5,59.99992755512373,
,,,,,,,,,,,,,,,,,,,,1,0,1,0,9,0,9,0,,,,,,pariah,w,g,lower,,,,,,,1,w,HiDemTar,g,1,0.948386501375353,,,,,,,,,,,,,,,,,,,,379,2023-11-15_15h37.48.723,leap3,2022.2.5,59.99992755512373,
,,,,,,,,,,,,,,,,,,,,1,0,1,0,10,0,10,0,,,,,,thacked,nw,h,lower,,,,,,,1,nw,HiDemTar,h,1,0.5417810903963982,,,,,,,,,,,,,,,,,,,,379,2023-11-15_15h37.48.723,leap3,2022.2.5,59.99992755512373,
,,,,,,,,,,,,,,,,,,,,1,0,1,0,11,0,11,0,,,,,,neliefs,nw,h,lower,,,,,,,1,nw,HiDemTar,h,1,0.5673116694379132,,,,,,,,,,,,,,,,,,,,379,2023-11-15_15h37.48.723,leap3,2022.2.5,59.99992755512373,
,,,,,,,,,,,,,,,,,,,,1,0,1,0,12,0,12,0,,,,,,explosion,w,g,lower,,,,,,,1,w,HiDemTar,g,1,0.6311767540028086,,,,,,,,,,,,,,,,,,,,379,2023-11-15_15h37.48.723,leap3,2022.2.5,59.99992755512373,
,,,,,,,,,,,,,,,,,,,,1,0,1,0,13,0,13,0,,,,,,brimitar,nw,h,lower,,,,,,,1,nw,HiDemTar,h,1,0.48521567470015725,,,,,,,,,,,,,,,,,,,,379,2023-11-15_15h37.48.723,leap3,2022.2.5,59.99992755512373,
,,,,,,,,,,,,,,,,,,,,1,0,1,0,14,0,14,0,,,,,,booster,w,g,lower,,,,,,,1,w,HiDemTar,g,1,0.6473756015329855,,,,,,,,,,,,,,,,,,,,379,2023-11-15_15h37.48.723,leap3,2022.2.5,59.99992755512373,
,,,,,,,,,,,,,,,,,,,,1,0,1,0,15,0,15,0,,,,,,usually,w,g,lower,,,,,,,1,w,HiDemTar,g,1,0.588683040048636,,,,,,,,,,,,,,,,,,,,379,2023-11-15_15h37.48.723,leap3,2022.2.5,59.99992755512373,
,,,,,,,,,,,,,,,,,,,,1,0,1,0,16,0,16,0,,,,,,arrested,w,g,lower,,,,,,,1,w,HiDemTar,g,1,0.5325697975349613,,,,,,,,,,,,,,,,,,,,379,2023-11-15_15h37.48.723,leap3,2022.2.5,59.99992755512373,
,,,,,,,,,,,,,,,,,,,,1,0,1,0,17,0,17,0,,,,,,populace,w,g,lower,,,,,,,1,w,HiDemTar,h,0,0.7753034832276171,,,,,,,,,,,,,,,,,,,,379,2023-11-15_15h37.48.723,leap3,2022.2.5,59.99992755512373,
,,,,,,,,,,,,,,,,,,,,1,0,1,0,18,0,18,0,,,,,,leuter,nw,h,lower,,,,,,,1,nw,HiDemTar,h,1,0.7754607477327227,,,,,,,,,,,,,,,,,,,,379,2023-11-15_15h37.48.723,leap3,2022.2.5,59.99992755512373,
,,,,,,,,,,,,,,,,,,,,1,0,1,0,19,0,19,0,,,,,,paranoid,w,g,lower,,,,,,,1,w,HiDemTar,h,0,0.47066493501188233,,,,,,,,,,,,,,,,,,,,379,2023-11-15_15h37.48.723,leap3,2022.2.5,59.99992755512373,
,,,,,,,,,,,,,,,,,,,,1,0,1,0,20,0,20,0,,,,,,mabit,nw,h,lower,,,,,,,1,nw,HiDemTar,h,1,0.6263969393985462,,,,,,,,,,,,,,,,,,,,379,2023-11-15_15h37.48.723,leap3,2022.2.5,59.99992755512373,
,,,,,,,,,,,,,,,,,,,,1,0,1,0,21,0,21,0,,,,,,eggays,nw,h,lower,,,,,,,1,nw,HiDemTar,h,1,0.7204456400722847,,,,,,,,,,,,,,,,,,,,379,2023-11-15_15h37.48.723,leap3,2022.2.5,59.99992755512373,
,,,,,,,,,,,,,,,,,,,,1,0,1,0,22,0,22,0,,,,,,aggepting,nw,h,lower,,,,,,,1,nw,HiDemTar,h,1,0.7945072599904961,,,,,,,,,,,,,,,,,,,,379,2023-11-15_15h37.48.723,leap3,2022.2.5,59.99992755512373,
,,,,,,,,,,,,,,,,,,,,1,0,1,0,23,0,23,0,,,,,,gettle,nw,h,lower,,,,,,,1,nw,HiDemTar,h,1,0.881856372099719,,,,,,,,,,,,,,,,,,,,379,2023-11-15_15h37.48.723,leap3,2022.2.5,59.99992755512373,
,,,,,,,,,,,,,,,,,,,,1,0,1,0,24,0,24,0,,,,,,pypecast,nw,h,lower,,,,,,,1,nw,HiDemTar,h,1,0.8939280074337148,,,,,,,,,,,,,,,,,,,,379,2023-11-15_15h37.48.723,leap3,2022.2.5,59.99992755512373,
,,,,,,,,,,,,,,,,,,,,1,0,1,0,25,0,25,0,,,,,,lawsuit,w,g,lower,,,,,,,1,w,HiDemTar,g,1,0.7373610824870411,,,,,,,,,,,,,,,,,,,,379,2023-11-15_15h37.48.723,leap3,2022.2.5,59.99992755512373,
,,,,,,,,,,,,,,,,,,,,1,0,1,0,26,0,26,0,,,,,,mebase,nw,h,lower,,,,,,,1,nw,HiDemTar,h,1,0.5626390120305587,,,,,,,,,,,,,,,,,,,,379,2023-11-15_15h37.48.723,leap3,2022.2.5,59.99992755512373,
,,,,,,,,,,,,,,,,,,,,1,0,1,0,27,0,27,0,,,,,,stalemate,w,g,lower,,,,,,,1,w,HiDemTar,g,1,1.0593642277817708,,,,,,,,,,,,,,,,,,,,379,2023-11-15_15h37.48.723,leap3,2022.2.5,59.99992755512373,
,,,,,,,,,,,,,,,,,,,,1,0,1,0,28,0,28,0,,,,,,elephant,target,q,lower,,,,,,,1,target,HiDemTar,g,0,0.47114850072102854,,,,,,,,,,,,,,,,,,,,379,2023-11-15_15h37.48.723,leap3,2022.2.5,59.99992755512373,
,,,,,,,,,,,,,,,,,,,,1,0,1,0,29,0,29,0,,,,,,rodeo,w,g,lower,,,,,,,1,aftertar1,HiDemTar,g,1,1.8111045511759585,,,,,,,,,,,,,,,,,,,,379,2023-11-15_15h37.48.723,leap3,2022.2.5,59.99992755512373,
,,,,,,,,,,,,,,,,,,,,1,0,1,0,,,,,,,,,,,,,,,,,,,,,,,,,,,0,,,,,,,,,,,,,,,,,,379,2023-11-15_15h37.48.723,leap3,2022.2.5,59.99992755512373,
,,,,,,,,,,,,,,,,,,,,2,0,2,0,0,0,0,0,,,,,,oppose,w,g,lower,,,,,,,1,w,HiDemTar,g,1,0.8418526291425223,,,,,,,,,,,,,,,,,,,,379,2023-11-15_15h37.48.723,leap3,2022.2.5,59.99992755512373,
,,,,,,,,,,,,,,,,,,,,2,0,2,0,1,0,1,0,,,,,,grolific,nw,h,lower,,,,,,,1,nw,HiDemTar,h,1,0.7032032927600085,,,,,,,,,,,,,,,,,,,,379,2023-11-15_15h37.48.723,leap3,2022.2.5,59.99992755512373,
,,,,,,,,,,,,,,,,,,,,2,0,2,0,2,0,2,0,,,,,,nameplate,w,g,lower,,,,,,,1,w,HiDemTar,g,1,0.7608879729086766,,,,,,,,,,,,,,,,,,,,379,2023-11-15_15h37.48.723,leap3,2022.2.5,59.99992755512373,
,,,,,,,,,,,,,,,,,,,,2,0,2,0,3,0,3,0,,,,,,carnival,w,g,lower,,,,,,,1,w,HiDemTar,g,1,0.6095768819868681,,,,,,,,,,,,,,,,,,,,379,2023-11-15_15h37.48.723,leap3,2022.2.5,59.99992755512373,
,,,,,,,,,,,,,,,,,,,,2,0,2,0,4,0,4,0,,,,,,confined,w,g,lower,,,,,,,1,w,HiDemTar,g,1,0.5523090584174497,,,,,,,,,,,,,,,,,,,,379,2023-11-15_15h37.48.723,leap3,2022.2.5,59.99992755512373,
,,,,,,,,,,,,,,,,,,,,2,0,2,0,5,0,5,0,,,,,,etuip,nw,h,lower,,,,,,,1,nw,HiDemTar,h,1,0.519840730165015,,,,,,,,,,,,,,,,,,,,379,2023-11-15_15h37.48.723,leap3,2022.2.5,59.99992755512373,
,,,,,,,,,,,,,,,,,,,,2,0,2,0,6,0,6,0,,,,,,glating,nw,h,lower,,,,,,,1,nw,HiDemTar,h,1,1.0017876103811432,,,,,,,,,,,,,,,,,,,,379,2023-11-15_15h37.48.723,leap3,2022.2.5,59.99992755512373,
,,,,,,,,,,,,,,,,,,,,2,0,2,0,7,0,7,0,,,,,,official,w,g,lower,,,,,,,1,w,HiDemTar,g,1,0.6171367466304218,,,,,,,,,,,,,,,,,,,,379,2023-11-15_15h37.48.723,leap3,2022.2.5,59.99992755512373,
,,,,,,,,,,,,,,,,,,,,2,0,2,0,8,0,8,0,,,,,,alarm,w,g,lower,,,,,,,1,w,HiDemTar,g,1,0.767696831630019,,,,,,,,,,,,,,,,,,,,379,2023-11-15_15h37.48.723,leap3,2022.2.5,59.99992755512373,
,,,,,,,,,,,,,,,,,,,,2,0,2,0,9,0,9,0,,,,,,selongs,nw,h,lower,,,,,,,1,nw,HiDemTar,h,1,0.7677949332937715,,,,,,,,,,,,,,,,,,,,379,2023-11-15_15h37.48.723,leap3,2022.2.5,59.99992755512373,
,,,,,,,,,,,,,,,,,,,,2,0,2,0,10,0,10,0,,,,,,deakers,nw,h,lower,,,,,,,1,nw,HiDemTar,h,1,0.759005628482555,,,,,,,,,,,,,,,,,,,,379,2023-11-15_15h37.48.723,leap3,2022.2.5,59.99992755512373,
,,,,,,,,,,,,,,,,,,,,2,0,2,0,11,0,11,0,,,,,,demise,w,g,lower,,,,,,,1,w,HiDemTar,g,1,0.7276019296041341,,,,,,,,,,,,,,,,,,,,379,2023-11-15_15h37.48.723,leap3,2022.2.5,59.99992755512373,
,,,,,,,,,,,,,,,,,,,,2,0,2,0,12,0,12,0,,,,,,sengry,nw,h,lower,,,,,,,1,nw,HiDemTar,h,1,0.6495896804772201,,,,,,,,,,,,,,,,,,,,379,2023-11-15_15h37.48.723,leap3,2022.2.5,59.99992755512373,
,,,,,,,,,,,,,,,,,,,,2,0,2,0,13,0,13,0,,,,,,elbalm,nw,h,lower,,,,,,,1,nw,HiDemTar,h,1,0.5909665447834413,,,,,,,,,,,,,,,,,,,,379,2023-11-15_15h37.48.723,leap3,2022.2.5,59.99992755512373,
,,,,,,,,,,,,,,,,,,,,2,0,2,0,14,0,14,0,,,,,,schides,nw,h,lower,,,,,,,1,nw,HiDemTar,h,1,0.5903163571856567,,,,,,,,,,,,,,,,,,,,379,2023-11-15_15h37.48.723,leap3,2022.2.5,59.99992755512373,
,,,,,,,,,,,,,,,,,,,,2,0,2,0,15,0,15,0,,,,,,abstain,w,g,lower,,,,,,,1,w,HiDemTar,g,1,1.245719947401085,,,,,,,,,,,,,,,,,,,,379,2023-11-15_15h37.48.723,leap3,2022.2.5,59.99992755512373,
,,,,,,,,,,,,,,,,,,,,2,0,2,0,16,0,16,0,,,,,,fomes,nw,h,lower,,,,,,,1,nw,HiDemTar,h,1,0.6110804030759027,,,,,,,,,,,,,,,,,,,,379,2023-11-15_15h37.48.723,leap3,2022.2.5,59.99992755512373,
,,,,,,,,,,,,,,,,,,,,2,0,2,0,17,0,17,0,,,,,,funtair,nw,h,lower,,,,,,,1,nw,HiDemTar,h,1,0.5457329270066111,,,,,,,,,,,,,,,,,,,,379,2023-11-15_15h37.48.723,leap3,2022.2.5,59.99992755512373,
,,,,,,,,,,,,,,,,,,,,2,0,2,0,18,0,18,0,,,,,,pegend,nw,h,lower,,,,,,,1,nw,HiDemTar,h,1,0.7391045753247454,,,,,,,,,,,,,,,,,,,,379,2023-11-15_15h37.48.723,leap3,2022.2.5,59.99992755512373,
,,,,,,,,,,,,,,,,,,,,2,0,2,0,19,0,19,0,,,,,,region,w,g,lower,,,,,,,1,w,HiDemTar,g,1,0.6844673854357097,,,,,,,,,,,,,,,,,,,,379,2023-11-15_15h37.48.723,leap3,2022.2.5,59.99992755512373,
,,,,,,,,,,,,,,,,,,,,2,0,2,0,20,0,20,0,,,,,,venturous,w,g,lower,,,,,,,1,w,HiDemTar,g,1,0.8789190575480461,,,,,,,,,,,,,,,,,,,,379,2023-11-15_15h37.48.723,leap3,2022.2.5,59.99992755512373,
,,,,,,,,,,,,,,,,,,,,2,0,2,0,21,0,21,0,,,,,,chicken,target,q,lower,,,,,,,1,target,HiDemTar,q,1,0.9549010551345418,1,,,,,,,,,,,,,,,,,,,379,2023-11-15_15h37.48.723,leap3,2022.2.5,59.99992755512373,
,,,,,,,,,,,,,,,,,,,,2,0,2,0,22,0,22,0,,,,,,deeper,w,g,lower,,,,,,,1,aftertar1,HiDemTar,g,1,0.6755778660226497,,,,,,,,,,,,,,,,,,,,379,2023-11-15_15h37.48.723,leap3,2022.2.5,59.99992755512373,
,,,,,,,,,,,,,,,,,,,,2,0,2,0,23,0,23,0,,,,,,computer,w,g,lower,,,,,,,1,aftertar2,HiDemTar,g,1,0.5436172515765065,,,,,,,,,,,,,,,,,,,,379,2023-11-15_15h37.48.723,leap3,2022.2.5,59.99992755512373,
,,,,,,,,,,,,,,,,,,,,2,0,2,0,24,0,24,0,,,,,,moozy,nw,h,lower,,,,,,,1,aftertar3,HiDemTar,h,1,0.8810609940483118,,,,,,,,,,,,,,,,,,,,379,2023-11-15_15h37.48.723,leap3,2022.2.5,59.99992755512373,
,,,,,,,,,,,,,,,,,,,,2,0,2,0,25,0,25,0,,,,,,rebool,nw,h,lower,,,,,,,1,nw,HiDemTar,h,1,0.6290855285114958,,,,,,,,,,,,,,,,,,,,379,2023-11-15_15h37.48.723,leap3,2022.2.5,59.99992755512373,
,,,,,,,,,,,,,,,,,,,,2,0,2,0,26,0,26,0,,,,,,inducing,w,g,lower,,,,,,,1,nw,HiDemTar,g,1,0.7390819364809431,,,,,,,,,,,,,,,,,,,,379,2023-11-15_15h37.48.723,leap3,2022.2.5,59.99992755512373,
,,,,,,,,,,,,,,,,,,,,2,0,2,0,27,0,27,0,,,,,,ronic,nw,h,lower,,,,,,,1,w,HiDemTar,h,1,0.6677291297164629,,,,,,,,,,,,,,,,,,,,379,2023-11-15_15h37.48.723,leap3,2022.2.5,59.99992755512373,
,,,,,,,,,,,,,,,,,,,,2,0,2,0,28,0,28,0,,,,,,terrify,w,g,lower,,,,,,,1,nw,HiDemTar,g,1,0.5525052617376787,,,,,,,,,,,,,,,,,,,,379,2023-11-15_15h37.48.723,leap3,2022.2.5,59.99992755512373,
,,,,,,,,,,,,,,,,,,,,2,0,2,0,29,0,29,0,,,,,,implode,w,g,lower,,,,,,,1,w,HiDemTar,g,1,0.5362457421069848,,,,,,,,,,,,,,,,,,,,379,2023-11-15_15h37.48.723,leap3,2022.2.5,59.99992755512373,
,,,,,,,,,,,,,,,,,,,,2,0,2,0,,,,,,,,,,,,,,,,,,,,,,,,,,,1,,,,,,,,,,,,,,,,,,379,2023-11-15_15h37.48.723,leap3,2022.2.5,59.99992755512373,
,,,,,,,,,,,,,,,,,,,,3,0,3,0,0,0,0,0,,,,,,unburnid,nw,h,lower,,,,,,,1,nw,HiDemTar,h,1,1.2584695406549145,,,,,,,,,,,,,,,,,,,,379,2023-11-15_15h37.48.723,leap3,2022.2.5,59.99992755512373,
,,,,,,,,,,,,,,,,,,,,3,0,3,0,1,0,1,0,,,,,,encounter,w,g,lower,,,,,,,1,w,HiDemTar,g,1,0.5831338066054741,,,,,,,,,,,,,,,,,,,,379,2023-11-15_15h37.48.723,leap3,2022.2.5,59.99992755512373,
,,,,,,,,,,,,,,,,,,,,3,0,3,0,2,0,2,0,,,,,,ephically,nw,h,lower,,,,,,,1,nw,HiDemTar,h,1,1.710307362016465,,,,,,,,,,,,,,,,,,,,379,2023-11-15_15h37.48.723,leap3,2022.2.5,59.99992755512373,
,,,,,,,,,,,,,,,,,,,,3,0,3,0,3,0,3,0,,,,,,suburb,w,g,lower,,,,,,,1,w,HiDemTar,g,1,0.5048779635180836,,,,,,,,,,,,,,,,,,,,379,2023-11-15_15h37.48.723,leap3,2022.2.5,59.99992755512373,
,,,,,,,,,,,,,,,,,,,,3,0,3,0,4,0,4,0,,,,,,balign,nw,h,lower,,,,,,,1,nw,HiDemTar,h,1,0.9475376956543187,,,,,,,,,,,,,,,,,,,,379,2023-11-15_15h37.48.723,leap3,2022.2.5,59.99992755512373,
,,,,,,,,,,,,,,,,,,,,3,0,3,0,5,0,5,0,,,,,,gigglod,nw,h,lower,,,,,,,1,nw,HiDemTar,h,1,0.5569723584412714,,,,,,,,,,,,,,,,,,,,379,2023-11-15_15h37.48.723,leap3,2022.2.5,59.99992755512373,
,,,,,,,,,,,,,,,,,,,,3,0,3,0,6,0,6,0,,,,,,retona,nw,h,lower,,,,,,,1,nw,HiDemTar,h,1,0.5176909455403802,,,,,,,,,,,,,,,,,,,,379,2023-11-15_15h37.48.723,leap3,2022.2.5,59.99992755512373,
,,,,,,,,,,,,,,,,,,,,3,0,3,0,7,0,7,0,,,,,,sweeping,w,g,lower,,,,,,,1,w,HiDemTar,g,1,0.6236697133208509,,,,,,,,,,,,,,,,,,,,379,2023-11-15_15h37.48.723,leap3,2022.2.5,59.99992755512373,
,,,,,,,,,,,,,,,,,,,,3,0,3,0,8,0,8,0,,,,,,boulder,w,g,lower,,,,,,,1,w,HiDemTar,g,1,0.7817498186050216,,,,,,,,,,,,,,,,,,,,379,2023-11-15_15h37.48.723,leap3,2022.2.5,59.99992755512373,
,,,,,,,,,,,,,,,,,,,,3,0,3,0,9,0,9,0,,,,,,presently,w,g,lower,,,,,,,1,w,HiDemTar,g,1,0.9818065666404436,,,,,,,,,,,,,,,,,,,,379,2023-11-15_15h37.48.723,leap3,2022.2.5,59.99992755512373,
,,,,,,,,,,,,,,,,,,,,3,0,3,0,10,0,10,0,,,,,,slimped,nw,h,lower,,,,,,,1,nw,HiDemTar,h,1,0.8777943597742706,,,,,,,,,,,,,,,,,,,,379,2023-11-15_15h37.48.723,leap3,2022.2.5,59.99992755512373,
,,,,,,,,,,,,,,,,,,,,3,0,3,0,11,0,11,0,,,,,,kickoff,w,g,lower,,,,,,,1,w,HiDemTar,g,1,0.5929162020329386,,,,,,,,,,,,,,,,,,,,379,2023-11-15_15h37.48.723,leap3,2022.2.5,59.99992755512373,
,,,,,,,,,,,,,,,,,,,,3,0,3,0,12,0,12,0,,,,,,phambled,nw,h,lower,,,,,,,1,nw,HiDemTar,h,1,0.6721826431166846,,,,,,,,,,,,,,,,,,,,379,2023-11-15_15h37.48.723,leap3,2022.2.5,59.99992755512373,
,,,,,,,,,,,,,,,,,,,,3,0,3,0,13,0,13,0,,,,,,peahem,nw,h,lower,,,,,,,1,nw,HiDemTar,h,1,0.5001887042890303,,,,,,,,,,,,,,,,,,,,379,2023-11-15_15h37.48.723,leap3,2022.2.5,59.99992755512373,
,,,,,,,,,,,,,,,,,,,,3,0,3,0,14,0,14,0,,,,,,outfit,w,g,lower,,,,,,,1,w,HiDemTar,g,1,0.5036391659741639,,,,,,,,,,,,,,,,,,,,379,2023-11-15_15h37.48.723,leap3,2022.2.5,59.99992755512373,
,,,,,,,,,,,,,,,,,,,,3,0,3,0,15,0,15,0,,,,,,axis,w,g,lower,,,,,,,1,w,HiDemTar,g,1,0.586316526227165,,,,,,,,,,,,,,,,,,,,379,2023-11-15_15h37.48.723,leap3,2022.2.5,59.99992755512373,
,,,,,,,,,,,,,,,,,,,,3,0,3,0,16,0,16,0,,,,,,vergas,nw,h,lower,,,,,,,1,nw,HiDemTar,h,1,0.6816260595951462,,,,,,,,,,,,,,,,,,,,379,2023-11-15_15h37.48.723,leap3,2022.2.5,59.99992755512373,
,,,,,,,,,,,,,,,,,,,,3,0,3,0,17,0,17,0,,,,,,suddenly,w,g,lower,,,,,,,1,w,HiDemTar,g,1,0.6457241733223782,,,,,,,,,,,,,,,,,,,,379,2023-11-15_15h37.48.723,leap3,2022.2.5,59.99992755512373,
,,,,,,,,,,,,,,,,,,,,3,0,3,0,18,0,18,0,,,,,,trewl,nw,h,lower,,,,,,,1,nw,HiDemTar,h,1,0.6270751991614816,,,,,,,,,,,,,,,,,,,,379,2023-11-15_15h37.48.723,leap3,2022.2.5,59.99992755512373,
,,,,,,,,,,,,,,,,,,,,3,0,3,0,19,0,19,0,,,,,,latirizes,nw,h,lower,,,,,,,1,nw,HiDemTar,h,1,0.4811844512078096,,,,,,,,,,,,,,,,,,,,379,2023-11-15_15h37.48.723,leap3,2022.2.5,59.99992755512373,
,,,,,,,,,,,,,,,,,,,,3,0,3,0,20,0,20,0,,,,,,arbitrary,w,g,lower,,,,,,,1,w,HiDemTar,g,1,0.7651359255978605,,,,,,,,,,,,,,,,,,,,379,2023-11-15_15h37.48.723,leap3,2022.2.5,59.99992755512373,
,,,,,,,,,,,,,,,,,,,,3,0,3,0,21,0,21,0,,,,,,arrow,w,g,lower,,,,,,,1,w,HiDemTar,g,1,0.6858335642173188,,,,,,,,,,,,,,,,,,,,379,2023-11-15_15h37.48.723,leap3,2022.2.5,59.99992755512373,
,,,,,,,,,,,,,,,,,,,,3,0,3,0,22,0,22,0,,,,,,ulcer,w,g,lower,,,,,,,1,w,HiDemTar,g,1,0.6309370841045165,,,,,,,,,,,,,,,,,,,,379,2023-11-15_15h37.48.723,leap3,2022.2.5,59.99992755512373,
,,,,,,,,,,,,,,,,,,,,3,0,3,0,23,0,23,0,,,,,,browting,nw,h,lower,,,,,,,1,nw,HiDemTar,h,1,0.6529686034045881,,,,,,,,,,,,,,,,,,,,379,2023-11-15_15h37.48.723,leap3,2022.2.5,59.99992755512373,
,,,,,,,,,,,,,,,,,,,,3,0,3,0,24,0,24,0,,,,,,riosk,nw,h,lower,,,,,,,1,nw,HiDemTar,h,1,0.5620277632406214,,,,,,,,,,,,,,,,,,,,379,2023-11-15_15h37.48.723,leap3,2022.2.5,59.99992755512373,
,,,,,,,,,,,,,,,,,,,,3,0,3,0,25,0,25,0,,,,,,monkey,target,q,lower,,,,,,,1,target,HiDemTar,g,0,0.6193580700055463,1,,1,,,,,,,,,,,,,,,,,379,2023-11-15_15h37.48.723,leap3,2022.2.5,59.99992755512373,
,,,,,,,,,,,,,,,,,,,,3,0,3,0,26,0,26,0,,,,,,iflaid,nw,h,lower,,,,,,,1,aftertar1,HiDemTar,h,1,0.6414979539185879,,,,,,,,,,,,,,,,,,,,379,2023-11-15_15h37.48.723,leap3,2022.2.5,59.99992755512373,
,,,,,,,,,,,,,,,,,,,,3,0,3,0,27,0,27,0,,,,,,uncle,w,g,lower,,,,,,,1,aftertar2,HiDemTar,g,1,0.7267974960050196,,,,,,,,,,,,,,,,,,,,379,2023-11-15_15h37.48.723,leap3,2022.2.5,59.99992755512373,
,,,,,,,,,,,,,,,,,,,,3,0,3,0,28,0,28,0,,,,,,planar,w,g,lower,,,,,,,1,aftertar3,HiDemTar,g,1,0.6969063737560646,,,,,,,,,,,,,,,,,,,,379,2023-11-15_15h37.48.723,leap3,2022.2.5,59.99992755512373,
,,,,,,,,,,,,,,,,,,,,3,0,3,0,29,0,29,0,,,,,,robbery,w,g,lower,,,,,,,1,w,HiDemTar,g,1,0.48341845233517233,,,,,,,,,,,,,,,,,,,,379,2023-11-15_15h37.48.723,leap3,2022.2.5,59.99992755512373,
,,,,,,,,,,,,,,,,,,,,3,0,3,0,,,,,,,,,,,,,,,,,,,,,,,,,,,1,,,,,,,,,,,,,,,,,,379,2023-11-15_15h37.48.723,leap3,2022.2.5,59.99992755512373,
,,,,,,,,,,,,,,,,,,,,4,0,4,0,0,0,0,0,,,,,,laser,w,g,upper,,,,,,,3,w,LoDemNoTar,g,1,0.7914332068248768,,,,,,,,,,,,,,,,,,,,379,2023-11-15_15h37.48.723,leap3,2022.2.5,59.99992755512373,
,,,,,,,,,,,,,,,,,,,,4,0,4,0,1,0,1,0,,,,,,ireology,nw,h,upper,,,,,,,3,nw,LoDemNoTar,h,1,0.8707908069845871,,,,,,,,,,,,,,,,,,,,379,2023-11-15_15h37.48.723,leap3,2022.2.5,59.99992755512373,
,,,,,,,,,,,,,,,,,,,,4,0,4,0,2,0,2,0,,,,,,cassette,w,g,upper,,,,,,,3,w,LoDemNoTar,g,1,0.7708249161805725,,,,,,,,,,,,,,,,,,,,379,2023-11-15_15h37.48.723,leap3,2022.2.5,59.99992755512373,
,,,,,,,,,,,,,,,,,,,,4,0,4,0,3,0,3,0,,,,,,allained,nw,h,upper,,,,,,,3,nw,LoDemNoTar,h,1,0.7069109317089897,,,,,,,,,,,,,,,,,,,,379,2023-11-15_15h37.48.723,leap3,2022.2.5,59.99992755512373,
,,,,,,,,,,,,,,,,,,,,4,0,4,0,4,0,4,0,,,,,,pakened,nw,h,upper,,,,,,,3,nw,LoDemNoTar,h,1,0.6935232249088585,,,,,,,,,,,,,,,,,,,,379,2023-11-15_15h37.48.723,leap3,2022.2.5,59.99992755512373,
,,,,,,,,,,,,,,,,,,,,4,0,4,0,5,0,5,0,,,,,,urgency,w,g,upper,,,,,,,3,w,LoDemNoTar,g,1,0.512960936393938,,,,,,,,,,,,,,,,,,,,379,2023-11-15_15h37.48.723,leap3,2022.2.5,59.99992755512373,
,,,,,,,,,,,,,,,,,,,,4,0,4,0,6,0,6,0,,,,,,army,w,g,upper,,,,,,,3,w,LoDemNoTar,g,1,0.5707343608009978,,,,,,,,,,,,,,,,,,,,379,2023-11-15_15h37.48.723,leap3,2022.2.5,59.99992755512373,
,,,,,,,,,,,,,,,,,,,,4,0,4,0,7,0,7,0,,,,,,sonkers,nw,h,upper,,,,,,,3,nw,LoDemNoTar,h,1,0.5146621700550895,,,,,,,,,,,,,,,,,,,,379,2023-11-15_15h37.48.723,leap3,2022.2.5,59.99992755512373,
,,,,,,,,,,,,,,,,,,,,4,0,4,0,8,0,8,0,,,,,,fullity,nw,h,upper,,,,,,,3,nw,LoDemNoTar,h,1,0.5013595853015431,,,,,,,,,,,,,,,,,,,,379,2023-11-15_15h37.48.723,leap3,2022.2.5,59.99992755512373,
,,,,,,,,,,,,,,,,,,,,4,0,4,0,9,0,9,0,,,,,,wrecber,nw,h,upper,,,,,,,3,nw,LoDemNoTar,h,1,0.5280957582508563,,,,,,,,,,,,,,,,,,,,379,2023-11-15_15h37.48.723,leap3,2022.2.5,59.99992755512373,
,,,,,,,,,,,,,,,,,,,,4,0,4,0,10,0,10,0,,,,,,prominent,w,g,upper,,,,,,,3,w,LoDemNoTar,g,1,0.5941057978270692,,,,,,,,,,,,,,,,,,,,379,2023-11-15_15h37.48.723,leap3,2022.2.5,59.99992755512373,
,,,,,,,,,,,,,,,,,,,,4,0,4,0,11,0,11,0,,,,,,provide,w,g,upper,,,,,,,3,w,LoDemNoTar,g,1,0.5375047636844101,,,,,,,,,,,,,,,,,,,,379,2023-11-15_15h37.48.723,leap3,2022.2.5,59.99992755512373,
,,,,,,,,,,,,,,,,,,,,4,0,4,0,12,0,12,0,,,,,,fracture,w,g,upper,,,,,,,3,w,LoDemNoTar,g,1,0.49883822178526316,,,,,,,,,,,,,,,,,,,,379,2023-11-15_15h37.48.723,leap3,2022.2.5,59.99992755512373,
,,,,,,,,,,,,,,,,,,,,4,0,4,0,13,0,13,0,,,,,,godomy,nw,h,upper,,,,,,,3,nw,LoDemNoTar,h,1,0.6142371634850861,,,,,,,,,,,,,,,,,,,,379,2023-11-15_15h37.48.723,leap3,2022.2.5,59.99992755512373,
,,,,,,,,,,,,,,,,,,,,4,0,4,0,14,0,14,0,,,,,,pamine,nw,h,upper,,,,,,,3,nw,LoDemNoTar,h,1,0.5409395290989778,,,,,,,,,,,,,,,,,,,,379,2023-11-15_15h37.48.723,leap3,2022.2.5,59.99992755512373,
,,,,,,,,,,,,,,,,,,,,4,0,4,0,15,0,15,0,,,,,,giving,w,g,upper,,,,,,,3,w,LoDemNoTar,g,1,0.5173238944116747,,,,,,,,,,,,,,,,,,,,379,2023-11-15_15h37.48.723,leap3,2022.2.5,59.99992755512373,
,,,,,,,,,,,,,,,,,,,,4,0,4,0,16,0,16,0,,,,,,currowing,nw,h,upper,,,,,,,3,nw,LoDemNoTar,h,1,0.6942310660961084,,,,,,,,,,,,,,,,,,,,379,2023-11-15_15h37.48.723,leap3,2022.2.5,59.99992755512373,
,,,,,,,,,,,,,,,,,,,,4,0,4,0,17,0,17,0,,,,,,matter,w,g,upper,,,,,,,3,w,LoDemNoTar,g,1,0.6260012124039349,,,,,,,,,,,,,,,,,,,,379,2023-11-15_15h37.48.723,leap3,2022.2.5,59.99992755512373,
,,,,,,,,,,,,,,,,,,,,4,0,4,0,18,0,18,0,,,,,,lovud,nw,h,upper,,,,,,,3,nw,LoDemNoTar,h,1,0.5765344326428021,,,,,,,,,,,,,,,,,,,,379,2023-11-15_15h37.48.723,leap3,2022.2.5,59.99992755512373,
,,,,,,,,,,,,,,,,,,,,4,0,4,0,19,0,19,0,,,,,,goltish,nw,h,upper,,,,,,,3,nw,LoDemNoTar,h,1,0.584781914447376,,,,,,,,,,,,,,,,,,,,379,2023-11-15_15h37.48.723,leap3,2022.2.5,59.99992755512373,
,,,,,,,,,,,,,,,,,,,,4,0,4,0,20,0,20,0,,,,,,uncarled,nw,h,upper,,,,,,,3,nw,LoDemNoTar,h,1,0.560151757694257,,,,,,,,,,,,,,,,,,,,379,2023-11-15_15h37.48.723,leap3,2022.2.5,59.99992755512373,
,,,,,,,,,,,,,,,,,,,,4,0,4,0,21,0,21,0,,,,,,teamwork,w,g,upper,,,,,,,3,w,LoDemNoTar,g,1,0.5208528374132584,,,,,,,,,,,,,,,,,,,,379,2023-11-15_15h37.48.723,leap3,2022.2.5,59.99992755512373,
,,,,,,,,,,,,,,,,,,,,4,0,4,0,22,0,22,0,,,,,,ensues,w,g,upper,,,,,,,3,w,LoDemNoTar,g,1,0.7468609451389057,,,,,,,,,,,,,,,,,,,,379,2023-11-15_15h37.48.723,leap3,2022.2.5,59.99992755512373,
,,,,,,,,,,,,,,,,,,,,4,0,4,0,23,0,23,0,,,,,,spigat,nw,h,upper,,,,,,,3,nw,LoDemNoTar,h,1,0.48438528190308716,,,,,,,,,,,,,,,,,,,,379,2023-11-15_15h37.48.723,leap3,2022.2.5,59.99992755512373,
,,,,,,,,,,,,,,,,,,,,4,0,4,0,24,0,24,0,,,,,,guitar,w,g,upper,,,,,,,3,w,LoDemNoTar,g,1,0.8875480793431052,,,,,,,,,,,,,,,,,,,,379,2023-11-15_15h37.48.723,leap3,2022.2.5,59.99992755512373,
,,,,,,,,,,,,,,,,,,,,4,0,4,0,25,0,25,0,,,,,,classify,w,g,upper,,,,,,,3,w,LoDemNoTar,g,1,0.5940668590192217,,,,,,,,,,,,,,,,,,,,379,2023-11-15_15h37.48.723,leap3,2022.2.5,59.99992755512373,
,,,,,,,,,,,,,,,,,,,,4,0,4,0,26,0,26,0,,,,,,release,w,g,upper,,,,,,,3,w,LoDemNoTar,g,1,0.5534527728232206,,,,,,,,,,,,,,,,,,,,379,2023-11-15_15h37.48.723,leap3,2022.2.5,59.99992755512373,
,,,,,,,,,,,,,,,,,,,,4,0,4,0,27,0,27,0,,,,,,dusmy,nw,h,upper,,,,,,,3,nw,LoDemNoTar,h,1,0.642016534366121,,,,,,,,,,,,,,,,,,,,379,2023-11-15_15h37.48.723,leap3,2022.2.5,59.99992755512373,
,,,,,,,,,,,,,,,,,,,,4,0,4,0,28,0,28,0,,,,,,befriend,w,g,upper,,,,,,,3,w,LoDemNoTar,g,1,0.8954043619160075,,,,,,,,,,,,,,,,,,,,379,2023-11-15_15h37.48.723,leap3,2022.2.5,59.99992755512373,
,,,,,,,,,,,,,,,,,,,,4,0,4,0,29,0,29,0,,,,,,planofoad,nw,h,upper,,,,,,,3,nw,LoDemNoTar,h,1,0.5467070010054158,,,,,,,,,,,,,,,,,,,,379,2023-11-15_15h37.48.723,leap3,2022.2.5,59.99992755512373,
,,,,,,,,,,,,,,,,,,,,4,0,4,0,,,,,,,,,,,,,,,,,,,,,,,,,,,NA,,,,,,,,,,,,,,,,,,379,2023-11-15_15h37.48.723,leap3,2022.2.5,59.99992755512373,
,,,,,,,,,,,,,,,,,,,,5,0,5,0,0,0,0,0,,,,,,afternoon,w,g,upper,,,,,,,3,w,LoDemNoTar,g,1,0.6282243468886008,,,,,,,,,,,,,,,,,,,,379,2023-11-15_15h37.48.723,leap3,2022.2.5,59.99992755512373,
,,,,,,,,,,,,,,,,,,,,5,0,5,0,1,0,1,0,,,,,,oalis,nw,h,upper,,,,,,,3,nw,LoDemNoTar,h,1,0.4332722054023179,,,,,,,,,,,,,,,,,,,,379,2023-11-15_15h37.48.723,leap3,2022.2.5,59.99992755512373,
,,,,,,,,,,,,,,,,,,,,5,0,5,0,2,0,2,0,,,,,,sooled,nw,h,upper,,,,,,,3,nw,LoDemNoTar,h,1,0.4712770893529523,,,,,,,,,,,,,,,,,,,,379,2023-11-15_15h37.48.723,leap3,2022.2.5,59.99992755512373,
,,,,,,,,,,,,,,,,,,,,5,0,5,0,3,0,3,0,,,,,,mennel,nw,h,upper,,,,,,,3,nw,LoDemNoTar,h,1,0.5793621751872706,,,,,,,,,,,,,,,,,,,,379,2023-11-15_15h37.48.723,leap3,2022.2.5,59.99992755512373,
,,,,,,,,,,,,,,,,,,,,5,0,5,0,4,0,4,0,,,,,,rudder,w,g,upper,,,,,,,3,w,LoDemNoTar,g,1,0.7393433396719047,,,,,,,,,,,,,,,,,,,,379,2023-11-15_15h37.48.723,leap3,2022.2.5,59.99992755512373,
,,,,,,,,,,,,,,,,,,,,5,0,5,0,5,0,5,0,,,,,,blipover,nw,h,upper,,,,,,,3,nw,LoDemNoTar,h,1,0.5327068380065612,,,,,,,,,,,,,,,,,,,,379,2023-11-15_15h37.48.723,leap3,2022.2.5,59.99992755512373,
,,,,,,,,,,,,,,,,,,,,5,0,5,0,6,0,6,0,,,,,,nimono,nw,h,upper,,,,,,,3,nw,LoDemNoTar,h,1,0.4868245418765582,,,,,,,,,,,,,,,,,,,,379,2023-11-15_15h37.48.723,leap3,2022.2.5,59.99992755512373,
,,,,,,,,,,,,,,,,,,,,5,0,5,0,7,0,7,0,,,,,,obtuse,w,g,upper,,,,,,,3,w,LoDemNoTar,g,1,0.6261684379933286,,,,,,,,,,,,,,,,,,,,379,2023-11-15_15h37.48.723,leap3,2022.2.5,59.99992755512373,
,,,,,,,,,,,,,,,,,,,,5,0,5,0,8,0,8,0,,,,,,partner,w,g,upper,,,,,,,3,w,LoDemNoTar,g,1,0.5029624154631165,,,,,,,,,,,,,,,,,,,,379,2023-11-15_15h37.48.723,leap3,2022.2.5,59.99992755512373,
,,,,,,,,,,,,,,,,,,,,5,0,5,0,9,0,9,0,,,,,,amplifier,w,g,upper,,,,,,,3,w,LoDemNoTar,g,1,0.5447398363830871,,,,,,,,,,,,,,,,,,,,379,2023-11-15_15h37.48.723,leap3,2022.2.5,59.99992755512373,
,,,,,,,,,,,,,,,,,,,,5,0,5,0,10,0,10,0,,,,,,budget,w,g,upper,,,,,,,3,w,LoDemNoTar,g,1,0.5235278432301129,,,,,,,,,,,,,,,,,,,,379,2023-11-15_15h37.48.723,leap3,2022.2.5,59.99992755512373,
,,,,,,,,,,,,,,,,,,,,5,0,5,0,11,0,11,0,,,,,,shazer,nw,h,upper,,,,,,,3,nw,LoDemNoTar,h,1,0.5651096645378857,,,,,,,,,,,,,,,,,,,,379,2023-11-15_15h37.48.723,leap3,2022.2.5,59.99992755512373,
,,,,,,,,,,,,,,,,,,,,5,0,5,0,12,0,12,0,,,,,,addition,w,g,upper,,,,,,,3,w,LoDemNoTar,g,1,1.1498752317638719,,,,,,,,,,,,,,,,,,,,379,2023-11-15_15h37.48.723,leap3,2022.2.5,59.99992755512373,
,,,,,,,,,,,,,,,,,,,,5,0,5,0,13,0,13,0,,,,,,whirling,w,g,upper,,,,,,,3,w,LoDemNoTar,g,1,0.7192116721489583,,,,,,,,,,,,,,,,,,,,379,2023-11-15_15h37.48.723,leap3,2022.2.5,59.99992755512373,
,,,,,,,,,,,,,,,,,,,,5,0,5,0,14,0,14,0,,,,,,runabouk,nw,h,upper,,,,,,,3,nw,LoDemNoTar,h,1,0.48120769375236705,,,,,,,,,,,,,,,,,,,,379,2023-11-15_15h37.48.723,leap3,2022.2.5,59.99992755512373,
,,,,,,,,,,,,,,,,,,,,5,0,5,0,15,0,15,0,,,,,,fabstand,nw,h,upper,,,,,,,3,nw,LoDemNoTar,h,1,0.597125215914275,,,,,,,,,,,,,,,,,,,,379,2023-11-15_15h37.48.723,leap3,2022.2.5,59.99992755512373,
,,,,,,,,,,,,,,,,,,,,5,0,5,0,16,0,16,0,,,,,,admire,w,g,upper,,,,,,,3,w,LoDemNoTar,g,1,0.5405631205867394,,,,,,,,,,,,,,,,,,,,379,2023-11-15_15h37.48.723,leap3,2022.2.5,59.99992755512373,
,,,,,,,,,,,,,,,,,,,,5,0,5,0,17,0,17,0,,,,,,antonym,w,g,upper,,,,,,,3,w,LoDemNoTar,g,1,1.0779652075798367,,,,,,,,,,,,,,,,,,,,379,2023-11-15_15h37.48.723,leap3,2022.2.5,59.99992755512373,
,,,,,,,,,,,,,,,,,,,,5,0,5,0,18,0,18,0,,,,,,corduroy,w,g,upper,,,,,,,3,w,LoDemNoTar,g,1,1.5771677165685105,,,,,,,,,,,,,,,,,,,,379,2023-11-15_15h37.48.723,leap3,2022.2.5,59.99992755512373,
,,,,,,,,,,,,,,,,,,,,5,0,5,0,19,0,19,0,,,,,,legalize,w,g,upper,,,,,,,3,w,LoDemNoTar,g,1,0.481087858810497,,,,,,,,,,,,,,,,,,,,379,2023-11-15_15h37.48.723,leap3,2022.2.5,59.99992755512373,
,,,,,,,,,,,,,,,,,,,,5,0,5,0,20,0,20,0,,,,,,static,w,g,upper,,,,,,,3,w,LoDemNoTar,g,1,0.41301979738636874,,,,,,,,,,,,,,,,,,,,379,2023-11-15_15h37.48.723,leap3,2022.2.5,59.99992755512373,
,,,,,,,,,,,,,,,,,,,,5,0,5,0,21,0,21,0,,,,,,lasprey,nw,h,upper,,,,,,,3,nw,LoDemNoTar,q,0,1.6677167538146023,,,,,,,,,,,,,,,,,,,,379,2023-11-15_15h37.48.723,leap3,2022.2.5,59.99992755512373,
,,,,,,,,,,,,,,,,,,,,5,0,5,0,22,0,22,0,,,,,,student,w,g,upper,,,,,,,3,w,LoDemNoTar,g,1,0.6958046166837448,,,,,,,,,,,,,,,,,,,,379,2023-11-15_15h37.48.723,leap3,2022.2.5,59.99992755512373,
,,,,,,,,,,,,,,,,,,,,5,0,5,0,23,0,23,0,,,,,,airbis,nw,h,upper,,,,,,,3,nw,LoDemNoTar,h,1,0.5391851696113008,,,,,,,,,,,,,,,,,,,,379,2023-11-15_15h37.48.723,leap3,2022.2.5,59.99992755512373,
,,,,,,,,,,,,,,,,,,,,5,0,5,0,24,0,24,0,,,,,,tusied,nw,h,upper,,,,,,,3,nw,LoDemNoTar,h,1,0.5806187819543993,,,,,,,,,,,,,,,,,,,,379,2023-11-15_15h37.48.723,leap3,2022.2.5,59.99992755512373,
,,,,,,,,,,,,,,,,,,,,5,0,5,0,25,0,25,0,,,,,,epthuse,nw,h,upper,,,,,,,3,nw,LoDemNoTar,h,1,0.7806547022555606,,,,,,,,,,,,,,,,,,,,379,2023-11-15_15h37.48.723,leap3,2022.2.5,59.99992755512373,
,,,,,,,,,,,,,,,,,,,,5,0,5,0,26,0,26,0,,,,,,lindo,nw,h,upper,,,,,,,3,nw,LoDemNoTar,h,1,0.836670446813514,,,,,,,,,,,,,,,,,,,,379,2023-11-15_15h37.48.723,leap3,2022.2.5,59.99992755512373,
,,,,,,,,,,,,,,,,,,,,5,0,5,0,27,0,27,0,,,,,,postal,w,g,upper,,,,,,,3,w,LoDemNoTar,g,1,0.4820411050677649,,,,,,,,,,,,,,,,,,,,379,2023-11-15_15h37.48.723,leap3,2022.2.5,59.99992755512373,
,,,,,,,,,,,,,,,,,,,,5,0,5,0,28,0,28,0,,,,,,haurded,nw,h,upper,,,,,,,3,nw,LoDemNoTar,h,1,0.5650758571937331,,,,,,,,,,,,,,,,,,,,379,2023-11-15_15h37.48.723,leap3,2022.2.5,59.99992755512373,
,,,,,,,,,,,,,,,,,,,,5,0,5,0,29,0,29,0,,,,,,dontrite,nw,h,upper,,,,,,,3,nw,LoDemNoTar,h,1,0.5017788566910895,,,,,,,,,,,,,,,,,,,,379,2023-11-15_15h37.48.723,leap3,2022.2.5,59.99992755512373,
,,,,,,,,,,,,,,,,,,,,5,0,5,0,,,,,,,,,,,,,,,,,,,,,,,,,,,NA,,,,,,,,,,,,,,,,,,379,2023-11-15_15h37.48.723,leap3,2022.2.5,59.99992755512373,
,,,,,,,,,,,,,,,,,,,,6,0,6,0,0,0,0,0,,,,,,hanling,nw,h,upper,,,,,,,3,nw,LoDemNoTar,h,1,0.6478965967908152,,,,,,,,,,,,,,,,,,,,379,2023-11-15_15h37.48.723,leap3,2022.2.5,59.99992755512373,
,,,,,,,,,,,,,,,,,,,,6,0,6,0,1,0,1,0,,,,,,religious,w,g,upper,,,,,,,3,w,LoDemNoTar,g,1,0.5490496685815742,,,,,,,,,,,,,,,,,,,,379,2023-11-15_15h37.48.723,leap3,2022.2.5,59.99992755512373,
,,,,,,,,,,,,,,,,,,,,6,0,6,0,2,0,2,0,,,,,,peags,nw,h,upper,,,,,,,3,nw,LoDemNoTar,h,1,0.4773587884119479,,,,,,,,,,,,,,,,,,,,379,2023-11-15_15h37.48.723,leap3,2022.2.5,59.99992755512373,
,,,,,,,,,,,,,,,,,,,,6,0,6,0,3,0,3,0,,,,,,golemic,nw,h,upper,,,,,,,3,nw,LoDemNoTar,h,1,0.4336292954321834,,,,,,,,,,,,,,,,,,,,379,2023-11-15_15h37.48.723,leap3,2022.2.5,59.99992755512373,
,,,,,,,,,,,,,,,,,,,,6,0,6,0,4,0,4,0,,,,,,walnut,w,g,upper,,,,,,,3,w,LoDemNoTar,g,1,0.7349206150975078,,,,,,,,,,,,,,,,,,,,379,2023-11-15_15h37.48.723,leap3,2022.2.5,59.99992755512373,
,,,,,,,,,,,,,,,,,,,,6,0,6,0,5,0,5,0,,,,,,edasion,nw,h,upper,,,,,,,3,nw,LoDemNoTar,h,1,0.6482850793618127,,,,,,,,,,,,,,,,,,,,379,2023-11-15_15h37.48.723,leap3,2022.2.5,59.99992755512373,
,,,,,,,,,,,,,,,,,,,,6,0,6,0,6,0,6,0,,,,,,trake,nw,h,upper,,,,,,,3,nw,LoDemNoTar,h,1,0.5089414850954199,,,,,,,,,,,,,,,,,,,,379,2023-11-15_15h37.48.723,leap3,2022.2.5,59.99992755512373,
,,,,,,,,,,,,,,,,,,,,6,0,6,0,7,0,7,0,,,,,,infancy,w,g,upper,,,,,,,3,w,LoDemNoTar,g,1,0.7512178661418147,,,,,,,,,,,,,,,,,,,,379,2023-11-15_15h37.48.723,leap3,2022.2.5,59.99992755512373,
,,,,,,,,,,,,,,,,,,,,6,0,6,0,8,0,8,0,,,,,,parody,w,g,upper,,,,,,,3,w,LoDemNoTar,g,1,0.639742085171747,,,,,,,,,,,,,,,,,,,,379,2023-11-15_15h37.48.723,leap3,2022.2.5,59.99992755512373,
,,,,,,,,,,,,,,,,,,,,6,0,6,0,9,0,9,0,,,,,,prawls,nw,h,upper,,,,,,,3,nw,LoDemNoTar,h,1,0.9090785255611991,,,,,,,,,,,,,,,,,,,,379,2023-11-15_15h37.48.723,leap3,2022.2.5,59.99992755512373,
,,,,,,,,,,,,,,,,,,,,6,0,6,0,10,0,10,0,,,,,,artifact,w,g,upper,,,,,,,3,w,LoDemNoTar,g,1,0.5357857207927736,,,,,,,,,,,,,,,,,,,,379,2023-11-15_15h37.48.723,leap3,2022.2.5,59.99992755512373,
,,,,,,,,,,,,,,,,,,,,6,0,6,0,11,0,11,0,,,,,,tibs,nw,h,upper,,,,,,,3,nw,LoDemNoTar,h,1,0.528222233930137,,,,,,,,,,,,,,,,,,,,379,2023-11-15_15h37.48.723,leap3,2022.2.5,59.99992755512373,
,,,,,,,,,,,,,,,,,,,,6,0,6,0,12,0,12,0,,,,,,reses,nw,h,upper,,,,,,,3,nw,LoDemNoTar,h,1,0.5711747617751826,,,,,,,,,,,,,,,,,,,,379,2023-11-15_15h37.48.723,leap3,2022.2.5,59.99992755512373,
,,,,,,,,,,,,,,,,,,,,6,0,6,0,13,0,13,0,,,,,,fassed,nw,h,upper,,,,,,,3,nw,LoDemNoTar,h,1,0.5141943006092333,,,,,,,,,,,,,,,,,,,,379,2023-11-15_15h37.48.723,leap3,2022.2.5,59.99992755512373,
,,,,,,,,,,,,,,,,,,,,6,0,6,0,14,0,14,0,,,,,,index,w,g,upper,,,,,,,3,w,LoDemNoTar,g,1,0.6208516300175688,,,,,,,,,,,,,,,,,,,,379,2023-11-15_15h37.48.723,leap3,2022.2.5,59.99992755512373,
,,,,,,,,,,,,,,,,,,,,6,0,6,0,15,0,15,0,,,,,,showdown,w,g,upper,,,,,,,3,w,LoDemNoTar,g,1,0.5949422276462428,,,,,,,,,,,,,,,,,,,,379,2023-11-15_15h37.48.723,leap3,2022.2.5,59.99992755512373,
,,,,,,,,,,,,,,,,,,,,6,0,6,0,16,0,16,0,,,,,,tharcely,nw,h,upper,,,,,,,3,nw,LoDemNoTar,h,1,0.6743608017641236,,,,,,,,,,,,,,,,,,,,379,2023-11-15_15h37.48.723,leap3,2022.2.5,59.99992755512373,
,,,,,,,,,,,,,,,,,,,,6,0,6,0,17,0,17,0,,,,,,sullen,w,g,upper,,,,,,,3,w,LoDemNoTar,g,1,0.6703612726560095,,,,,,,,,,,,,,,,,,,,379,2023-11-15_15h37.48.723,leap3,2022.2.5,59.99992755512373,
,,,,,,,,,,,,,,,,,,,,6,0,6,0,18,0,18,0,,,,,,odacles,nw,h,upper,,,,,,,3,nw,LoDemNoTar,h,1,0.5944073472273885,,,,,,,,,,,,,,,,,,,,379,2023-11-15_15h37.48.723,leap3,2022.2.5,59.99992755512373,
,,,,,,,,,,,,,,,,,,,,6,0,6,0,19,0,19,0,,,,,,standard,w,g,upper,,,,,,,3,w,LoDemNoTar,g,1,0.5217629189501167,,,,,,,,,,,,,,,,,,,,379,2023-11-15_15h37.48.723,leap3,2022.2.5,59.99992755512373,
,,,,,,,,,,,,,,,,,,,,6,0,6,0,20,0,20,0,,,,,,wienegs,nw,h,upper,,,,,,,3,nw,LoDemNoTar,h,1,0.48384979777620174,,,,,,,,,,,,,,,,,,,,379,2023-11-15_15h37.48.723,leap3,2022.2.5,59.99992755512373,
,,,,,,,,,,,,,,,,,,,,6,0,6,0,21,0,21,0,,,,,,irregular,w,g,upper,,,,,,,3,w,LoDemNoTar,g,1,0.5262348452743026,,,,,,,,,,,,,,,,,,,,379,2023-11-15_15h37.48.723,leap3,2022.2.5,59.99992755512373,
,,,,,,,,,,,,,,,,,,,,6,0,6,0,22,0,22,0,,,,,,infusion,w,g,upper,,,,,,,3,w,LoDemNoTar,g,1,0.5521723198035033,,,,,,,,,,,,,,,,,,,,379,2023-11-15_15h37.48.723,leap3,2022.2.5,59.99992755512373,
,,,,,,,,,,,,,,,,,,,,6,0,6,0,23,0,23,0,,,,,,mandate,w,g,upper,,,,,,,3,w,LoDemNoTar,g,1,0.4569442862702999,,,,,,,,,,,,,,,,,,,,379,2023-11-15_15h37.48.723,leap3,2022.2.5,59.99992755512373,
,,,,,,,,,,,,,,,,,,,,6,0,6,0,24,0,24,0,,,,,,egpended,nw,h,upper,,,,,,,3,nw,LoDemNoTar,h,1,0.5336132973170606,,,,,,,,,,,,,,,,,,,,379,2023-11-15_15h37.48.723,leap3,2022.2.5,59.99992755512373,
,,,,,,,,,,,,,,,,,,,,6,0,6,0,25,0,25,0,,,,,,plunging,w,g,upper,,,,,,,3,w,LoDemNoTar,g,1,0.5195914010255365,,,,,,,,,,,,,,,,,,,,379,2023-11-15_15h37.48.723,leap3,2022.2.5,59.99992755512373,
,,,,,,,,,,,,,,,,,,,,6,0,6,0,26,0,26,0,,,,,,elpousal,nw,h,upper,,,,,,,3,nw,LoDemNoTar,h,1,0.4976579833746655,,,,,,,,,,,,,,,,,,,,379,2023-11-15_15h37.48.723,leap3,2022.2.5,59.99992755512373,
,,,,,,,,,,,,,,,,,,,,6,0,6,0,27,0,27,0,,,,,,warden,w,g,upper,,,,,,,3,w,LoDemNoTar,g,1,0.6517847427967354,,,,,,,,,,,,,,,,,,,,379,2023-11-15_15h37.48.723,leap3,2022.2.5,59.99992755512373,
,,,,,,,,,,,,,,,,,,,,6,0,6,0,28,0,28,0,,,,,,chemical,w,g,upper,,,,,,,3,w,LoDemNoTar,g,1,0.4325655716165784,,,,,,,,,,,,,,,,,,,,379,2023-11-15_15h37.48.723,leap3,2022.2.5,59.99992755512373,
,,,,,,,,,,,,,,,,,,,,6,0,6,0,29,0,29,0,,,,,,seartfelt,nw,h,upper,,,,,,,3,nw,LoDemNoTar,h,1,0.8624280179938069,,,,,,,,,,,,,,,,,,,,379,2023-11-15_15h37.48.723,leap3,2022.2.5,59.99992755512373,
,,,,,,,,,,,,,,,,,,,,6,0,6,0,,,,,,,,,,,,,,,,,,,,,,,,,,,NA,,,,,,,,,,,,,,,,,,379,2023-11-15_15h37.48.723,leap3,2022.2.5,59.99992755512373,
,,,,,,,,,,,,,,,,,,,,7,0,7,0,0,0,0,0,,,,,,butler,w,g,upper,,,,,,,3,w,LoDemNoTar,g,1,0.5388323054939974,,,,,,,,,,,,,,,,,,,,379,2023-11-15_15h37.48.723,leap3,2022.2.5,59.99992755512373,
,,,,,,,,,,,,,,,,,,,,7,0,7,0,1,0,1,0,,,,,,ifkling,nw,h,upper,,,,,,,3,nw,LoDemNoTar,h,1,0.4916103935102001,,,,,,,,,,,,,,,,,,,,379,2023-11-15_15h37.48.723,leap3,2022.2.5,59.99992755512373,
,,,,,,,,,,,,,,,,,,,,7,0,7,0,2,0,2,0,,,,,,handbook,w,g,upper,,,,,,,3,w,LoDemNoTar,g,1,0.48626249485096196,,,,,,,,,,,,,,,,,,,,379,2023-11-15_15h37.48.723,leap3,2022.2.5,59.99992755512373,
,,,,,,,,,,,,,,,,,,,,7,0,7,0,3,0,3,0,,,,,,gremieres,nw,h,upper,,,,,,,3,nw,LoDemNoTar,h,1,0.5053953365641064,,,,,,,,,,,,,,,,,,,,379,2023-11-15_15h37.48.723,leap3,2022.2.5,59.99992755512373,
,,,,,,,,,,,,,,,,,,,,7,0,7,0,4,0,4,0,,,,,,butled,nw,h,upper,,,,,,,3,nw,LoDemNoTar,h,1,0.7163268797157798,,,,,,,,,,,,,,,,,,,,379,2023-11-15_15h37.48.723,leap3,2022.2.5,59.99992755512373,
,,,,,,,,,,,,,,,,,,,,7,0,7,0,5,0,5,0,,,,,,arpired,nw,h,upper,,,,,,,3,nw,LoDemNoTar,h,1,0.759040643228218,,,,,,,,,,,,,,,,,,,,379,2023-11-15_15h37.48.723,leap3,2022.2.5,59.99992755512373,
,,,,,,,,,,,,,,,,,,,,7,0,7,0,6,0,6,0,,,,,,hangar,w,g,upper,,,,,,,3,w,LoDemNoTar,h,0,0.5268062496979837,,,,,,,,,,,,,,,,,,,,379,2023-11-15_15h37.48.723,leap3,2022.2.5,59.99992755512373,
,,,,,,,,,,,,,,,,,,,,7,0,7,0,7,0,7,0,,,,,,nimp,nw,h,upper,,,,,,,3,nw,LoDemNoTar,h,1,0.7847441830381285,,,,,,,,,,,,,,,,,,,,379,2023-11-15_15h37.48.723,leap3,2022.2.5,59.99992755512373,
,,,,,,,,,,,,,,,,,,,,7,0,7,0,8,0,8,0,,,,,,fallacy,w,g,upper,,,,,,,3,w,LoDemNoTar,h,0,0.5041474834797555,,,,,,,,,,,,,,,,,,,,379,2023-11-15_15h37.48.723,leap3,2022.2.5,59.99992755512373,
,,,,,,,,,,,,,,,,,,,,7,0,7,0,9,0,9,0,,,,,,mantos,nw,h,upper,,,,,,,3,nw,LoDemNoTar,h,1,0.5308483398330281,,,,,,,,,,,,,,,,,,,,379,2023-11-15_15h37.48.723,leap3,2022.2.5,59.99992755512373,
,,,,,,,,,,,,,,,,,,,,7,0,7,0,10,0,10,0,,,,,,throttle,w,g,upper,,,,,,,3,w,LoDemNoTar,g,1,0.48485164208250353,,,,,,,,,,,,,,,,,,,,379,2023-11-15_15h37.48.723,leap3,2022.2.5,59.99992755512373,
,,,,,,,,,,,,,,,,,,,,7,0,7,0,11,0,11,0,,,,,,drobate,nw,h,upper,,,,,,,3,nw,LoDemNoTar,h,1,0.5362179717922118,,,,,,,,,,,,,,,,,,,,379,2023-11-15_15h37.48.723,leap3,2022.2.5,59.99992755512373,
,,,,,,,,,,,,,,,,,,,,7,0,7,0,12,0,12,0,,,,,,mixture,w,g,upper,,,,,,,3,w,LoDemNoTar,g,1,0.6177338084162329,,,,,,,,,,,,,,,,,,,,379,2023-11-15_15h37.48.723,leap3,2022.2.5,59.99992755512373,
,,,,,,,,,,,,,,,,,,,,7,0,7,0,13,0,13,0,,,,,,impirt,nw,h,upper,,,,,,,3,nw,LoDemNoTar,h,1,0.5196475453631137,,,,,,,,,,,,,,,,,,,,379,2023-11-15_15h37.48.723,leap3,2022.2.5,59.99992755512373,
,,,,,,,,,,,,,,,,,,,,7,0,7,0,14,0,14,0,,,,,,companion,w,g,upper,,,,,,,3,w,LoDemNoTar,g,1,0.6090613200431108,,,,,,,,,,,,,,,,,,,,379,2023-11-15_15h37.48.723,leap3,2022.2.5,59.99992755512373,
,,,,,,,,,,,,,,,,,,,,7,0,7,0,15,0,15,0,,,,,,micron,w,g,upper,,,,,,,3,w,LoDemNoTar,h,0,0.5277344423011527,,,,,,,,,,,,,,,,,,,,379,2023-11-15_15h37.48.723,leap3,2022.2.5,59.99992755512373,
,,,,,,,,,,,,,,,,,,,,7,0,7,0,16,0,16,0,,,,,,pranny,nw,h,upper,,,,,,,3,nw,LoDemNoTar,h,1,0.7048426469191327,,,,,,,,,,,,,,,,,,,,379,2023-11-15_15h37.48.723,leap3,2022.2.5,59.99992755512373,
,,,,,,,,,,,,,,,,,,,,7,0,7,0,17,0,17,0,,,,,,medium,w,g,upper,,,,,,,3,w,LoDemNoTar,g,1,0.4355182805811637,,,,,,,,,,,,,,,,,,,,379,2023-11-15_15h37.48.723,leap3,2022.2.5,59.99992755512373,
,,,,,,,,,,,,,,,,,,,,7,0,7,0,18,0,18,0,,,,,,dialect,w,g,upper,,,,,,,3,w,LoDemNoTar,g,1,0.6327970915299375,,,,,,,,,,,,,,,,,,,,379,2023-11-15_15h37.48.723,leap3,2022.2.5,59.99992755512373,
,,,,,,,,,,,,,,,,,,,,7,0,7,0,19,0,19,0,,,,,,monopoly,w,g,upper,,,,,,,3,w,LoDemNoTar,g,1,0.5341418388634338,,,,,,,,,,,,,,,,,,,,379,2023-11-15_15h37.48.723,leap3,2022.2.5,59.99992755512373,
,,,,,,,,,,,,,,,,,,,,7,0,7,0,20,0,20,0,,,,,,misobeyed,nw,h,upper,,,,,,,3,nw,LoDemNoTar,g,0,0.6544838967020041,,,,,,,,,,,,,,,,,,,,379,2023-11-15_15h37.48.723,leap3,2022.2.5,59.99992755512373,
,,,,,,,,,,,,,,,,,,,,7,0,7,0,21,0,21,0,,,,,,geissue,nw,h,upper,,,,,,,3,nw,LoDemNoTar,h,1,0.5784970694949152,,,,,,,,,,,,,,,,,,,,379,2023-11-15_15h37.48.723,leap3,2022.2.5,59.99992755512373,
,,,,,,,,,,,,,,,,,,,,7,0,7,0,22,0,22,0,,,,,,harfing,nw,h,upper,,,,,,,3,nw,LoDemNoTar,h,1,0.5540833400882548,,,,,,,,,,,,,,,,,,,,379,2023-11-15_15h37.48.723,leap3,2022.2.5,59.99992755512373,
,,,,,,,,,,,,,,,,,,,,7,0,7,0,23,0,23,0,,,,,,shurk,nw,h,upper,,,,,,,3,nw,LoDemNoTar,h,1,0.5787995244463673,,,,,,,,,,,,,,,,,,,,379,2023-11-15_15h37.48.723,leap3,2022.2.5,59.99992755512373,
,,,,,,,,,,,,,,,,,,,,7,0,7,0,24,0,24,0,,,,,,scatter,w,g,upper,,,,,,,3,w,LoDemNoTar,g,1,0.610422367346473,,,,,,,,,,,,,,,,,,,,379,2023-11-15_15h37.48.723,leap3,2022.2.5,59.99992755512373,
,,,,,,,,,,,,,,,,,,,,7,0,7,0,25,0,25,0,,,,,,quickel,nw,h,upper,,,,,,,3,nw,LoDemNoTar,h,1,0.7336051473321277,,,,,,,,,,,,,,,,,,,,379,2023-11-15_15h37.48.723,leap3,2022.2.5,59.99992755512373,
,,,,,,,,,,,,,,,,,,,,7,0,7,0,26,0,26,0,,,,,,hostade,nw,h,upper,,,,,,,3,nw,LoDemNoTar,h,1,0.4731047986933845,,,,,,,,,,,,,,,,,,,,379,2023-11-15_15h37.48.723,leap3,2022.2.5,59.99992755512373,
,,,,,,,,,,,,,,,,,,,,7,0,7,0,27,0,27,0,,,,,,volume,w,g,upper,,,,,,,3,w,LoDemNoTar,g,1,0.5313998220735812,,,,,,,,,,,,,,,,,,,,379,2023-11-15_15h37.48.723,leap3,2022.2.5,59.99992755512373,
,,,,,,,,,,,,,,,,,,,,7,0,7,0,28,0,28,0,,,,,,tablet,w,g,upper,,,,,,,3,w,LoDemNoTar,g,1,0.42883469012303976,,,,,,,,,,,,,,,,,,,,379,2023-11-15_15h37.48.723,leap3,2022.2.5,59.99992755512373,
,,,,,,,,,,,,,,,,,,,,7,0,7,0,29,0,29,0,,,,,,posing,w,g,upper,,,,,,,3,w,LoDemNoTar,g,1,0.6581833856689627,,,,,,,,,,,,,,,,,,,,379,2023-11-15_15h37.48.723,leap3,2022.2.5,59.99992755512373,
,,,,,,,,,,,,,,,,,,,,7,0,7,0,,,,,,,,,,,,,,,,,,,,,,,,,,,NA,,,,,,,,,,,,,,,,,,379,2023-11-15_15h37.48.723,leap3,2022.2.5,59.99992755512373,
,,,,,,,,,,,,,,,,,,,,8,0,8,0,0,0,0,0,,,,,,crazy,w,g,lower,,,,,,,2,w,HiDemNoTar,g,1,0.534897976256616,,,,,,,,,,,,,,,,,,,,379,2023-11-15_15h37.48.723,leap3,2022.2.5,59.99992755512373,
,,,,,,,,,,,,,,,,,,,,8,0,8,0,1,0,1,0,,,,,,ragtam,nw,h,lower,,,,,,,2,nw,HiDemNoTar,g,0,0.48744062029436463,,,,,,,,,,,,,,,,,,,,379,2023-11-15_15h37.48.723,leap3,2022.2.5,59.99992755512373,
,,,,,,,,,,,,,,,,,,,,8,0,8,0,2,0,2,0,,,,,,theles,nw,h,lower,,,,,,,2,nw,HiDemNoTar,h,1,0.4339577095961431,,,,,,,,,,,,,,,,,,,,379,2023-11-15_15h37.48.723,leap3,2022.2.5,59.99992755512373,
,,,,,,,,,,,,,,,,,,,,8,0,8,0,3,0,3,0,,,,,,hindsight,w,g,lower,,,,,,,2,w,HiDemNoTar,g,1,0.423307491815649,,,,,,,,,,,,,,,,,,,,379,2023-11-15_15h37.48.723,leap3,2022.2.5,59.99992755512373,
,,,,,,,,,,,,,,,,,,,,8,0,8,0,4,0,4,0,,,,,,aqueduct,w,g,lower,,,,,,,2,w,HiDemNoTar,h,0,0.5487432895606617,,,,,,,,,,,,,,,,,,,,379,2023-11-15_15h37.48.723,leap3,2022.2.5,59.99992755512373,
,,,,,,,,,,,,,,,,,,,,8,0,8,0,5,0,5,0,,,,,,buaint,nw,h,lower,,,,,,,2,nw,HiDemNoTar,h,1,0.5253987173055066,,,,,,,,,,,,,,,,,,,,379,2023-11-15_15h37.48.723,leap3,2022.2.5,59.99992755512373,
,,,,,,,,,,,,,,,,,,,,8,0,8,0,6,0,6,0,,,,,,rearrange,w,g,lower,,,,,,,2,w,HiDemNoTar,g,1,0.5187413878957159,,,,,,,,,,,,,,,,,,,,379,2023-11-15_15h37.48.723,leap3,2022.2.5,59.99992755512373,
,,,,,,,,,,,,,,,,,,,,8,0,8,0,7,0,7,0,,,,,,trophy,w,g,lower,,,,,,,2,w,HiDemNoTar,g,1,0.52880510869727,,,,,,,,,,,,,,,,,,,,379,2023-11-15_15h37.48.723,leap3,2022.2.5,59.99992755512373,
,,,,,,,,,,,,,,,,,,,,8,0,8,0,8,0,8,0,,,,,,teliever,nw,h,lower,,,,,,,2,nw,HiDemNoTar,h,1,0.5301679671101738,,,,,,,,,,,,,,,,,,,,379,2023-11-15_15h37.48.723,leap3,2022.2.5,59.99992755512373,
,,,,,,,,,,,,,,,,,,,,8,0,8,0,9,0,9,0,,,,,,puggers,nw,h,lower,,,,,,,2,nw,HiDemNoTar,h,1,0.6915213473912445,,,,,,,,,,,,,,,,,,,,379,2023-11-15_15h37.48.723,leap3,2022.2.5,59.99992755512373,
,,,,,,,,,,,,,,,,,,,,8,0,8,0,10,0,10,0,,,,,,dredigest,nw,h,lower,,,,,,,2,nw,HiDemNoTar,h,1,0.6622704516485101,,,,,,,,,,,,,,,,,,,,379,2023-11-15_15h37.48.723,leap3,2022.2.5,59.99992755512373,
,,,,,,,,,,,,,,,,,,,,8,0,8,0,11,0,11,0,,,,,,dabble,w,g,lower,,,,,,,2,w,HiDemNoTar,g,1,0.7773907846494694,,,,,,,,,,,,,,,,,,,,379,2023-11-15_15h37.48.723,leap3,2022.2.5,59.99992755512373,
,,,,,,,,,,,,,,,,,,,,8,0,8,0,12,0,12,0,,,,,,cookbook,w,g,lower,,,,,,,2,w,HiDemNoTar,g,1,0.6726574551357771,,,,,,,,,,,,,,,,,,,,379,2023-11-15_15h37.48.723,leap3,2022.2.5,59.99992755512373,
,,,,,,,,,,,,,,,,,,,,8,0,8,0,13,0,13,0,,,,,,enabled,w,g,lower,,,,,,,2,w,HiDemNoTar,g,1,0.5880479450133862,,,,,,,,,,,,,,,,,,,,379,2023-11-15_15h37.48.723,leap3,2022.2.5,59.99992755512373,
,,,,,,,,,,,,,,,,,,,,8,0,8,0,14,0,14,0,,,,,,kraums,nw,h,lower,,,,,,,2,nw,HiDemNoTar,h,1,0.5535665707429871,,,,,,,,,,,,,,,,,,,,379,2023-11-15_15h37.48.723,leap3,2022.2.5,59.99992755512373,
,,,,,,,,,,,,,,,,,,,,8,0,8,0,15,0,15,0,,,,,,rootsie,nw,h,lower,,,,,,,2,nw,HiDemNoTar,h,1,0.7297290753922425,,,,,,,,,,,,,,,,,,,,379,2023-11-15_15h37.48.723,leap3,2022.2.5,59.99992755512373,
,,,,,,,,,,,,,,,,,,,,8,0,8,0,16,0,16,0,,,,,,houted,nw,h,lower,,,,,,,2,nw,HiDemNoTar,h,1,0.5476596435619285,,,,,,,,,,,,,,,,,,,,379,2023-11-15_15h37.48.723,leap3,2022.2.5,59.99992755512373,
,,,,,,,,,,,,,,,,,,,,8,0,8,0,17,0,17,0,,,,,,adok,nw,h,lower,,,,,,,2,nw,HiDemNoTar,h,1,0.3729689656320261,,,,,,,,,,,,,,,,,,,,379,2023-11-15_15h37.48.723,leap3,2022.2.5,59.99992755512373,
,,,,,,,,,,,,,,,,,,,,8,0,8,0,18,0,18,0,,,,,,graveyard,w,g,lower,,,,,,,2,w,HiDemNoTar,g,1,0.8762857072069892,,,,,,,,,,,,,,,,,,,,379,2023-11-15_15h37.48.723,leap3,2022.2.5,59.99992755512373,
,,,,,,,,,,,,,,,,,,,,8,0,8,0,19,0,19,0,,,,,,joadbed,nw,h,lower,,,,,,,2,nw,HiDemNoTar,h,1,0.5355976674618432,,,,,,,,,,,,,,,,,,,,379,2023-11-15_15h37.48.723,leap3,2022.2.5,59.99992755512373,
,,,,,,,,,,,,,,,,,,,,8,0,8,0,20,0,20,0,,,,,,dumult,nw,h,lower,,,,,,,2,nw,HiDemNoTar,h,1,0.5369575073564192,,,,,,,,,,,,,,,,,,,,379,2023-11-15_15h37.48.723,leap3,2022.2.5,59.99992755512373,
,,,,,,,,,,,,,,,,,,,,8,0,8,0,21,0,21,0,,,,,,oppose,w,g,lower,,,,,,,2,w,HiDemNoTar,g,1,0.6887268084828975,,,,,,,,,,,,,,,,,,,,379,2023-11-15_15h37.48.723,leap3,2022.2.5,59.99992755512373,
,,,,,,,,,,,,,,,,,,,,8,0,8,0,22,0,22,0,,,,,,ounside,nw,h,lower,,,,,,,2,nw,HiDemNoTar,h,1,0.5633426273052464,,,,,,,,,,,,,,,,,,,,379,2023-11-15_15h37.48.723,leap3,2022.2.5,59.99992755512373,
,,,,,,,,,,,,,,,,,,,,8,0,8,0,23,0,23,0,,,,,,incidonts,nw,h,lower,,,,,,,2,nw,HiDemNoTar,h,1,0.5234581155891647,,,,,,,,,,,,,,,,,,,,379,2023-11-15_15h37.48.723,leap3,2022.2.5,59.99992755512373,
,,,,,,,,,,,,,,,,,,,,8,0,8,0,24,0,24,0,,,,,,miability,nw,h,lower,,,,,,,2,nw,HiDemNoTar,h,1,0.4768396042563836,,,,,,,,,,,,,,,,,,,,379,2023-11-15_15h37.48.723,leap3,2022.2.5,59.99992755512373,
,,,,,,,,,,,,,,,,,,,,8,0,8,0,25,0,25,0,,,,,,regards,w,g,lower,,,,,,,2,w,HiDemNoTar,g,1,0.4721331395121524,,,,,,,,,,,,,,,,,,,,379,2023-11-15_15h37.48.723,leap3,2022.2.5,59.99992755512373,
,,,,,,,,,,,,,,,,,,,,8,0,8,0,26,0,26,0,,,,,,tragedy,w,g,lower,,,,,,,2,w,HiDemNoTar,g,1,0.6594372757754172,,,,,,,,,,,,,,,,,,,,379,2023-11-15_15h37.48.723,leap3,2022.2.5,59.99992755512373,
,,,,,,,,,,,,,,,,,,,,8,0,8,0,27,0,27,0,,,,,,attract,w,g,lower,,,,,,,2,w,HiDemNoTar,g,1,0.4954885784172802,,,,,,,,,,,,,,,,,,,,379,2023-11-15_15h37.48.723,leap3,2022.2.5,59.99992755512373,
,,,,,,,,,,,,,,,,,,,,8,0,8,0,28,0,28,0,,,,,,latter,w,g,lower,,,,,,,2,w,HiDemNoTar,g,1,0.8343501162307803,,,,,,,,,,,,,,,,,,,,379,2023-11-15_15h37.48.723,leap3,2022.2.5,59.99992755512373,
,,,,,,,,,,,,,,,,,,,,8,0,8,0,29,0,29,0,,,,,,observer,w,g,lower,,,,,,,2,w,HiDemNoTar,g,1,0.4635865231102798,,,,,,,,,,,,,,,,,,,,379,2023-11-15_15h37.48.723,leap3,2022.2.5,59.99992755512373,
,,,,,,,,,,,,,,,,,,,,8,0,8,0,,,,,,,,,,,,,,,,,,,,,,,,,,,NA,,,,,,,,,,,,,,,,,,379,2023-11-15_15h37.48.723,leap3,2022.2.5,59.99992755512373,
,,,,,,,,,,,,,,,,,,,,9,0,9,0,0,0,0,0,,,,,,unspoken,w,g,lower,,,,,,,1,w,HiDemTar,g,1,0.587462353578303,,,,,,,,,,,,,,,,,,,,379,2023-11-15_15h37.48.723,leap3,2022.2.5,59.99992755512373,
,,,,,,,,,,,,,,,,,,,,9,0,9,0,1,0,1,0,,,,,,olgies,nw,h,lower,,,,,,,1,nw,HiDemTar,h,1,0.49010053354140837,,,,,,,,,,,,,,,,,,,,379,2023-11-15_15h37.48.723,leap3,2022.2.5,59.99992755512373,
,,,,,,,,,,,,,,,,,,,,9,0,9,0,2,0,2,0,,,,,,birn,nw,h,lower,,,,,,,1,nw,HiDemTar,h,1,0.6448300899137394,,,,,,,,,,,,,,,,,,,,379,2023-11-15_15h37.48.723,leap3,2022.2.5,59.99992755512373,
,,,,,,,,,,,,,,,,,,,,9,0,9,0,3,0,3,0,,,,,,antwers,nw,h,lower,,,,,,,1,nw,HiDemTar,h,1,0.5535988688279758,,,,,,,,,,,,,,,,,,,,379,2023-11-15_15h37.48.723,leap3,2022.2.5,59.99992755512373,
,,,,,,,,,,,,,,,,,,,,9,0,9,0,4,0,4,0,,,,,,meteoroid,w,g,lower,,,,,,,1,w,HiDemTar,h,0,0.4807863094029017,,,,,,,,,,,,,,,,,,,,379,2023-11-15_15h37.48.723,leap3,2022.2.5,59.99992755512373,
,,,,,,,,,,,,,,,,,,,,9,0,9,0,5,0,5,0,,,,,,sefraud,nw,h,lower,,,,,,,1,nw,HiDemTar,h,1,0.572055563738104,,,,,,,,,,,,,,,,,,,,379,2023-11-15_15h37.48.723,leap3,2022.2.5,59.99992755512373,
,,,,,,,,,,,,,,,,,,,,9,0,9,0,6,0,6,0,,,,,,acroad,nw,h,lower,,,,,,,1,nw,HiDemTar,h,1,0.4603220018034335,,,,,,,,,,,,,,,,,,,,379,2023-11-15_15h37.48.723,leap3,2022.2.5,59.99992755512373,
,,,,,,,,,,,,,,,,,,,,9,0,9,0,7,0,7,0,,,,,,duplex,w,g,lower,,,,,,,1,w,HiDemTar,g,1,0.6300759024743456,,,,,,,,,,,,,,,,,,,,379,2023-11-15_15h37.48.723,leap3,2022.2.5,59.99992755512373,
,,,,,,,,,,,,,,,,,,,,9,0,9,0,8,0,8,0,,,,,,childhood,w,g,lower,,,,,,,1,w,HiDemTar,g,1,0.5155103720753687,,,,,,,,,,,,,,,,,,,,379,2023-11-15_15h37.48.723,leap3,2022.2.5,59.99992755512373,
,,,,,,,,,,,,,,,,,,,,9,0,9,0,9,0,9,0,,,,,,minimum,w,g,lower,,,,,,,1,w,HiDemTar,g,1,0.5420627176135895,,,,,,,,,,,,,,,,,,,,379,2023-11-15_15h37.48.723,leap3,2022.2.5,59.99992755512373,
,,,,,,,,,,,,,,,,,,,,9,0,9,0,10,0,10,0,,,,,,bloves,nw,h,lower,,,,,,,1,nw,HiDemTar,h,1,0.5833067673738697,,,,,,,,,,,,,,,,,,,,379,2023-11-15_15h37.48.723,leap3,2022.2.5,59.99992755512373,
,,,,,,,,,,,,,,,,,,,,9,0,9,0,11,0,11,0,,,,,,cessation,w,g,lower,,,,,,,1,w,HiDemTar,g,1,0.7028691434243228,,,,,,,,,,,,,,,,,,,,379,2023-11-15_15h37.48.723,leap3,2022.2.5,59.99992755512373,
,,,,,,,,,,,,,,,,,,,,9,0,9,0,12,0,12,0,,,,,,massacre,w,g,lower,,,,,,,1,w,HiDemTar,g,1,0.6728868620921276,,,,,,,,,,,,,,,,,,,,379,2023-11-15_15h37.48.723,leap3,2022.2.5,59.99992755512373,
,,,,,,,,,,,,,,,,,,,,9,0,9,0,13,0,13,0,,,,,,chining,nw,h,lower,,,,,,,1,nw,HiDemTar,h,1,0.7082001384187606,,,,,,,,,,,,,,,,,,,,379,2023-11-15_15h37.48.723,leap3,2022.2.5,59.99992755512373,
,,,,,,,,,,,,,,,,,,,,9,0,9,0,14,0,14,0,,,,,,cegalia,nw,h,lower,,,,,,,1,nw,HiDemTar,h,1,0.5582540188624989,,,,,,,,,,,,,,,,,,,,379,2023-11-15_15h37.48.723,leap3,2022.2.5,59.99992755512373,
,,,,,,,,,,,,,,,,,,,,9,0,9,0,15,0,15,0,,,,,,illness,w,g,lower,,,,,,,1,w,HiDemTar,g,1,0.5982849284337135,,,,,,,,,,,,,,,,,,,,379,2023-11-15_15h37.48.723,leap3,2022.2.5,59.99992755512373,
,,,,,,,,,,,,,,,,,,,,9,0,9,0,16,0,16,0,,,,,,congraks,nw,h,lower,,,,,,,1,nw,HiDemTar,h,1,0.6280320676378324,,,,,,,,,,,,,,,,,,,,379,2023-11-15_15h37.48.723,leap3,2022.2.5,59.99992755512373,
,,,,,,,,,,,,,,,,,,,,9,0,9,0,17,0,17,0,,,,,,rarely,w,g,lower,,,,,,,1,w,HiDemTar,g,1,0.5933753177887411,,,,,,,,,,,,,,,,,,,,379,2023-11-15_15h37.48.723,leap3,2022.2.5,59.99992755512373,
,,,,,,,,,,,,,,,,,,,,9,0,9,0,18,0,18,0,,,,,,remain,w,g,lower,,,,,,,1,w,HiDemTar,g,1,0.5840212492839782,,,,,,,,,,,,,,,,,,,,379,2023-11-15_15h37.48.723,leap3,2022.2.5,59.99992755512373,
,,,,,,,,,,,,,,,,,,,,9,0,9,0,19,0,19,0,,,,,,ausht,nw,h,lower,,,,,,,1,nw,HiDemTar,h,1,0.5273501856572693,,,,,,,,,,,,,,,,,,,,379,2023-11-15_15h37.48.723,leap3,2022.2.5,59.99992755512373,
,,,,,,,,,,,,,,,,,,,,9,0,9,0,20,0,20,0,,,,,,pircus,nw,h,lower,,,,,,,1,nw,HiDemTar,h,1,0.5127451127409586,,,,,,,,,,,,,,,,,,,,379,2023-11-15_15h37.48.723,leap3,2022.2.5,59.99992755512373,
,,,,,,,,,,,,,,,,,,,,9,0,9,0,21,0,21,0,,,,,,flamingo,target,q,lower,,,,,,,1,target,HiDemTar,g,0,1.018749236027361,,,,,,,,,,,,,,,,,,,,379,2023-11-15_15h37.48.723,leap3,2022.2.5,59.99992755512373,
,,,,,,,,,,,,,,,,,,,,9,0,9,0,22,0,22,0,,,,,,terming,w,g,lower,,,,,,,1,aftertar1,HiDemTar,h,0,0.6081412774219643,,,,,,,,,,,,,,,,,,,,379,2023-11-15_15h37.48.723,leap3,2022.2.5,59.99992755512373,
,,,,,,,,,,,,,,,,,,,,9,0,9,0,23,0,23,0,,,,,,antique,w,g,lower,,,,,,,1,aftertar2,HiDemTar,g,1,0.5263353617410758,,,,,,,,,,,,,,,,,,,,379,2023-11-15_15h37.48.723,leap3,2022.2.5,59.99992755512373,
,,,,,,,,,,,,,,,,,,,,9,0,9,0,24,0,24,0,,,,,,slutches,nw,h,lower,,,,,,,1,aftertar3,HiDemTar,h,1,0.6635717324024881,,,,,,,,,,,,,,,,,,,,379,2023-11-15_15h37.48.723,leap3,2022.2.5,59.99992755512373,
,,,,,,,,,,,,,,,,,,,,9,0,9,0,25,0,25,0,,,,,,shockwave,w,g,lower,,,,,,,1,nw,HiDemTar,g,1,0.7626474638600484,,,,,,,,,,,,,,,,,,,,379,2023-11-15_15h37.48.723,leap3,2022.2.5,59.99992755512373,
,,,,,,,,,,,,,,,,,,,,9,0,9,0,26,0,26,0,,,,,,splinging,nw,h,lower,,,,,,,1,w,HiDemTar,h,1,0.8426223498390755,,,,,,,,,,,,,,,,,,,,379,2023-11-15_15h37.48.723,leap3,2022.2.5,59.99992755512373,
,,,,,,,,,,,,,,,,,,,,9,0,9,0,27,0,27,0,,,,,,ecistle,nw,h,lower,,,,,,,1,nw,HiDemTar,h,1,0.495336747240799,,,,,,,,,,,,,,,,,,,,379,2023-11-15_15h37.48.723,leap3,2022.2.5,59.99992755512373,
,,,,,,,,,,,,,,,,,,,,9,0,9,0,28,0,28,0,,,,,,innocent,w,g,lower,,,,,,,1,nw,HiDemTar,g,1,0.5701584286071011,,,,,,,,,,,,,,,,,,,,379,2023-11-15_15h37.48.723,leap3,2022.2.5,59.99992755512373,
,,,,,,,,,,,,,,,,,,,,9,0,9,0,29,0,29,0,,,,,,combat,w,g,lower,,,,,,,1,w,HiDemTar,h,0,0.5135112112184288,,,,,,,,,,,,,,,,,,,,379,2023-11-15_15h37.48.723,leap3,2022.2.5,59.99992755512373,
,,,,,,,,,,,,,,,,,,,,9,0,9,0,,,,,,,,,,,,,,,,,,,,,,,,,,,0,,,,,,,,,,,,,,,,,,379,2023-11-15_15h37.48.723,leap3,2022.2.5,59.99992755512373,
,,,,,,,,,,,,,,,,,,,,10,0,10,0,0,0,0,0,,,,,,daylight,w,g,upper,,,,,,,4,w,LoDemTar,g,1,0.7139458770325291,,,,,,,,,,,,,,,,,,,,379,2023-11-15_15h37.48.723,leap3,2022.2.5,59.99992755512373,
,,,,,,,,,,,,,,,,,,,,10,0,10,0,1,0,1,0,,,,,,scack,nw,h,upper,,,,,,,4,nw,LoDemTar,h,1,0.5241517697722884,,,,,,,,,,,,,,,,,,,,379,2023-11-15_15h37.48.723,leap3,2022.2.5,59.99992755512373,
,,,,,,,,,,,,,,,,,,,,10,0,10,0,2,0,2,0,,,,,,esdings,nw,h,upper,,,,,,,4,nw,LoDemTar,h,1,0.5821651659280178,,,,,,,,,,,,,,,,,,,,379,2023-11-15_15h37.48.723,leap3,2022.2.5,59.99992755512373,
,,,,,,,,,,,,,,,,,,,,10,0,10,0,3,0,3,0,,,,,,revising,w,g,upper,,,,,,,4,w,LoDemTar,h,0,0.36562522647727747,,,,,,,,,,,,,,,,,,,,379,2023-11-15_15h37.48.723,leap3,2022.2.5,59.99992755512373,
,,,,,,,,,,,,,,,,,,,,10,0,10,0,4,0,4,0,,,,,,coster,nw,h,upper,,,,,,,4,nw,LoDemTar,h,1,0.6936300802481128,,,,,,,,,,,,,,,,,,,,379,2023-11-15_15h37.48.723,leap3,2022.2.5,59.99992755512373,
,,,,,,,,,,,,,,,,,,,,10,0,10,0,5,0,5,0,,,,,,athcan,nw,h,upper,,,,,,,4,nw,LoDemTar,h,1,0.4883712277005543,,,,,,,,,,,,,,,,,,,,379,2023-11-15_15h37.48.723,leap3,2022.2.5,59.99992755512373,
,,,,,,,,,,,,,,,,,,,,10,0,10,0,6,0,6,0,,,,,,kiner,nw,h,upper,,,,,,,4,nw,LoDemTar,h,1,0.4671984752130811,,,,,,,,,,,,,,,,,,,,379,2023-11-15_15h37.48.723,leap3,2022.2.5,59.99992755512373,
,,,,,,,,,,,,,,,,,,,,10,0,10,0,7,0,7,0,,,,,,phonology,w,g,upper,,,,,,,4,w,LoDemTar,h,0,0.7268261718782014,,,,,,,,,,,,,,,,,,,,379,2023-11-15_15h37.48.723,leap3,2022.2.5,59.99992755512373,
,,,,,,,,,,,,,,,,,,,,10,0,10,0,8,0,8,0,,,,,,ofsters,nw,h,upper,,,,,,,4,nw,LoDemTar,h,1,0.4805061914375983,,,,,,,,,,,,,,,,,,,,379,2023-11-15_15h37.48.723,leap3,2022.2.5,59.99992755512373,
,,,,,,,,,,,,,,,,,,,,10,0,10,0,9,0,9,0,,,,,,jinds,nw,h,upper,,,,,,,4,nw,LoDemTar,h,1,0.522925649980607,,,,,,,,,,,,,,,,,,,,379,2023-11-15_15h37.48.723,leap3,2022.2.5,59.99992755512373,
,,,,,,,,,,,,,,,,,,,,10,0,10,0,10,0,10,0,,,,,,markot,nw,h,upper,,,,,,,4,nw,LoDemTar,h,1,0.48442331515980186,,,,,,,,,,,,,,,,,,,,379,2023-11-15_15h37.48.723,leap3,2022.2.5,59.99992755512373,
,,,,,,,,,,,,,,,,,,,,10,0,10,0,11,0,11,0,,,,,,comment,w,g,upper,,,,,,,4,w,LoDemTar,g,1,0.6236014949390665,,,,,,,,,,,,,,,,,,,,379,2023-11-15_15h37.48.723,leap3,2022.2.5,59.99992755512373,
,,,,,,,,,,,,,,,,,,,,10,0,10,0,12,0,12,0,,,,,,triangle,w,g,upper,,,,,,,4,w,LoDemTar,g,1,0.644908873080567,,,,,,,,,,,,,,,,,,,,379,2023-11-15_15h37.48.723,leap3,2022.2.5,59.99992755512373,
,,,,,,,,,,,,,,,,,,,,10,0,10,0,13,0,13,0,,,,,,brother,w,g,upper,,,,,,,4,w,LoDemTar,g,1,0.48168009096116293,,,,,,,,,,,,,,,,,,,,379,2023-11-15_15h37.48.723,leap3,2022.2.5,59.99992755512373,
,,,,,,,,,,,,,,,,,,,,10,0,10,0,14,0,14,0,,,,,,grested,nw,h,upper,,,,,,,4,nw,LoDemTar,h,1,0.5730190729445894,,,,,,,,,,,,,,,,,,,,379,2023-11-15_15h37.48.723,leap3,2022.2.5,59.99992755512373,
,,,,,,,,,,,,,,,,,,,,10,0,10,0,15,0,15,0,,,,,,heuls,nw,h,upper,,,,,,,4,nw,LoDemTar,h,1,0.46048500148026505,,,,,,,,,,,,,,,,,,,,379,2023-11-15_15h37.48.723,leap3,2022.2.5,59.99992755512373,
,,,,,,,,,,,,,,,,,,,,10,0,10,0,16,0,16,0,,,,,,atch,nw,h,upper,,,,,,,4,nw,LoDemTar,h,1,0.5604780589055736,,,,,,,,,,,,,,,,,,,,379,2023-11-15_15h37.48.723,leap3,2022.2.5,59.99992755512373,
,,,,,,,,,,,,,,,,,,,,10,0,10,0,17,0,17,0,,,,,,emission,w,g,upper,,,,,,,4,w,LoDemTar,g,1,0.7284480186717701,,,,,,,,,,,,,,,,,,,,379,2023-11-15_15h37.48.723,leap3,2022.2.5,59.99992755512373,
,,,,,,,,,,,,,,,,,,,,10,0,10,0,18,0,18,0,,,,,,mortgage,w,g,upper,,,,,,,4,w,LoDemTar,g,1,0.6498830798955169,,,,,,,,,,,,,,,,,,,,379,2023-11-15_15h37.48.723,leap3,2022.2.5,59.99992755512373,
,,,,,,,,,,,,,,,,,,,,10,0,10,0,19,0,19,0,,,,,,anterior,w,g,upper,,,,,,,4,w,LoDemTar,g,1,0.4865510646486655,,,,,,,,,,,,,,,,,,,,379,2023-11-15_15h37.48.723,leap3,2022.2.5,59.99992755512373,
,,,,,,,,,,,,,,,,,,,,10,0,10,0,20,0,20,0,,,,,,omission,w,g,upper,,,,,,,4,w,LoDemTar,g,1,0.6082288142861216,,,,,,,,,,,,,,,,,,,,379,2023-11-15_15h37.48.723,leap3,2022.2.5,59.99992755512373,
,,,,,,,,,,,,,,,,,,,,10,0,10,0,21,0,21,0,,,,,,dolphin,target,q,upper,,,,,,,4,target,LoDemTar,g,0,0.5502407736275927,,,,,,,,,,,,,,,,,,,,379,2023-11-15_15h37.48.723,leap3,2022.2.5,59.99992755512373,
,,,,,,,,,,,,,,,,,,,,10,0,10,0,22,0,22,0,,,,,,hubris,w,g,upper,,,,,,,4,aftertar1,LoDemTar,q,0,0.030947347047913354,,,,1,,,,,,,,,,,,,,,,379,2023-11-15_15h37.48.723,leap3,2022.2.5,59.99992755512373,
,,,,,,,,,,,,,,,,,,,,10,0,10,0,23,0,23,0,,,,,,glates,nw,h,upper,,,,,,,4,aftertar2,LoDemTar,h,1,0.8363109419733519,,,,,,,,,,,,,,,,,,,,379,2023-11-15_15h37.48.723,leap3,2022.2.5,59.99992755512373,
,,,,,,,,,,,,,,,,,,,,10,0,10,0,24,0,24,0,,,,,,tuckel,nw,h,upper,,,,,,,4,aftertar3,LoDemTar,h,1,0.6010034008213552,,,,,,,,,,,,,,,,,,,,379,2023-11-15_15h37.48.723,leap3,2022.2.5,59.99992755512373,
,,,,,,,,,,,,,,,,,,,,10,0,10,0,25,0,25,0,,,,,,igiom,nw,h,upper,,,,,,,4,nw,LoDemTar,h,1,0.4397170315205585,,,,,,,,,,,,,,,,,,,,379,2023-11-15_15h37.48.723,leap3,2022.2.5,59.99992755512373,
,,,,,,,,,,,,,,,,,,,,10,0,10,0,26,0,26,0,,,,,,presence,w,g,upper,,,,,,,4,nw,LoDemTar,g,1,0.460459344125411,,,,,,,,,,,,,,,,,,,,379,2023-11-15_15h37.48.723,leap3,2022.2.5,59.99992755512373,
,,,,,,,,,,,,,,,,,,,,10,0,10,0,27,0,27,0,,,,,,peanimate,nw,h,upper,,,,,,,4,w,LoDemTar,h,1,0.7993420115235494,,,,,,,,,,,,,,,,,,,,379,2023-11-15_15h37.48.723,leap3,2022.2.5,59.99992755512373,
,,,,,,,,,,,,,,,,,,,,10,0,10,0,28,0,28,0,,,,,,colored,w,g,upper,,,,,,,4,nw,LoDemTar,g,1,0.5179897782800253,,,,,,,,,,,,,,,,,,,,379,2023-11-15_15h37.48.723,leap3,2022.2.5,59.99992755512373,
,,,,,,,,,,,,,,,,,,,,10,0,10,0,29,0,29,0,,,,,,miracle,w,g,upper,,,,,,,4,w,LoDemTar,g,1,0.44846105863689445,,,,,,,,,,,,,,,,,,,,379,2023-11-15_15h37.48.723,leap3,2022.2.5,59.99992755512373,
,,,,,,,,,,,,,,,,,,,,10,0,10,0,,,,,,,,,,,,,,,,,,,,,,,,,,,1,,,,,,,,,,,,,,,,,,379,2023-11-15_15h37.48.723,leap3,2022.2.5,59.99992755512373,
,,,,,,,,,,,,,,,,,,,,11,0,11,0,0,0,0,0,,,,,,dorte,nw,h,lower,,,,,,,1,nw,HiDemTar,h,1,0.9973555284159374,,,,,,,,,,,,,,,,,,,,379,2023-11-15_15h37.48.723,leap3,2022.2.5,59.99992755512373,
,,,,,,,,,,,,,,,,,,,,11,0,11,0,1,0,1,0,,,,,,eyesight,w,g,lower,,,,,,,1,w,HiDemTar,g,1,0.5080984145461116,,,,,,,,,,,,,,,,,,,,379,2023-11-15_15h37.48.723,leap3,2022.2.5,59.99992755512373,
,,,,,,,,,,,,,,,,,,,,11,0,11,0,2,0,2,0,,,,,,supplier,w,g,lower,,,,,,,1,w,HiDemTar,g,1,0.49413628480397165,,,,,,,,,,,,,,,,,,,,379,2023-11-15_15h37.48.723,leap3,2022.2.5,59.99992755512373,
,,,,,,,,,,,,,,,,,,,,11,0,11,0,3,0,3,0,,,,,,intersect,w,g,lower,,,,,,,1,w,HiDemTar,g,1,0.6887690676594502,,,,,,,,,,,,,,,,,,,,379,2023-11-15_15h37.48.723,leap3,2022.2.5,59.99992755512373,
,,,,,,,,,,,,,,,,,,,,11,0,11,0,4,0,4,0,,,,,,inversion,w,g,lower,,,,,,,1,w,HiDemTar,g,1,0.44357016278081574,,,,,,,,,,,,,,,,,,,,379,2023-11-15_15h37.48.723,leap3,2022.2.5,59.99992755512373,
,,,,,,,,,,,,,,,,,,,,11,0,11,0,5,0,5,0,,,,,,phraining,nw,h,lower,,,,,,,1,nw,HiDemTar,h,1,0.5911452407235629,,,,,,,,,,,,,,,,,,,,379,2023-11-15_15h37.48.723,leap3,2022.2.5,59.99992755512373,
,,,,,,,,,,,,,,,,,,,,11,0,11,0,6,0,6,0,,,,,,retreat,w,g,lower,,,,,,,1,w,HiDemTar,g,1,0.4858894067001529,,,,,,,,,,,,,,,,,,,,379,2023-11-15_15h37.48.723,leap3,2022.2.5,59.99992755512373,
,,,,,,,,,,,,,,,,,,,,11,0,11,0,7,0,7,0,,,,,,zears,nw,h,lower,,,,,,,1,nw,HiDemTar,h,1,0.456524713030376,,,,,,,,,,,,,,,,,,,,379,2023-11-15_15h37.48.723,leap3,2022.2.5,59.99992755512373,
,,,,,,,,,,,,,,,,,,,,11,0,11,0,8,0,8,0,,,,,,reason,w,g,lower,,,,,,,1,w,HiDemTar,g,1,0.5644917750250897,,,,,,,,,,,,,,,,,,,,379,2023-11-15_15h37.48.723,leap3,2022.2.5,59.99992755512373,
,,,,,,,,,,,,,,,,,,,,11,0,11,0,9,0,9,0,,,,,,ascending,w,g,lower,,,,,,,1,w,HiDemTar,g,1,0.8285418944069534,,,,,,,,,,,,,,,,,,,,379,2023-11-15_15h37.48.723,leap3,2022.2.5,59.99992755512373,
,,,,,,,,,,,,,,,,,,,,11,0,11,0,10,0,10,0,,,,,,cogantly,nw,h,lower,,,,,,,1,nw,HiDemTar,h,1,0.7538590646072407,,,,,,,,,,,,,,,,,,,,379,2023-11-15_15h37.48.723,leap3,2022.2.5,59.99992755512373,
,,,,,,,,,,,,,,,,,,,,11,0,11,0,11,0,11,0,,,,,,infested,w,g,lower,,,,,,,1,w,HiDemTar,g,1,0.6179058636334958,,,,,,,,,,,,,,,,,,,,379,2023-11-15_15h37.48.723,leap3,2022.2.5,59.99992755512373,
,,,,,,,,,,,,,,,,,,,,11,0,11,0,12,0,12,0,,,,,,metebing,nw,h,lower,,,,,,,1,nw,HiDemTar,h,1,0.7758697561876033,,,,,,,,,,,,,,,,,,,,379,2023-11-15_15h37.48.723,leap3,2022.2.5,59.99992755512373,
,,,,,,,,,,,,,,,,,,,,11,0,11,0,13,0,13,0,,,,,,atsless,nw,h,lower,,,,,,,1,nw,HiDemTar,h,1,0.6464812162666931,,,,,,,,,,,,,,,,,,,,379,2023-11-15_15h37.48.723,leap3,2022.2.5,59.99992755512373,
,,,,,,,,,,,,,,,,,,,,11,0,11,0,14,0,14,0,,,,,,squadroim,nw,h,lower,,,,,,,1,nw,HiDemTar,h,1,0.5230503145503462,,,,,,,,,,,,,,,,,,,,379,2023-11-15_15h37.48.723,leap3,2022.2.5,59.99992755512373,
,,,,,,,,,,,,,,,,,,,,11,0,11,0,15,0,15,0,,,,,,endgume,nw,h,lower,,,,,,,1,nw,HiDemTar,h,1,0.4762512961679022,,,,,,,,,,,,,,,,,,,,379,2023-11-15_15h37.48.723,leap3,2022.2.5,59.99992755512373,
,,,,,,,,,,,,,,,,,,,,11,0,11,0,16,0,16,0,,,,,,unamufed,nw,h,lower,,,,,,,1,nw,HiDemTar,h,1,0.5673898489112617,,,,,,,,,,,,,,,,,,,,379,2023-11-15_15h37.48.723,leap3,2022.2.5,59.99992755512373,
,,,,,,,,,,,,,,,,,,,,11,0,11,0,17,0,17,0,,,,,,togglo,nw,h,lower,,,,,,,1,nw,HiDemTar,h,1,0.37541848856199067,,,,,,,,,,,,,,,,,,,,379,2023-11-15_15h37.48.723,leap3,2022.2.5,59.99992755512373,
,,,,,,,,,,,,,,,,,,,,11,0,11,0,18,0,18,0,,,,,,trecious,nw,h,lower,,,,,,,1,nw,HiDemTar,h,1,0.38281203316000756,,,,,,,,,,,,,,,,,,,,379,2023-11-15_15h37.48.723,leap3,2022.2.5,59.99992755512373,
,,,,,,,,,,,,,,,,,,,,11,0,11,0,19,0,19,0,,,,,,bedding,w,g,lower,,,,,,,1,w,HiDemTar,g,1,0.6048335913874325,,,,,,,,,,,,,,,,,,,,379,2023-11-15_15h37.48.723,leap3,2022.2.5,59.99992755512373,
,,,,,,,,,,,,,,,,,,,,11,0,11,0,20,0,20,0,,,,,,bamps,nw,h,lower,,,,,,,1,nw,HiDemTar,h,1,0.5548603052229737,,,,,,,,,,,,,,,,,,,,379,2023-11-15_15h37.48.723,leap3,2022.2.5,59.99992755512373,
,,,,,,,,,,,,,,,,,,,,11,0,11,0,21,0,21,0,,,,,,humanize,w,g,lower,,,,,,,1,w,HiDemTar,g,1,0.6756765713726054,,,,,,,,,,,,,,,,,,,,379,2023-11-15_15h37.48.723,leap3,2022.2.5,59.99992755512373,
,,,,,,,,,,,,,,,,,,,,11,0,11,0,22,0,22,0,,,,,,virulent,w,g,lower,,,,,,,1,w,HiDemTar,h,0,0.567528700485127,,,,,,,,,,,,,,,,,,,,379,2023-11-15_15h37.48.723,leap3,2022.2.5,59.99992755512373,
,,,,,,,,,,,,,,,,,,,,11,0,11,0,23,0,23,0,,,,,,pripend,nw,h,lower,,,,,,,1,nw,HiDemTar,h,1,0.8796109006216284,,,,,,,,,,,,,,,,,,,,379,2023-11-15_15h37.48.723,leap3,2022.2.5,59.99992755512373,
,,,,,,,,,,,,,,,,,,,,11,0,11,0,24,0,24,0,,,,,,airmen,w,g,lower,,,,,,,1,w,HiDemTar,h,0,0.6178648118584533,,,,,,,,,,,,,,,,,,,,379,2023-11-15_15h37.48.723,leap3,2022.2.5,59.99992755512373,
,,,,,,,,,,,,,,,,,,,,11,0,11,0,25,0,25,0,,,,,,egcused,nw,h,lower,,,,,,,1,nw,HiDemTar,h,1,0.5918983596129692,,,,,,,,,,,,,,,,,,,,379,2023-11-15_15h37.48.723,leap3,2022.2.5,59.99992755512373,
,,,,,,,,,,,,,,,,,,,,11,0,11,0,26,0,26,0,,,,,,squirrel,target,q,lower,,,,,,,1,target,HiDemTar,g,0,0.4383236861322075,,,,,,,,,,,,,,,,,,,,379,2023-11-15_15h37.48.723,leap3,2022.2.5,59.99992755512373,
,,,,,,,,,,,,,,,,,,,,11,0,11,0,27,0,27,0,,,,,,schinter,nw,h,lower,,,,,,,1,aftertar1,HiDemTar,q,0,0.49896469744999195,,,,1,,,,,,,,,,,,,,,,379,2023-11-15_15h37.48.723,leap3,2022.2.5,59.99992755512373,
,,,,,,,,,,,,,,,,,,,,11,0,11,0,28,0,28,0,,,,,,forfeit,w,g,lower,,,,,,,1,aftertar2,HiDemTar,g,1,1.5493747623841045,,,,,,,,,,,,,,,,,,,,379,2023-11-15_15h37.48.723,leap3,2022.2.5,59.99992755512373,
,,,,,,,,,,,,,,,,,,,,11,0,11,0,29,0,29,0,,,,,,unversed,w,g,lower,,,,,,,1,aftertar3,HiDemTar,h,0,0.8939817369609955,,,,,,,,,,,,,,,,,,,,379,2023-11-15_15h37.48.723,leap3,2022.2.5,59.99992755512373,
,,,,,,,,,,,,,,,,,,,,11,0,11,0,,,,,,,,,,,,,,,,,,,,,,,,,,,1,,,,,,,,,,,,,,,,,,379,2023-11-15_15h37.48.723,leap3,2022.2.5,59.99992755512373,
,,,,,,,,,,,,,,,,,,,,12,0,12,0,0,0,0,0,,,,,,rivet,w,g,lower,,,,,,,1,w,HiDemTar,h,0,1.223839957427117,,,,,,,,,,,,,,,,,,,,379,2023-11-15_15h37.48.723,leap3,2022.2.5,59.99992755512373,
,,,,,,,,,,,,,,,,,,,,12,0,12,0,1,0,1,0,,,,,,checkout,w,g,lower,,,,,,,1,w,HiDemTar,g,1,0.6451832558741444,,,,,,,,,,,,,,,,,,,,379,2023-11-15_15h37.48.723,leap3,2022.2.5,59.99992755512373,
,,,,,,,,,,,,,,,,,,,,12,0,12,0,2,0,2,0,,,,,,blerapies,nw,h,lower,,,,,,,1,nw,HiDemTar,h,1,0.6339269207746838,,,,,,,,,,,,,,,,,,,,379,2023-11-15_15h37.48.723,leap3,2022.2.5,59.99992755512373,
,,,,,,,,,,,,,,,,,,,,12,0,12,0,3,0,3,0,,,,,,entertain,w,g,lower,,,,,,,1,w,HiDemTar,g,1,0.6232374623214127,,,,,,,,,,,,,,,,,,,,379,2023-11-15_15h37.48.723,leap3,2022.2.5,59.99992755512373,
,,,,,,,,,,,,,,,,,,,,12,0,12,0,4,0,4,0,,,,,,harmful,w,g,lower,,,,,,,1,w,HiDemTar,g,1,0.7245758707795176,,,,,,,,,,,,,,,,,,,,379,2023-11-15_15h37.48.723,leap3,2022.2.5,59.99992755512373,
,,,,,,,,,,,,,,,,,,,,12,0,12,0,5,0,5,0,,,,,,havel,nw,h,lower,,,,,,,1,nw,HiDemTar,h,1,0.5658543315876159,,,,,,,,,,,,,,,,,,,,379,2023-11-15_15h37.48.723,leap3,2022.2.5,59.99992755512373,
,,,,,,,,,,,,,,,,,,,,12,0,12,0,6,0,6,0,,,,,,contain,w,g,lower,,,,,,,1,w,HiDemTar,g,1,0.556956964021083,,,,,,,,,,,,,,,,,,,,379,2023-11-15_15h37.48.723,leap3,2022.2.5,59.99992755512373,
,,,,,,,,,,,,,,,,,,,,12,0,12,0,7,0,7,0,,,,,,slooping,nw,h,lower,,,,,,,1,nw,HiDemTar,h,1,0.6058315116315498,,,,,,,,,,,,,,,,,,,,379,2023-11-15_15h37.48.723,leap3,2022.2.5,59.99992755512373,
,,,,,,,,,,,,,,,,,,,,12,0,12,0,8,0,8,0,,,,,,plartly,nw,h,lower,,,,,,,1,nw,HiDemTar,h,1,0.6188576006315998,,,,,,,,,,,,,,,,,,,,379,2023-11-15_15h37.48.723,leap3,2022.2.5,59.99992755512373,
,,,,,,,,,,,,,,,,,,,,12,0,12,0,9,0,9,0,,,,,,fuhrek,nw,h,lower,,,,,,,1,nw,HiDemTar,h,1,0.45571514796756674,,,,,,,,,,,,,,,,,,,,379,2023-11-15_15h37.48.723,leap3,2022.2.5,59.99992755512373,
,,,,,,,,,,,,,,,,,,,,12,0,12,0,10,0,10,0,,,,,,gestalion,nw,h,lower,,,,,,,1,nw,HiDemTar,h,1,0.5237331020762213,,,,,,,,,,,,,,,,,,,,379,2023-11-15_15h37.48.723,leap3,2022.2.5,59.99992755512373,
,,,,,,,,,,,,,,,,,,,,12,0,12,0,11,0,11,0,,,,,,greakable,nw,h,lower,,,,,,,1,nw,HiDemTar,h,1,0.620875778113259,,,,,,,,,,,,,,,,,,,,379,2023-11-15_15h37.48.723,leap3,2022.2.5,59.99992755512373,
,,,,,,,,,,,,,,,,,,,,12,0,12,0,12,0,12,0,,,,,,gontracts,nw,h,lower,,,,,,,1,nw,HiDemTar,h,1,1.0435586924286326,,,,,,,,,,,,,,,,,,,,379,2023-11-15_15h37.48.723,leap3,2022.2.5,59.99992755512373,
,,,,,,,,,,,,,,,,,,,,12,0,12,0,13,0,13,0,,,,,,insertion,w,g,lower,,,,,,,1,w,HiDemTar,g,1,0.5604430441599106,,,,,,,,,,,,,,,,,,,,379,2023-11-15_15h37.48.723,leap3,2022.2.5,59.99992755512373,
,,,,,,,,,,,,,,,,,,,,12,0,12,0,14,0,14,0,,,,,,spiud,nw,h,lower,,,,,,,1,nw,HiDemTar,h,1,0.8723857890072395,,,,,,,,,,,,,,,,,,,,379,2023-11-15_15h37.48.723,leap3,2022.2.5,59.99992755512373,
,,,,,,,,,,,,,,,,,,,,12,0,12,0,15,0,15,0,,,,,,ounwit,nw,h,lower,,,,,,,1,nw,HiDemTar,h,1,0.6749539394804742,,,,,,,,,,,,,,,,,,,,379,2023-11-15_15h37.48.723,leap3,2022.2.5,59.99992755512373,
,,,,,,,,,,,,,,,,,,,,12,0,12,0,16,0,16,0,,,,,,caterpillar,target,q,lower,,,,,,,1,target,HiDemTar,g,0,0.5978025701260776,,,,,,,,,,,,,,,,,,,,379,2023-11-15_15h37.48.723,leap3,2022.2.5,59.99992755512373,
,,,,,,,,,,,,,,,,,,,,12,0,12,0,17,0,17,0,,,,,,talate,nw,h,lower,,,,,,,1,aftertar1,HiDemTar,h,1,0.5328613858437166,,,,,,,,,,,,,,,,,,,,379,2023-11-15_15h37.48.723,leap3,2022.2.5,59.99992755512373,
,,,,,,,,,,,,,,,,,,,,12,0,12,0,18,0,18,0,,,,,,tasher,nw,h,lower,,,,,,,1,aftertar2,HiDemTar,h,1,0.5982924747149809,,,,,,,,,,,,,,,,,,,,379,2023-11-15_15h37.48.723,leap3,2022.2.5,59.99992755512373,
,,,,,,,,,,,,,,,,,,,,12,0,12,0,19,0,19,0,,,,,,ergonomic,w,g,lower,,,,,,,1,aftertar3,HiDemTar,g,1,0.9169583525435883,,,,,,,,,,,,,,,,,,,,379,2023-11-15_15h37.48.723,leap3,2022.2.5,59.99992755512373,
,,,,,,,,,,,,,,,,,,,,12,0,12,0,20,0,20,0,,,,,,pillage,w,g,lower,,,,,,,1,w,HiDemTar,g,1,0.8150904969879775,,,,,,,,,,,,,,,,,,,,379,2023-11-15_15h37.48.723,leap3,2022.2.5,59.99992755512373,
,,,,,,,,,,,,,,,,,,,,12,0,12,0,21,0,21,0,,,,,,misest,nw,h,lower,,,,,,,1,w,HiDemTar,h,1,0.6609444190908107,,,,,,,,,,,,,,,,,,,,379,2023-11-15_15h37.48.723,leap3,2022.2.5,59.99992755512373,
,,,,,,,,,,,,,,,,,,,,12,0,12,0,22,0,22,0,,,,,,envelop,w,g,lower,,,,,,,1,nw,HiDemTar,g,1,0.993065920250956,,,,,,,,,,,,,,,,,,,,379,2023-11-15_15h37.48.723,leap3,2022.2.5,59.99992755512373,
,,,,,,,,,,,,,,,,,,,,12,0,12,0,23,0,23,0,,,,,,create,w,g,lower,,,,,,,1,w,HiDemTar,g,1,0.5757607878767885,,,,,,,,,,,,,,,,,,,,379,2023-11-15_15h37.48.723,leap3,2022.2.5,59.99992755512373,
,,,,,,,,,,,,,,,,,,,,12,0,12,0,24,0,24,0,,,,,,coupling,w,g,lower,,,,,,,1,w,HiDemTar,g,1,0.662209175839962,,,,,,,,,,,,,,,,,,,,379,2023-11-15_15h37.48.723,leap3,2022.2.5,59.99992755512373,
,,,,,,,,,,,,,,,,,,,,12,0,12,0,25,0,25,0,,,,,,seldom,w,g,lower,,,,,,,1,w,HiDemTar,g,1,0.7061925257221446,,,,,,,,,,,,,,,,,,,,379,2023-11-15_15h37.48.723,leap3,2022.2.5,59.99992755512373,
,,,,,,,,,,,,,,,,,,,,12,0,12,0,26,0,26,0,,,,,,midday,w,g,lower,,,,,,,1,w,HiDemTar,g,1,0.5241608253054437,,,,,,,,,,,,,,,,,,,,379,2023-11-15_15h37.48.723,leap3,2022.2.5,59.99992755512373,
,,,,,,,,,,,,,,,,,,,,12,0,12,0,27,0,27,0,,,,,,undertake,w,g,lower,,,,,,,1,w,HiDemTar,g,1,0.5815463708568132,,,,,,,,,,,,,,,,,,,,379,2023-11-15_15h37.48.723,leap3,2022.2.5,59.99992755512373,
,,,,,,,,,,,,,,,,,,,,12,0,12,0,28,0,28,0,,,,,,beartiset,nw,h,lower,,,,,,,1,w,HiDemTar,h,1,0.6289518084013253,,,,,,,,,,,,,,,,,,,,379,2023-11-15_15h37.48.723,leap3,2022.2.5,59.99992755512373,
,,,,,,,,,,,,,,,,,,,,12,0,12,0,29,0,29,0,,,,,,marinate,w,g,lower,,,,,,,1,nw,HiDemTar,g,1,0.6343624921282753,,,,,,,,,,,,,,,,,,,,379,2023-11-15_15h37.48.723,leap3,2022.2.5,59.99992755512373,
,,,,,,,,,,,,,,,,,,,,12,0,12,0,,,,,,,,,,,,,,,,,,,,,,,,,,,0,,,,,,,,,,,,,,,,,,379,2023-11-15_15h37.48.723,leap3,2022.2.5,59.99992755512373,
,,,,,,,,,,,,,,,,,,,,13,0,13,0,0,0,0,0,,,,,,abraid,nw,h,lower,,,,,,,1,nw,HiDemTar,g,0,1.142194928463141,,,,,,,,,,,,,,,,,,,,379,2023-11-15_15h37.48.723,leap3,2022.2.5,59.99992755512373,
,,,,,,,,,,,,,,,,,,,,13,0,13,0,1,0,1,0,,,,,,deceit,w,g,lower,,,,,,,1,w,HiDemTar,g,1,0.49355522113182815,,,,,,,,,,,,,,,,,,,,379,2023-11-15_15h37.48.723,leap3,2022.2.5,59.99992755512373,
,,,,,,,,,,,,,,,,,,,,13,0,13,0,2,0,2,0,,,,,,exploit,w,g,lower,,,,,,,1,w,HiDemTar,g,1,0.5762518998744781,,,,,,,,,,,,,,,,,,,,379,2023-11-15_15h37.48.723,leap3,2022.2.5,59.99992755512373,
,,,,,,,,,,,,,,,,,,,,13,0,13,0,3,0,3,0,,,,,,gaioty,nw,h,lower,,,,,,,1,nw,HiDemTar,h,1,0.560324416612275,,,,,,,,,,,,,,,,,,,,379,2023-11-15_15h37.48.723,leap3,2022.2.5,59.99992755512373,
,,,,,,,,,,,,,,,,,,,,13,0,13,0,4,0,4,0,,,,,,flacked,nw,h,lower,,,,,,,1,nw,HiDemTar,h,1,0.7369852776755579,,,,,,,,,,,,,,,,,,,,379,2023-11-15_15h37.48.723,leap3,2022.2.5,59.99992755512373,
,,,,,,,,,,,,,,,,,,,,13,0,13,0,5,0,5,0,,,,,,pleamed,nw,h,lower,,,,,,,1,nw,HiDemTar,h,1,0.8496443155527231,,,,,,,,,,,,,,,,,,,,379,2023-11-15_15h37.48.723,leap3,2022.2.5,59.99992755512373,
,,,,,,,,,,,,,,,,,,,,13,0,13,0,6,0,6,0,,,,,,draze,nw,h,lower,,,,,,,1,nw,HiDemTar,h,1,0.7183070239407243,,,,,,,,,,,,,,,,,,,,379,2023-11-15_15h37.48.723,leap3,2022.2.5,59.99992755512373,
,,,,,,,,,,,,,,,,,,,,13,0,13,0,7,0,7,0,,,,,,nelvet,nw,h,lower,,,,,,,1,nw,HiDemTar,h,1,0.6476714157615788,,,,,,,,,,,,,,,,,,,,379,2023-11-15_15h37.48.723,leap3,2022.2.5,59.99992755512373,
,,,,,,,,,,,,,,,,,,,,13,0,13,0,8,0,8,0,,,,,,forecast,w,g,lower,,,,,,,1,w,HiDemTar,h,0,0.5084944433838245,,,,,,,,,,,,,,,,,,,,379,2023-11-15_15h37.48.723,leap3,2022.2.5,59.99992755512373,
,,,,,,,,,,,,,,,,,,,,13,0,13,0,9,0,9,0,,,,,,paterways,nw,h,lower,,,,,,,1,nw,HiDemTar,g,0,2.4774297234616824,,,,,,,,,,,,,,,,,,,,379,2023-11-15_15h37.48.723,leap3,2022.2.5,59.99992755512373,
,,,,,,,,,,,,,,,,,,,,13,0,13,0,10,0,10,0,,,,,,melodic,w,g,lower,,,,,,,1,w,HiDemTar,g,1,0.7369122296659043,,,,,,,,,,,,,,,,,,,,379,2023-11-15_15h37.48.723,leap3,2022.2.5,59.99992755512373,
,,,,,,,,,,,,,,,,,,,,13,0,13,0,11,0,11,0,,,,,,delegate,w,g,lower,,,,,,,1,w,HiDemTar,g,1,0.5615146161071607,,,,,,,,,,,,,,,,,,,,379,2023-11-15_15h37.48.723,leap3,2022.2.5,59.99992755512373,
,,,,,,,,,,,,,,,,,,,,13,0,13,0,12,0,12,0,,,,,,snays,nw,h,lower,,,,,,,1,nw,HiDemTar,h,1,0.513578825906734,,,,,,,,,,,,,,,,,,,,379,2023-11-15_15h37.48.723,leap3,2022.2.5,59.99992755512373,
,,,,,,,,,,,,,,,,,,,,13,0,13,0,13,0,13,0,,,,,,talent,w,g,lower,,,,,,,1,w,HiDemTar,g,1,0.5715387943928363,,,,,,,,,,,,,,,,,,,,379,2023-11-15_15h37.48.723,leap3,2022.2.5,59.99992755512373,
,,,,,,,,,,,,,,,,,,,,13,0,13,0,14,0,14,0,,,,,,noblest,w,g,lower,,,,,,,1,w,HiDemTar,h,0,0.6270045659694006,,,,,,,,,,,,,,,,,,,,379,2023-11-15_15h37.48.723,leap3,2022.2.5,59.99992755512373,
,,,,,,,,,,,,,,,,,,,,13,0,13,0,15,0,15,0,,,,,,rowel,nw,h,lower,,,,,,,1,nw,HiDemTar,h,1,0.6322498352019466,,,,,,,,,,,,,,,,,,,,379,2023-11-15_15h37.48.723,leap3,2022.2.5,59.99992755512373,
,,,,,,,,,,,,,,,,,,,,13,0,13,0,16,0,16,0,,,,,,portify,nw,h,lower,,,,,,,1,nw,HiDemTar,h,1,0.7576708422420779,,,,,,,,,,,,,,,,,,,,379,2023-11-15_15h37.48.723,leap3,2022.2.5,59.99992755512373,
,,,,,,,,,,,,,,,,,,,,13,0,13,0,17,0,17,0,,,,,,acorn,w,g,lower,,,,,,,1,w,HiDemTar,g,1,0.637710928087472,,,,,,,,,,,,,,,,,,,,379,2023-11-15_15h37.48.723,leap3,2022.2.5,59.99992755512373,
,,,,,,,,,,,,,,,,,,,,13,0,13,0,18,0,18,0,,,,,,naxis,nw,h,lower,,,,,,,1,nw,HiDemTar,h,1,0.9614273810948362,,,,,,,,,,,,,,,,,,,,379,2023-11-15_15h37.48.723,leap3,2022.2.5,59.99992755512373,
,,,,,,,,,,,,,,,,,,,,13,0,13,0,19,0,19,0,,,,,,audience,w,g,lower,,,,,,,1,w,HiDemTar,g,1,0.5694185911852401,,,,,,,,,,,,,,,,,,,,379,2023-11-15_15h37.48.723,leap3,2022.2.5,59.99992755512373,
,,,,,,,,,,,,,,,,,,,,13,0,13,0,20,0,20,0,,,,,,hardest,w,g,lower,,,,,,,1,w,HiDemTar,g,1,0.5688037201834959,,,,,,,,,,,,,,,,,,,,379,2023-11-15_15h37.48.723,leap3,2022.2.5,59.99992755512373,
,,,,,,,,,,,,,,,,,,,,13,0,13,0,21,0,21,0,,,,,,spider,target,q,lower,,,,,,,1,target,HiDemTar,g,0,0.3761519871040946,,,,,,,,,,,,,,,,,,,,379,2023-11-15_15h37.48.723,leap3,2022.2.5,59.99992755512373,
,,,,,,,,,,,,,,,,,,,,13,0,13,0,22,0,22,0,,,,,,doads,nw,h,lower,,,,,,,1,aftertar1,HiDemTar,h,1,1.759429427649593,,,,,,,,,,,,,,,,,,,,379,2023-11-15_15h37.48.723,leap3,2022.2.5,59.99992755512373,
,,,,,,,,,,,,,,,,,,,,13,0,13,0,23,0,23,0,,,,,,geborn,nw,h,lower,,,,,,,1,aftertar2,HiDemTar,g,0,0.45534900239726994,,,,,,,,,,,,,,,,,,,,379,2023-11-15_15h37.48.723,leap3,2022.2.5,59.99992755512373,
,,,,,,,,,,,,,,,,,,,,13,0,13,0,24,0,24,0,,,,,,leather,w,g,lower,,,,,,,1,aftertar3,HiDemTar,g,1,0.4034000997780822,,,,,,,,,,,,,,,,,,,,379,2023-11-15_15h37.48.723,leap3,2022.2.5,59.99992755512373,
,,,,,,,,,,,,,,,,,,,,13,0,13,0,25,0,25,0,,,,,,vivid,w,g,lower,,,,,,,1,w,HiDemTar,g,1,0.4882311687251786,,,,,,,,,,,,,,,,,,,,379,2023-11-15_15h37.48.723,leap3,2022.2.5,59.99992755512373,
,,,,,,,,,,,,,,,,,,,,13,0,13,0,26,0,26,0,,,,,,peadgear,nw,h,lower,,,,,,,1,w,HiDemTar,h,1,0.530975419213064,,,,,,,,,,,,,,,,,,,,379,2023-11-15_15h37.48.723,leap3,2022.2.5,59.99992755512373,
,,,,,,,,,,,,,,,,,,,,13,0,13,0,27,0,27,0,,,,,,destroy,w,g,lower,,,,,,,1,nw,HiDemTar,g,1,0.5154895443411078,,,,,,,,,,,,,,,,,,,,379,2023-11-15_15h37.48.723,leap3,2022.2.5,59.99992755512373,
,,,,,,,,,,,,,,,,,,,,13,0,13,0,28,0,28,0,,,,,,actual,w,g,lower,,,,,,,1,w,HiDemTar,g,1,0.5100818791324855,,,,,,,,,,,,,,,,,,,,379,2023-11-15_15h37.48.723,leap3,2022.2.5,59.99992755512373,
,,,,,,,,,,,,,,,,,,,,13,0,13,0,29,0,29,0,,,,,,insole,w,g,lower,,,,,,,1,w,HiDemTar,g,1,0.768577935443318,,,,,,,,,,,,,,,,,,,,379,2023-11-15_15h37.48.723,leap3,2022.2.5,59.99992755512373,
,,,,,,,,,,,,,,,,,,,,13,0,13,0,,,,,,,,,,,,,,,,,,,,,,,,,,,0,,,,,,,,,,,,,,,,,,379,2023-11-15_15h37.48.723,leap3,2022.2.5,59.99992755512373,
,,,,,,,,,,,,,,,,,,,,14,0,14,0,0,0,0,0,,,,,,alomalous,nw,h,upper,,,,,,,3,nw,LoDemNoTar,h,1,0.7840613955049776,,,,,,,,,,,,,,,,,,,,379,2023-11-15_15h37.48.723,leap3,2022.2.5,59.99992755512373,
,,,,,,,,,,,,,,,,,,,,14,0,14,0,1,0,1,0,,,,,,imotope,nw,h,upper,,,,,,,3,nw,LoDemNoTar,h,1,0.6947846612965805,,,,,,,,,,,,,,,,,,,,379,2023-11-15_15h37.48.723,leap3,2022.2.5,59.99992755512373,
,,,,,,,,,,,,,,,,,,,,14,0,14,0,2,0,2,0,,,,,,defeat,w,g,upper,,,,,,,3,w,LoDemNoTar,g,1,0.4245221412566025,,,,,,,,,,,,,,,,,,,,379,2023-11-15_15h37.48.723,leap3,2022.2.5,59.99992755512373,
,,,,,,,,,,,,,,,,,,,,14,0,14,0,3,0,3,0,,,,,,module,w,g,upper,,,,,,,3,w,LoDemNoTar,g,1,0.5737365733730257,,,,,,,,,,,,,,,,,,,,379,2023-11-15_15h37.48.723,leap3,2022.2.5,59.99992755512373,
,,,,,,,,,,,,,,,,,,,,14,0,14,0,4,0,4,0,,,,,,sampling,w,g,upper,,,,,,,3,w,LoDemNoTar,g,1,0.6131538193440065,,,,,,,,,,,,,,,,,,,,379,2023-11-15_15h37.48.723,leap3,2022.2.5,59.99992755512373,
,,,,,,,,,,,,,,,,,,,,14,0,14,0,5,0,5,0,,,,,,assent,w,g,upper,,,,,,,3,w,LoDemNoTar,g,1,0.6111966158132418,,,,,,,,,,,,,,,,,,,,379,2023-11-15_15h37.48.723,leap3,2022.2.5,59.99992755512373,
,,,,,,,,,,,,,,,,,,,,14,0,14,0,6,0,6,0,,,,,,metrol,nw,h,upper,,,,,,,3,nw,LoDemNoTar,h,1,0.6972655767458491,,,,,,,,,,,,,,,,,,,,379,2023-11-15_15h37.48.723,leap3,2022.2.5,59.99992755512373,
,,,,,,,,,,,,,,,,,,,,14,0,14,0,7,0,7,0,,,,,,function,w,g,upper,,,,,,,3,w,LoDemNoTar,g,1,0.5639662519897684,,,,,,,,,,,,,,,,,,,,379,2023-11-15_15h37.48.723,leap3,2022.2.5,59.99992755512373,
,,,,,,,,,,,,,,,,,,,,14,0,14,0,8,0,8,0,,,,,,nopping,nw,h,upper,,,,,,,3,nw,LoDemNoTar,h,1,0.9479759836758603,,,,,,,,,,,,,,,,,,,,379,2023-11-15_15h37.48.723,leap3,2022.2.5,59.99992755512373,
,,,,,,,,,,,,,,,,,,,,14,0,14,0,9,0,9,0,,,,,,abhorrent,w,g,upper,,,,,,,3,w,LoDemNoTar,g,1,0.6839859326937585,,,,,,,,,,,,,,,,,,,,379,2023-11-15_15h37.48.723,leap3,2022.2.5,59.99992755512373,
,,,,,,,,,,,,,,,,,,,,14,0,14,0,10,0,10,0,,,,,,jiggling,w,g,upper,,,,,,,3,w,LoDemNoTar,g,1,0.44648393293027766,,,,,,,,,,,,,,,,,,,,379,2023-11-15_15h37.48.723,leap3,2022.2.5,59.99992755512373,
,,,,,,,,,,,,,,,,,,,,14,0,14,0,11,0,11,0,,,,,,shamrock,w,g,upper,,,,,,,3,w,LoDemNoTar,g,1,0.4350667110993527,,,,,,,,,,,,,,,,,,,,379,2023-11-15_15h37.48.723,leap3,2022.2.5,59.99992755512373,
,,,,,,,,,,,,,,,,,,,,14,0,14,0,12,0,12,0,,,,,,triplet,w,g,upper,,,,,,,3,w,LoDemNoTar,g,1,0.5997537366347387,,,,,,,,,,,,,,,,,,,,379,2023-11-15_15h37.48.723,leap3,2022.2.5,59.99992755512373,
,,,,,,,,,,,,,,,,,,,,14,0,14,0,13,0,13,0,,,,,,topefuls,nw,h,upper,,,,,,,3,nw,LoDemNoTar,h,1,0.6464585774228908,,,,,,,,,,,,,,,,,,,,379,2023-11-15_15h37.48.723,leap3,2022.2.5,59.99992755512373,
,,,,,,,,,,,,,,,,,,,,14,0,14,0,14,0,14,0,,,,,,withep,nw,h,upper,,,,,,,3,nw,LoDemNoTar,h,1,0.6191911462665303,,,,,,,,,,,,,,,,,,,,379,2023-11-15_15h37.48.723,leap3,2022.2.5,59.99992755512373,
,,,,,,,,,,,,,,,,,,,,14,0,14,0,15,0,15,0,,,,,,surdens,nw,h,upper,,,,,,,3,nw,LoDemNoTar,h,1,0.5045435123247444,,,,,,,,,,,,,,,,,,,,379,2023-11-15_15h37.48.723,leap3,2022.2.5,59.99992755512373,
,,,,,,,,,,,,,,,,,,,,14,0,14,0,16,0,16,0,,,,,,yash,nw,h,upper,,,,,,,3,nw,LoDemNoTar,h,1,0.5465932030856493,,,,,,,,,,,,,,,,,,,,379,2023-11-15_15h37.48.723,leap3,2022.2.5,59.99992755512373,
,,,,,,,,,,,,,,,,,,,,14,0,14,0,17,0,17,0,,,,,,knowledge,w,g,upper,,,,,,,3,w,LoDemNoTar,g,1,0.6993272208128474,,,,,,,,,,,,,,,,,,,,379,2023-11-15_15h37.48.723,leap3,2022.2.5,59.99992755512373,
,,,,,,,,,,,,,,,,,,,,14,0,14,0,18,0,18,0,,,,,,permute,w,g,upper,,,,,,,3,w,LoDemNoTar,g,1,1.0208350281973253,,,,,,,,,,,,,,,,,,,,379,2023-11-15_15h37.48.723,leap3,2022.2.5,59.99992755512373,
,,,,,,,,,,,,,,,,,,,,14,0,14,0,19,0,19,0,,,,,,batire,nw,h,upper,,,,,,,3,nw,LoDemNoTar,h,1,0.5702299673575908,,,,,,,,,,,,,,,,,,,,379,2023-11-15_15h37.48.723,leap3,2022.2.5,59.99992755512373,
,,,,,,,,,,,,,,,,,,,,14,0,14,0,20,0,20,0,,,,,,flieves,nw,h,upper,,,,,,,3,nw,LoDemNoTar,g,0,0.7379421461446327,,,,,,,,,,,,,,,,,,,,379,2023-11-15_15h37.48.723,leap3,2022.2.5,59.99992755512373,
,,,,,,,,,,,,,,,,,,,,14,0,14,0,21,0,21,0,,,,,,shests,nw,h,upper,,,,,,,3,nw,LoDemNoTar,h,1,0.6490469519194448,,,,,,,,,,,,,,,,,,,,379,2023-11-15_15h37.48.723,leap3,2022.2.5,59.99992755512373,
,,,,,,,,,,,,,,,,,,,,14,0,14,0,22,0,22,0,,,,,,refebs,nw,h,upper,,,,,,,3,nw,LoDemNoTar,h,1,0.5977947219944326,,,,,,,,,,,,,,,,,,,,379,2023-11-15_15h37.48.723,leap3,2022.2.5,59.99992755512373,
,,,,,,,,,,,,,,,,,,,,14,0,14,0,23,0,23,0,,,,,,cavern,w,g,upper,,,,,,,3,w,LoDemNoTar,g,1,0.7484329864746542,,,,,,,,,,,,,,,,,,,,379,2023-11-15_15h37.48.723,leap3,2022.2.5,59.99992755512373,
,,,,,,,,,,,,,,,,,,,,14,0,14,0,24,0,24,0,,,,,,guffy,nw,h,upper,,,,,,,3,nw,LoDemNoTar,h,1,1.0531998214719351,,,,,,,,,,,,,,,,,,,,379,2023-11-15_15h37.48.723,leap3,2022.2.5,59.99992755512373,
,,,,,,,,,,,,,,,,,,,,14,0,14,0,25,0,25,0,,,,,,pimorous,nw,h,upper,,,,,,,3,nw,LoDemNoTar,h,1,0.609121086592495,,,,,,,,,,,,,,,,,,,,379,2023-11-15_15h37.48.723,leap3,2022.2.5,59.99992755512373,
,,,,,,,,,,,,,,,,,,,,14,0,14,0,26,0,26,0,,,,,,earnest,w,g,upper,,,,,,,3,w,LoDemNoTar,g,1,0.7193686348036863,,,,,,,,,,,,,,,,,,,,379,2023-11-15_15h37.48.723,leap3,2022.2.5,59.99992755512373,
,,,,,,,,,,,,,,,,,,,,14,0,14,0,27,0,27,0,,,,,,season,w,g,upper,,,,,,,3,w,LoDemNoTar,g,1,0.4566472646474722,,,,,,,,,,,,,,,,,,,,379,2023-11-15_15h37.48.723,leap3,2022.2.5,59.99992755512373,
,,,,,,,,,,,,,,,,,,,,14,0,14,0,28,0,28,0,,,,,,stuggard,nw,h,upper,,,,,,,3,nw,LoDemNoTar,h,1,0.6606377382122446,,,,,,,,,,,,,,,,,,,,379,2023-11-15_15h37.48.723,leap3,2022.2.5,59.99992755512373,
,,,,,,,,,,,,,,,,,,,,14,0,14,0,29,0,29,0,,,,,,ordinary,w,g,upper,,,,,,,3,w,LoDemNoTar,g,1,0.464713635694352,,,,,,,,,,,,,,,,,,,,379,2023-11-15_15h37.48.723,leap3,2022.2.5,59.99992755512373,
,,,,,,,,,,,,,,,,,,,,14,0,14,0,,,,,,,,,,,,,,,,,,,,,,,,,,,NA,,,,,,,,,,,,,,,,,,379,2023-11-15_15h37.48.723,leap3,2022.2.5,59.99992755512373,
,,,,,,,,,,,,,,,,,,,,15,0,15,0,0,0,0,0,,,,,,irfirm,nw,h,upper,,,,,,,3,nw,LoDemNoTar,h,1,0.8205310639823438,,,,,,,,,,,,,,,,,,,,379,2023-11-15_15h37.48.723,leap3,2022.2.5,59.99992755512373,
,,,,,,,,,,,,,,,,,,,,15,0,15,0,1,0,1,0,,,,,,violate,w,g,upper,,,,,,,3,w,LoDemNoTar,g,1,0.4178521341091255,,,,,,,,,,,,,,,,,,,,379,2023-11-15_15h37.48.723,leap3,2022.2.5,59.99992755512373,
,,,,,,,,,,,,,,,,,,,,15,0,15,0,2,0,2,0,,,,,,arrival,w,g,upper,,,,,,,3,w,LoDemNoTar,g,1,0.3992680579685839,,,,,,,,,,,,,,,,,,,,379,2023-11-15_15h37.48.723,leap3,2022.2.5,59.99992755512373,
,,,,,,,,,,,,,,,,,,,,15,0,15,0,3,0,3,0,,,,,,century,w,g,upper,,,,,,,3,w,LoDemNoTar,g,1,0.477930192835629,,,,,,,,,,,,,,,,,,,,379,2023-11-15_15h37.48.723,leap3,2022.2.5,59.99992755512373,
,,,,,,,,,,,,,,,,,,,,15,0,15,0,4,0,4,0,,,,,,defensa,nw,h,upper,,,,,,,3,nw,LoDemNoTar,h,1,0.43235035167163005,,,,,,,,,,,,,,,,,,,,379,2023-11-15_15h37.48.723,leap3,2022.2.5,59.99992755512373,
,,,,,,,,,,,,,,,,,,,,15,0,15,0,5,0,5,0,,,,,,ethical,w,g,upper,,,,,,,3,w,LoDemNoTar,g,1,0.5096432892532903,,,,,,,,,,,,,,,,,,,,379,2023-11-15_15h37.48.723,leap3,2022.2.5,59.99992755512373,
,,,,,,,,,,,,,,,,,,,,15,0,15,0,6,0,6,0,,,,,,rejoiced,w,g,upper,,,,,,,3,w,LoDemNoTar,g,1,0.5515991042775568,,,,,,,,,,,,,,,,,,,,379,2023-11-15_15h37.48.723,leap3,2022.2.5,59.99992755512373,
,,,,,,,,,,,,,,,,,,,,15,0,15,0,7,0,7,0,,,,,,migmarole,nw,h,upper,,,,,,,3,nw,LoDemNoTar,h,1,0.5277534589331481,,,,,,,,,,,,,,,,,,,,379,2023-11-15_15h37.48.723,leap3,2022.2.5,59.99992755512373,
,,,,,,,,,,,,,,,,,,,,15,0,15,0,8,0,8,0,,,,,,bamboo,w,g,upper,,,,,,,3,w,LoDemNoTar,g,1,0.5370993774486124,,,,,,,,,,,,,,,,,,,,379,2023-11-15_15h37.48.723,leap3,2022.2.5,59.99992755512373,
,,,,,,,,,,,,,,,,,,,,15,0,15,0,9,0,9,0,,,,,,priant,nw,h,upper,,,,,,,3,nw,LoDemNoTar,h,1,0.6577659253889578,,,,,,,,,,,,,,,,,,,,379,2023-11-15_15h37.48.723,leap3,2022.2.5,59.99992755512373,
,,,,,,,,,,,,,,,,,,,,15,0,15,0,10,0,10,0,,,,,,farochial,nw,h,upper,,,,,,,3,nw,LoDemNoTar,h,1,0.4299195435232832,,,,,,,,,,,,,,,,,,,,379,2023-11-15_15h37.48.723,leap3,2022.2.5,59.99992755512373,
,,,,,,,,,,,,,,,,,,,,15,0,15,0,11,0,11,0,,,,,,rangel,nw,h,upper,,,,,,,3,nw,LoDemNoTar,h,1,0.6020164136352832,,,,,,,,,,,,,,,,,,,,379,2023-11-15_15h37.48.723,leap3,2022.2.5,59.99992755512373,
,,,,,,,,,,,,,,,,,,,,15,0,15,0,12,0,12,0,,,,,,boutique,w,g,upper,,,,,,,3,w,LoDemNoTar,h,0,0.3996655960654607,,,,,,,,,,,,,,,,,,,,379,2023-11-15_15h37.48.723,leap3,2022.2.5,59.99992755512373,
,,,,,,,,,,,,,,,,,,,,15,0,15,0,13,0,13,0,,,,,,slending,nw,h,upper,,,,,,,3,nw,LoDemNoTar,g,0,0.6392075066032703,,,,,,,,,,,,,,,,,,,,379,2023-11-15_15h37.48.723,leap3,2022.2.5,59.99992755512373,
,,,,,,,,,,,,,,,,,,,,15,0,15,0,14,0,14,0,,,,,,veclors,nw,h,upper,,,,,,,3,nw,LoDemNoTar,h,1,0.50843346943293,,,,,,,,,,,,,,,,,,,,379,2023-11-15_15h37.48.723,leap3,2022.2.5,59.99992755512373,
,,,,,,,,,,,,,,,,,,,,15,0,15,0,15,0,15,0,,,,,,inverted,w,g,upper,,,,,,,3,w,LoDemNoTar,g,1,0.7095931819494581,,,,,,,,,,,,,,,,,,,,379,2023-11-15_15h37.48.723,leap3,2022.2.5,59.99992755512373,
,,,,,,,,,,,,,,,,,,,,15,0,15,0,16,0,16,0,,,,,,podges,nw,h,upper,,,,,,,3,nw,LoDemNoTar,h,1,0.711515974435315,,,,,,,,,,,,,,,,,,,,379,2023-11-15_15h37.48.723,leap3,2022.2.5,59.99992755512373,
,,,,,,,,,,,,,,,,,,,,15,0,15,0,17,0,17,0,,,,,,fillings,w,g,upper,,,,,,,3,w,LoDemNoTar,g,1,1.0255722817746573,,,,,,,,,,,,,,,,,,,,379,2023-11-15_15h37.48.723,leap3,2022.2.5,59.99992755512373,
,,,,,,,,,,,,,,,,,,,,15,0,15,0,18,0,18,0,,,,,,redefloy,nw,h,upper,,,,,,,3,nw,LoDemNoTar,h,1,0.5989499067509314,,,,,,,,,,,,,,,,,,,,379,2023-11-15_15h37.48.723,leap3,2022.2.5,59.99992755512373,
,,,,,,,,,,,,,,,,,,,,15,0,15,0,19,0,19,0,,,,,,unmarked,w,g,upper,,,,,,,3,w,LoDemNoTar,g,1,0.5736046643723967,,,,,,,,,,,,,,,,,,,,379,2023-11-15_15h37.48.723,leap3,2022.2.5,59.99992755512373,
,,,,,,,,,,,,,,,,,,,,15,0,15,0,20,0,20,0,,,,,,sheerio,nw,h,upper,,,,,,,3,nw,LoDemNoTar,h,1,0.8369780332432128,,,,,,,,,,,,,,,,,,,,379,2023-11-15_15h37.48.723,leap3,2022.2.5,59.99992755512373,
,,,,,,,,,,,,,,,,,,,,15,0,15,0,21,0,21,0,,,,,,quittint,nw,h,upper,,,,,,,3,nw,LoDemNoTar,h,1,0.5376901003546664,,,,,,,,,,,,,,,,,,,,379,2023-11-15_15h37.48.723,leap3,2022.2.5,59.99992755512373,
,,,,,,,,,,,,,,,,,,,,15,0,15,0,22,0,22,0,,,,,,statute,w,g,upper,,,,,,,3,w,LoDemNoTar,g,1,0.8975577687670011,,,,,,,,,,,,,,,,,,,,379,2023-11-15_15h37.48.723,leap3,2022.2.5,59.99992755512373,
,,,,,,,,,,,,,,,,,,,,15,0,15,0,23,0,23,0,,,,,,cartles,nw,h,upper,,,,,,,3,nw,LoDemNoTar,h,1,0.5321375465355231,,,,,,,,,,,,,,,,,,,,379,2023-11-15_15h37.48.723,leap3,2022.2.5,59.99992755512373,
,,,,,,,,,,,,,,,,,,,,15,0,15,0,24,0,24,0,,,,,,machinery,w,g,upper,,,,,,,3,w,LoDemNoTar,g,1,0.6454491868280456,,,,,,,,,,,,,,,,,,,,379,2023-11-15_15h37.48.723,leap3,2022.2.5,59.99992755512373,
,,,,,,,,,,,,,,,,,,,,15,0,15,0,25,0,25,0,,,,,,record,w,g,upper,,,,,,,3,w,LoDemNoTar,g,1,0.546077641141892,,,,,,,,,,,,,,,,,,,,379,2023-11-15_15h37.48.723,leap3,2022.2.5,59.99992755512373,
,,,,,,,,,,,,,,,,,,,,15,0,15,0,26,0,26,0,,,,,,living,w,g,upper,,,,,,,3,w,LoDemNoTar,g,1,0.5468512859006296,,,,,,,,,,,,,,,,,,,,379,2023-11-15_15h37.48.723,leap3,2022.2.5,59.99992755512373,
,,,,,,,,,,,,,,,,,,,,15,0,15,0,27,0,27,0,,,,,,fallint,nw,h,upper,,,,,,,3,nw,LoDemNoTar,h,1,0.7314858496829402,,,,,,,,,,,,,,,,,,,,379,2023-11-15_15h37.48.723,leap3,2022.2.5,59.99992755512373,
,,,,,,,,,,,,,,,,,,,,15,0,15,0,28,0,28,0,,,,,,brouhuha,nw,h,upper,,,,,,,3,nw,LoDemNoTar,h,1,0.6128794365504291,,,,,,,,,,,,,,,,,,,,379,2023-11-15_15h37.48.723,leap3,2022.2.5,59.99992755512373,
,,,,,,,,,,,,,,,,,,,,15,0,15,0,29,0,29,0,,,,,,persona,w,g,upper,,,,,,,3,w,LoDemNoTar,g,1,0.7709341863301233,,,,,,,,,,,,,,,,,,,,379,2023-11-15_15h37.48.723,leap3,2022.2.5,59.99992755512373,
,,,,,,,,,,,,,,,,,,,,15,0,15,0,,,,,,,,,,,,,,,,,,,,,,,,,,,NA,,,,,,,,,,,,,,,,,,379,2023-11-15_15h37.48.723,leap3,2022.2.5,59.99992755512373,
,,,,,,,,,,,,,,,,,,,,16,0,16,0,0,0,0,0,,,,,,collute,nw,h,upper,,,,,,,3,nw,LoDemNoTar,h,1,0.7221025016115163,,,,,,,,,,,,,,,,,,,,379,2023-11-15_15h37.48.723,leap3,2022.2.5,59.99992755512373,
,,,,,,,,,,,,,,,,,,,,16,0,16,0,1,0,1,0,,,,,,fetching,w,g,upper,,,,,,,3,w,LoDemNoTar,g,1,0.5554452929500258,,,,,,,,,,,,,,,,,,,,379,2023-11-15_15h37.48.723,leap3,2022.2.5,59.99992755512373,
,,,,,,,,,,,,,,,,,,,,16,0,16,0,2,0,2,0,,,,,,dorth,nw,h,upper,,,,,,,3,nw,LoDemNoTar,h,1,0.5795073656408931,,,,,,,,,,,,,,,,,,,,379,2023-11-15_15h37.48.723,leap3,2022.2.5,59.99992755512373,
,,,,,,,,,,,,,,,,,,,,16,0,16,0,3,0,3,0,,,,,,gund,nw,h,upper,,,,,,,3,nw,LoDemNoTar,h,1,0.7856165331686498,,,,,,,,,,,,,,,,,,,,379,2023-11-15_15h37.48.723,leap3,2022.2.5,59.99992755512373,
,,,,,,,,,,,,,,,,,,,,16,0,16,0,4,0,4,0,,,,,,alchemist,w,g,upper,,,,,,,3,w,LoDemNoTar,g,1,0.9684016543105827,,,,,,,,,,,,,,,,,,,,379,2023-11-15_15h37.48.723,leap3,2022.2.5,59.99992755512373,
