demoRace_loop.thisRepN,demoRace_loop.thisTrialN,demoRace_loop.thisN,demoRace_loop.thisIndex,LDTunderstand.thisRepN,LDTunderstand.thisTrialN,LDTunderstand.thisN,LDTunderstand.thisIndex,pracBlocks.thisRepN,pracBlocks.thisTrialN,pracBlocks.thisN,pracBlocks.thisIndex,pracTrial.thisRepN,pracTrial.thisTrialN,pracTrial.thisN,pracTrial.thisIndex,PMunderstand.thisRepN,PMunderstand.thisTrialN,PMunderstand.thisN,PMunderstand.thisIndex,LDT_block.thisRepN,LDT_block.thisTrialN,LDT_block.thisN,LDT_block.thisIndex,LDT_trial.thisRepN,LDT_trial.thisTrialN,LDT_trial.thisN,LDT_trial.thisIndex,ageTextbox.text,genderTextbox.text,race,raceResp,LDTunderstand,stim,word_type,corr_key,stim_location,LDTpracKey.keys,LDTpracKey.corr,LDTpracKey.rt,PMunderstand,cueTextbox.text,intentionTextbox.text,block_type,role,block_desc,LDTResp.keys,LDTResp.corr,LDTResp.rt,pressedQ,PM_accuracy,postQ1,Q2Textbox.text,Q3Textbox.text,Q4,Q5,Q6Key.keys,Q6Key.rt,postQ7_correct,postQ7,Q8Textbox.text,education,medTextbox.text,health,healthLimit,psych,participant,date,expName,psychopyVersion,frameRate,
0,0,0,0,,,,,,,,,,,,,,,,,,,,,,,,,"
20 ",male,American Indian or Alaska Native,y,,,,,,,,,,,,,,,,,,,,,,,,,,,,,,,,,,,380,2023-11-16_09h43.18.340,leap3,2022.2.5,59.992647806616446,
1,0,1,0,,,,,,,,,,,,,,,,,,,,,,,,,,,Asian,n,,,,,,,,,,,,,,,,,,,,,,,,,,,,,,,,,,,380,2023-11-16_09h43.18.340,leap3,2022.2.5,59.992647806616446,
2,0,2,0,,,,,,,,,,,,,,,,,,,,,,,,,,,Black or African American,n,,,,,,,,,,,,,,,,,,,,,,,,,,,,,,,,,,,380,2023-11-16_09h43.18.340,leap3,2022.2.5,59.992647806616446,
3,0,3,0,,,,,,,,,,,,,,,,,,,,,,,,,,,Native Hawaiian or other Pacific Islander,n,,,,,,,,,,,,,,,,,,,,,,,,,,,,,,,,,,,380,2023-11-16_09h43.18.340,leap3,2022.2.5,59.992647806616446,
4,0,4,0,,,,,,,,,,,,,,,,,,,,,,,,,,,White,n,,,,,,,,,,,,,,,,,,,,,,,,,,,,,,,,,,,380,2023-11-16_09h43.18.340,leap3,2022.2.5,59.992647806616446,
,,,,0,0,0,0,,,,,,,,,,,,,,,,,,,,,,,,,y,,,,,,,,,,,,,,,,,,,,,,,,,,,,,,,,,,380,2023-11-16_09h43.18.340,leap3,2022.2.5,59.992647806616446,
,,,,,,,,0,0,0,0,0,0,0,0,,,,,,,,,,,,,,,,,,lurshing,nw,h,upper,g,0,0.6555681174213532,,,,,,,,,,,,,,,,,,,,,,,,,,,380,2023-11-16_09h43.18.340,leap3,2022.2.5,59.992647806616446,
,,,,,,,,0,0,0,0,1,0,1,0,,,,,,,,,,,,,,,,,,summary,w,g,upper,g,1,0.6581924122147029,,,,,,,,,,,,,,,,,,,,,,,,,,,380,2023-11-16_09h43.18.340,leap3,2022.2.5,59.992647806616446,
,,,,,,,,0,0,0,0,2,0,2,0,,,,,,,,,,,,,,,,,,unscrew,w,g,upper,g,1,0.7885486872546608,,,,,,,,,,,,,,,,,,,,,,,,,,,380,2023-11-16_09h43.18.340,leap3,2022.2.5,59.992647806616446,
,,,,,,,,0,0,0,0,3,0,3,0,,,,,,,,,,,,,,,,,,trotch,nw,h,upper,h,1,0.6930308765149675,,,,,,,,,,,,,,,,,,,,,,,,,,,380,2023-11-16_09h43.18.340,leap3,2022.2.5,59.992647806616446,
,,,,,,,,0,0,0,0,4,0,4,0,,,,,,,,,,,,,,,,,,overshoot,w,g,upper,g,1,0.6875848761992529,,,,,,,,,,,,,,,,,,,,,,,,,,,380,2023-11-16_09h43.18.340,leap3,2022.2.5,59.992647806616446,
,,,,,,,,0,0,0,0,5,0,5,0,,,,,,,,,,,,,,,,,,lumbigo,nw,h,upper,h,1,0.8663943144929362,,,,,,,,,,,,,,,,,,,,,,,,,,,380,2023-11-16_09h43.18.340,leap3,2022.2.5,59.992647806616446,
,,,,,,,,0,0,0,0,6,0,6,0,,,,,,,,,,,,,,,,,,raestro,nw,h,upper,h,1,0.7828273985796841,,,,,,,,,,,,,,,,,,,,,,,,,,,380,2023-11-16_09h43.18.340,leap3,2022.2.5,59.992647806616446,
,,,,,,,,0,0,0,0,7,0,7,0,,,,,,,,,,,,,,,,,,revival,w,g,upper,g,1,0.6701713792135706,,,,,,,,,,,,,,,,,,,,,,,,,,,380,2023-11-16_09h43.18.340,leap3,2022.2.5,59.992647806616446,
,,,,,,,,0,0,0,0,8,0,8,0,,,,,,,,,,,,,,,,,,reputable,w,g,upper,g,1,0.5451877546438482,,,,,,,,,,,,,,,,,,,,,,,,,,,380,2023-11-16_09h43.18.340,leap3,2022.2.5,59.992647806616446,
,,,,,,,,0,0,0,0,9,0,9,0,,,,,,,,,,,,,,,,,,alolition,nw,h,upper,h,1,0.7942935203027446,,,,,,,,,,,,,,,,,,,,,,,,,,,380,2023-11-16_09h43.18.340,leap3,2022.2.5,59.992647806616446,
,,,,,,,,0,0,0,0,10,0,10,0,,,,,,,,,,,,,,,,,,crinklo,nw,h,upper,h,1,0.6640471191349206,,,,,,,,,,,,,,,,,,,,,,,,,,,380,2023-11-16_09h43.18.340,leap3,2022.2.5,59.992647806616446,
,,,,,,,,0,0,0,0,11,0,11,0,,,,,,,,,,,,,,,,,,umpire,w,g,upper,g,1,0.612006151874084,,,,,,,,,,,,,,,,,,,,,,,,,,,380,2023-11-16_09h43.18.340,leap3,2022.2.5,59.992647806616446,
,,,,,,,,0,0,0,0,12,0,12,0,,,,,,,,,,,,,,,,,,tricycle,w,g,upper,g,1,0.48207186489889864,,,,,,,,,,,,,,,,,,,,,,,,,,,380,2023-11-16_09h43.18.340,leap3,2022.2.5,59.992647806616446,
,,,,,,,,0,0,0,0,13,0,13,0,,,,,,,,,,,,,,,,,,curlecs,nw,h,upper,h,1,0.6455010762438178,,,,,,,,,,,,,,,,,,,,,,,,,,,380,2023-11-16_09h43.18.340,leap3,2022.2.5,59.992647806616446,
,,,,,,,,0,0,0,0,,,,,,,,,,,,,,,,,,,,,,,,,,,,,,,,,,,,,,,,,,,,,,,,,,,,,,,380,2023-11-16_09h43.18.340,leap3,2022.2.5,59.992647806616446,
,,,,,,,,1,0,1,0,0,0,0,0,,,,,,,,,,,,,,,,,,grocus,nw,h,lower,h,1,0.7458306978223845,,,,,,,,,,,,,,,,,,,,,,,,,,,380,2023-11-16_09h43.18.340,leap3,2022.2.5,59.992647806616446,
,,,,,,,,1,0,1,0,1,0,1,0,,,,,,,,,,,,,,,,,,slumber,w,g,lower,g,1,0.7713072454789653,,,,,,,,,,,,,,,,,,,,,,,,,,,380,2023-11-16_09h43.18.340,leap3,2022.2.5,59.992647806616446,
,,,,,,,,1,0,1,0,2,0,2,0,,,,,,,,,,,,,,,,,,picture,w,g,lower,g,1,0.5145869800908258,,,,,,,,,,,,,,,,,,,,,,,,,,,380,2023-11-16_09h43.18.340,leap3,2022.2.5,59.992647806616446,
,,,,,,,,1,0,1,0,3,0,3,0,,,,,,,,,,,,,,,,,,hasking,nw,h,lower,h,1,0.6525514159729937,,,,,,,,,,,,,,,,,,,,,,,,,,,380,2023-11-16_09h43.18.340,leap3,2022.2.5,59.992647806616446,
,,,,,,,,1,0,1,0,4,0,4,0,,,,,,,,,,,,,,,,,,hiring,w,g,lower,g,1,0.6005029024527175,,,,,,,,,,,,,,,,,,,,,,,,,,,380,2023-11-16_09h43.18.340,leap3,2022.2.5,59.992647806616446,
,,,,,,,,1,0,1,0,5,0,5,0,,,,,,,,,,,,,,,,,,turative,nw,h,lower,h,1,0.7095674956071889,,,,,,,,,,,,,,,,,,,,,,,,,,,380,2023-11-16_09h43.18.340,leap3,2022.2.5,59.992647806616446,
,,,,,,,,1,0,1,0,6,0,6,0,,,,,,,,,,,,,,,,,,julled,nw,h,lower,h,1,0.6949717800744111,,,,,,,,,,,,,,,,,,,,,,,,,,,380,2023-11-16_09h43.18.340,leap3,2022.2.5,59.992647806616446,
,,,,,,,,1,0,1,0,7,0,7,0,,,,,,,,,,,,,,,,,,grimace,w,g,lower,g,1,0.6662768943497213,,,,,,,,,,,,,,,,,,,,,,,,,,,380,2023-11-16_09h43.18.340,leap3,2022.2.5,59.992647806616446,
,,,,,,,,1,0,1,0,8,0,8,0,,,,,,,,,,,,,,,,,,busted,w,g,lower,g,1,0.5423871787206735,,,,,,,,,,,,,,,,,,,,,,,,,,,380,2023-11-16_09h43.18.340,leap3,2022.2.5,59.992647806616446,
,,,,,,,,1,0,1,0,9,0,9,0,,,,,,,,,,,,,,,,,,grutch,nw,h,lower,h,1,0.655184464470949,,,,,,,,,,,,,,,,,,,,,,,,,,,380,2023-11-16_09h43.18.340,leap3,2022.2.5,59.992647806616446,
,,,,,,,,1,0,1,0,10,0,10,0,,,,,,,,,,,,,,,,,,treeps,nw,h,lower,h,1,0.8032367692503612,,,,,,,,,,,,,,,,,,,,,,,,,,,380,2023-11-16_09h43.18.340,leap3,2022.2.5,59.992647806616446,
,,,,,,,,1,0,1,0,11,0,11,0,,,,,,,,,,,,,,,,,,sponsor,w,g,lower,g,1,0.824139364878647,,,,,,,,,,,,,,,,,,,,,,,,,,,380,2023-11-16_09h43.18.340,leap3,2022.2.5,59.992647806616446,
,,,,,,,,1,0,1,0,12,0,12,0,,,,,,,,,,,,,,,,,,infinity,w,g,lower,g,1,0.5413512252125656,,,,,,,,,,,,,,,,,,,,,,,,,,,380,2023-11-16_09h43.18.340,leap3,2022.2.5,59.992647806616446,
,,,,,,,,1,0,1,0,13,0,13,0,,,,,,,,,,,,,,,,,,latador,nw,h,lower,h,1,0.6062426040443825,,,,,,,,,,,,,,,,,,,,,,,,,,,380,2023-11-16_09h43.18.340,leap3,2022.2.5,59.992647806616446,
,,,,,,,,1,0,1,0,,,,,,,,,,,,,,,,,,,,,,,,,,,,,,,,,,,,,,,,,,,,,,,,,,,,,,,380,2023-11-16_09h43.18.340,leap3,2022.2.5,59.992647806616446,
,,,,,,,,,,,,,,,,0,0,0,0,,,,,,,,,,,,,,,,,,,,,y,,,,,,,,,,,,,,,,,,,,,,,,,,380,2023-11-16_09h43.18.340,leap3,2022.2.5,59.992647806616446,
,,,,,,,,,,,,,,,,,,,,0,0,0,0,0,0,0,0,,,,,,bureaug,nw,h,upper,,,,,animal,"
q
",1,nw,HiDemTar,h,1,0.8642593205586309,,,,,,,,,,,,,,,,,,380,2023-11-16_09h43.18.340,leap3,2022.2.5,59.992647806616446,
,,,,,,,,,,,,,,,,,,,,0,0,0,0,1,0,1,0,,,,,,rowel,nw,h,upper,,,,,,,1,nw,HiDemTar,h,1,0.6768241808604216,,,,,,,,,,,,,,,,,,380,2023-11-16_09h43.18.340,leap3,2022.2.5,59.992647806616446,
,,,,,,,,,,,,,,,,,,,,0,0,0,0,2,0,2,0,,,,,,intercede,w,g,upper,,,,,,,1,w,HiDemTar,g,1,0.7528837542049587,,,,,,,,,,,,,,,,,,380,2023-11-16_09h43.18.340,leap3,2022.2.5,59.992647806616446,
,,,,,,,,,,,,,,,,,,,,0,0,0,0,3,0,3,0,,,,,,prama,nw,h,upper,,,,,,,1,nw,HiDemTar,h,1,0.7846369968610816,,,,,,,,,,,,,,,,,,380,2023-11-16_09h43.18.340,leap3,2022.2.5,59.992647806616446,
,,,,,,,,,,,,,,,,,,,,0,0,0,0,4,0,4,0,,,,,,surround,w,g,upper,,,,,,,1,w,HiDemTar,g,1,0.7120478073484264,,,,,,,,,,,,,,,,,,380,2023-11-16_09h43.18.340,leap3,2022.2.5,59.992647806616446,
,,,,,,,,,,,,,,,,,,,,0,0,0,0,5,0,5,0,,,,,,hardest,w,g,upper,,,,,,,1,w,HiDemTar,g,1,0.7386822564294562,,,,,,,,,,,,,,,,,,380,2023-11-16_09h43.18.340,leap3,2022.2.5,59.992647806616446,
,,,,,,,,,,,,,,,,,,,,0,0,0,0,6,0,6,0,,,,,,detrabe,nw,h,upper,,,,,,,1,nw,HiDemTar,h,1,0.988099532580236,,,,,,,,,,,,,,,,,,380,2023-11-16_09h43.18.340,leap3,2022.2.5,59.992647806616446,
,,,,,,,,,,,,,,,,,,,,0,0,0,0,7,0,7,0,,,,,,innocent,w,g,upper,,,,,,,1,w,HiDemTar,g,1,0.7154683857661439,,,,,,,,,,,,,,,,,,380,2023-11-16_09h43.18.340,leap3,2022.2.5,59.992647806616446,
,,,,,,,,,,,,,,,,,,,,0,0,0,0,8,0,8,0,,,,,,failure,w,g,upper,,,,,,,1,w,HiDemTar,g,1,0.8301763899507932,,,,,,,,,,,,,,,,,,380,2023-11-16_09h43.18.340,leap3,2022.2.5,59.992647806616446,
,,,,,,,,,,,,,,,,,,,,0,0,0,0,9,0,9,0,,,,,,minimum,w,g,upper,,,,,,,1,w,HiDemTar,g,1,0.6841664107487304,,,,,,,,,,,,,,,,,,380,2023-11-16_09h43.18.340,leap3,2022.2.5,59.992647806616446,
,,,,,,,,,,,,,,,,,,,,0,0,0,0,10,0,10,0,,,,,,atsless,nw,h,upper,,,,,,,1,nw,HiDemTar,h,1,0.759582739090547,,,,,,,,,,,,,,,,,,380,2023-11-16_09h43.18.340,leap3,2022.2.5,59.992647806616446,
,,,,,,,,,,,,,,,,,,,,0,0,0,0,11,0,11,0,,,,,,begut,nw,h,upper,,,,,,,1,nw,HiDemTar,g,0,0.8082604796654778,,,,,,,,,,,,,,,,,,380,2023-11-16_09h43.18.340,leap3,2022.2.5,59.992647806616446,
,,,,,,,,,,,,,,,,,,,,0,0,0,0,12,0,12,0,,,,,,criminal,w,g,upper,,,,,,,1,w,HiDemTar,g,1,0.7659816838131519,,,,,,,,,,,,,,,,,,380,2023-11-16_09h43.18.340,leap3,2022.2.5,59.992647806616446,
,,,,,,,,,,,,,,,,,,,,0,0,0,0,13,0,13,0,,,,,,dricked,nw,h,upper,,,,,,,1,nw,HiDemTar,h,1,0.7585962891898816,,,,,,,,,,,,,,,,,,380,2023-11-16_09h43.18.340,leap3,2022.2.5,59.992647806616446,
,,,,,,,,,,,,,,,,,,,,0,0,0,0,14,0,14,0,,,,,,infested,w,g,upper,,,,,,,1,w,HiDemTar,g,1,0.6473082597076427,,,,,,,,,,,,,,,,,,380,2023-11-16_09h43.18.340,leap3,2022.2.5,59.992647806616446,
,,,,,,,,,,,,,,,,,,,,0,0,0,0,15,0,15,0,,,,,,hubris,w,g,upper,,,,,,,1,w,HiDemTar,g,1,0.9956376639456721,,,,,,,,,,,,,,,,,,380,2023-11-16_09h43.18.340,leap3,2022.2.5,59.992647806616446,
,,,,,,,,,,,,,,,,,,,,0,0,0,0,16,0,16,0,,,,,,igiom,nw,h,upper,,,,,,,1,nw,HiDemTar,h,1,1.1870143773267046,,,,,,,,,,,,,,,,,,380,2023-11-16_09h43.18.340,leap3,2022.2.5,59.992647806616446,
,,,,,,,,,,,,,,,,,,,,0,0,0,0,17,0,17,0,,,,,,giraffe,target,q,upper,,,,,,,1,target,HiDemTar,q,1,0.7070778264605906,1,,,,,,,,,,,,,,,,,380,2023-11-16_09h43.18.340,leap3,2022.2.5,59.992647806616446,
,,,,,,,,,,,,,,,,,,,,0,0,0,0,18,0,18,0,,,,,,newstrint,nw,h,upper,,,,,,,1,aftertar1,HiDemTar,h,1,0.8863014046510216,,,,,,,,,,,,,,,,,,380,2023-11-16_09h43.18.340,leap3,2022.2.5,59.992647806616446,
,,,,,,,,,,,,,,,,,,,,0,0,0,0,19,0,19,0,,,,,,stelled,nw,h,upper,,,,,,,1,aftertar2,HiDemTar,h,1,1.0086390011420008,,,,,,,,,,,,,,,,,,380,2023-11-16_09h43.18.340,leap3,2022.2.5,59.992647806616446,
,,,,,,,,,,,,,,,,,,,,0,0,0,0,20,0,20,0,,,,,,charcoal,w,g,upper,,,,,,,1,aftertar3,HiDemTar,g,1,0.6322241488524014,,,,,,,,,,,,,,,,,,380,2023-11-16_09h43.18.340,leap3,2022.2.5,59.992647806616446,
,,,,,,,,,,,,,,,,,,,,0,0,0,0,21,0,21,0,,,,,,hangar,w,g,upper,,,,,,,1,w,HiDemTar,g,1,0.589199478548835,,,,,,,,,,,,,,,,,,380,2023-11-16_09h43.18.340,leap3,2022.2.5,59.992647806616446,
,,,,,,,,,,,,,,,,,,,,0,0,0,0,22,0,22,0,,,,,,sefraud,nw,h,upper,,,,,,,1,w,HiDemTar,h,1,0.7086350770696299,,,,,,,,,,,,,,,,,,380,2023-11-16_09h43.18.340,leap3,2022.2.5,59.992647806616446,
,,,,,,,,,,,,,,,,,,,,0,0,0,0,23,0,23,0,,,,,,fonducts,nw,h,upper,,,,,,,1,nw,HiDemTar,h,1,0.7913154558336828,,,,,,,,,,,,,,,,,,380,2023-11-16_09h43.18.340,leap3,2022.2.5,59.992647806616446,
,,,,,,,,,,,,,,,,,,,,0,0,0,0,24,0,24,0,,,,,,cutout,w,g,upper,,,,,,,1,nw,HiDemTar,g,1,0.6306813871051418,,,,,,,,,,,,,,,,,,380,2023-11-16_09h43.18.340,leap3,2022.2.5,59.992647806616446,
,,,,,,,,,,,,,,,,,,,,0,0,0,0,25,0,25,0,,,,,,slutches,nw,h,upper,,,,,,,1,w,HiDemTar,h,1,1.1887874515959993,,,,,,,,,,,,,,,,,,380,2023-11-16_09h43.18.340,leap3,2022.2.5,59.992647806616446,
,,,,,,,,,,,,,,,,,,,,0,0,0,0,26,0,26,0,,,,,,landing,w,g,upper,,,,,,,1,nw,HiDemTar,g,1,0.8120973109616898,,,,,,,,,,,,,,,,,,380,2023-11-16_09h43.18.340,leap3,2022.2.5,59.992647806616446,
,,,,,,,,,,,,,,,,,,,,0,0,0,0,27,0,27,0,,,,,,mineluyer,nw,h,upper,,,,,,,1,w,HiDemTar,h,1,0.9628294511785498,,,,,,,,,,,,,,,,,,380,2023-11-16_09h43.18.340,leap3,2022.2.5,59.992647806616446,
,,,,,,,,,,,,,,,,,,,,0,0,0,0,28,0,28,0,,,,,,bullet,w,g,upper,,,,,,,1,nw,HiDemTar,g,1,0.7065344942093361,,,,,,,,,,,,,,,,,,380,2023-11-16_09h43.18.340,leap3,2022.2.5,59.992647806616446,
,,,,,,,,,,,,,,,,,,,,0,0,0,0,29,0,29,0,,,,,,schinter,nw,h,upper,,,,,,,1,w,HiDemTar,h,1,0.7172287822613725,,,,,,,,,,,,,,,,,,380,2023-11-16_09h43.18.340,leap3,2022.2.5,59.992647806616446,
,,,,,,,,,,,,,,,,,,,,0,0,0,0,,,,,,,,,,,,,,,,,,,,,,,,,,,1,,,,,,,,,,,,,,,,380,2023-11-16_09h43.18.340,leap3,2022.2.5,59.992647806616446,
,,,,,,,,,,,,,,,,,,,,1,0,1,0,0,0,0,0,,,,,,oppose,w,g,upper,,,,,,,1,w,HiDemTar,g,1,0.679261026030872,,,,,,,,,,,,,,,,,,380,2023-11-16_09h43.18.340,leap3,2022.2.5,59.992647806616446,
,,,,,,,,,,,,,,,,,,,,1,0,1,0,1,0,1,0,,,,,,erithets,nw,h,upper,,,,,,,1,nw,HiDemTar,h,1,0.6992870456015225,,,,,,,,,,,,,,,,,,380,2023-11-16_09h43.18.340,leap3,2022.2.5,59.992647806616446,
,,,,,,,,,,,,,,,,,,,,1,0,1,0,2,0,2,0,,,,,,potatoes,w,g,upper,,,,,,,1,w,HiDemTar,g,1,0.7345465924008749,,,,,,,,,,,,,,,,,,380,2023-11-16_09h43.18.340,leap3,2022.2.5,59.992647806616446,
,,,,,,,,,,,,,,,,,,,,1,0,1,0,3,0,3,0,,,,,,aggepting,nw,h,upper,,,,,,,1,nw,HiDemTar,h,1,0.7349293397855945,,,,,,,,,,,,,,,,,,380,2023-11-16_09h43.18.340,leap3,2022.2.5,59.992647806616446,
,,,,,,,,,,,,,,,,,,,,1,0,1,0,4,0,4,0,,,,,,warmer,w,g,upper,,,,,,,1,w,HiDemTar,g,1,0.8083700516872341,,,,,,,,,,,,,,,,,,380,2023-11-16_09h43.18.340,leap3,2022.2.5,59.992647806616446,
,,,,,,,,,,,,,,,,,,,,1,0,1,0,5,0,5,0,,,,,,joadbed,nw,h,upper,,,,,,,1,nw,HiDemTar,h,1,0.7738750940916361,,,,,,,,,,,,,,,,,,380,2023-11-16_09h43.18.340,leap3,2022.2.5,59.992647806616446,
,,,,,,,,,,,,,,,,,,,,1,0,1,0,6,0,6,0,,,,,,trecious,nw,h,upper,,,,,,,1,nw,HiDemTar,h,1,0.8933221629704349,,,,,,,,,,,,,,,,,,380,2023-11-16_09h43.18.340,leap3,2022.2.5,59.992647806616446,
,,,,,,,,,,,,,,,,,,,,1,0,1,0,7,0,7,0,,,,,,mamps,nw,h,upper,,,,,,,1,nw,HiDemTar,h,1,0.7858015389938373,,,,,,,,,,,,,,,,,,380,2023-11-16_09h43.18.340,leap3,2022.2.5,59.992647806616446,
,,,,,,,,,,,,,,,,,,,,1,0,1,0,8,0,8,0,,,,,,fuack,nw,h,upper,,,,,,,1,nw,HiDemTar,h,1,0.6898394032032229,,,,,,,,,,,,,,,,,,380,2023-11-16_09h43.18.340,leap3,2022.2.5,59.992647806616446,
,,,,,,,,,,,,,,,,,,,,1,0,1,0,9,0,9,0,,,,,,wrecber,nw,h,upper,,,,,,,1,nw,HiDemTar,h,1,0.8051665043167304,,,,,,,,,,,,,,,,,,380,2023-11-16_09h43.18.340,leap3,2022.2.5,59.992647806616446,
,,,,,,,,,,,,,,,,,,,,1,0,1,0,10,0,10,0,,,,,,octopus,target,q,upper,,,,,,,1,target,HiDemTar,q,1,0.9957919099397259,1,,,,,,,,,,,,,,,,,380,2023-11-16_09h43.18.340,leap3,2022.2.5,59.992647806616446,
,,,,,,,,,,,,,,,,,,,,1,0,1,0,11,0,11,0,,,,,,army,w,g,upper,,,,,,,1,aftertar1,HiDemTar,g,1,1.0582811564818257,,,,,,,,,,,,,,,,,,380,2023-11-16_09h43.18.340,leap3,2022.2.5,59.992647806616446,
,,,,,,,,,,,,,,,,,,,,1,0,1,0,12,0,12,0,,,,,,stalemate,w,g,upper,,,,,,,1,aftertar2,HiDemTar,h,0,1.0149117720575305,,,,,,,,,,,,,,,,,,380,2023-11-16_09h43.18.340,leap3,2022.2.5,59.992647806616446,
,,,,,,,,,,,,,,,,,,,,1,0,1,0,13,0,13,0,,,,,,roughly,w,g,upper,,,,,,,1,aftertar3,HiDemTar,g,1,0.7256130026944447,,,,,,,,,,,,,,,,,,380,2023-11-16_09h43.18.340,leap3,2022.2.5,59.992647806616446,
,,,,,,,,,,,,,,,,,,,,1,0,1,0,14,0,14,0,,,,,,dominion,w,g,upper,,,,,,,1,w,HiDemTar,g,1,1.4476925163617125,,,,,,,,,,,,,,,,,,380,2023-11-16_09h43.18.340,leap3,2022.2.5,59.992647806616446,
,,,,,,,,,,,,,,,,,,,,1,0,1,0,15,0,15,0,,,,,,gigoho,nw,h,upper,,,,,,,1,w,HiDemTar,h,1,0.7250394853181206,,,,,,,,,,,,,,,,,,380,2023-11-16_09h43.18.340,leap3,2022.2.5,59.992647806616446,
,,,,,,,,,,,,,,,,,,,,1,0,1,0,16,0,16,0,,,,,,cills,nw,h,upper,,,,,,,1,nw,HiDemTar,h,1,0.7911008396040415,,,,,,,,,,,,,,,,,,380,2023-11-16_09h43.18.340,leap3,2022.2.5,59.992647806616446,
,,,,,,,,,,,,,,,,,,,,1,0,1,0,17,0,17,0,,,,,,finstrel,nw,h,upper,,,,,,,1,nw,HiDemTar,h,1,0.74244936008472,,,,,,,,,,,,,,,,,,380,2023-11-16_09h43.18.340,leap3,2022.2.5,59.992647806616446,
,,,,,,,,,,,,,,,,,,,,1,0,1,0,18,0,18,0,,,,,,publish,w,g,upper,,,,,,,1,nw,HiDemTar,g,1,0.7598221071384614,,,,,,,,,,,,,,,,,,380,2023-11-16_09h43.18.340,leap3,2022.2.5,59.992647806616446,
,,,,,,,,,,,,,,,,,,,,1,0,1,0,19,0,19,0,,,,,,deficit,w,g,upper,,,,,,,1,w,HiDemTar,g,1,0.7524518050631741,,,,,,,,,,,,,,,,,,380,2023-11-16_09h43.18.340,leap3,2022.2.5,59.992647806616446,
,,,,,,,,,,,,,,,,,,,,1,0,1,0,20,0,20,0,,,,,,ready,w,g,upper,,,,,,,1,w,HiDemTar,g,1,0.6642469446524046,,,,,,,,,,,,,,,,,,380,2023-11-16_09h43.18.340,leap3,2022.2.5,59.992647806616446,
,,,,,,,,,,,,,,,,,,,,1,0,1,0,21,0,21,0,,,,,,enacted,w,g,upper,,,,,,,1,w,HiDemTar,g,1,0.6528671523992671,,,,,,,,,,,,,,,,,,380,2023-11-16_09h43.18.340,leap3,2022.2.5,59.992647806616446,
,,,,,,,,,,,,,,,,,,,,1,0,1,0,22,0,22,0,,,,,,gerby,nw,h,upper,,,,,,,1,w,HiDemTar,h,1,0.7855410413612844,,,,,,,,,,,,,,,,,,380,2023-11-16_09h43.18.340,leap3,2022.2.5,59.992647806616446,
,,,,,,,,,,,,,,,,,,,,1,0,1,0,23,0,23,0,,,,,,neuran,nw,h,upper,,,,,,,1,nw,HiDemTar,h,1,0.7129104982450372,,,,,,,,,,,,,,,,,,380,2023-11-16_09h43.18.340,leap3,2022.2.5,59.992647806616446,
,,,,,,,,,,,,,,,,,,,,1,0,1,0,24,0,24,0,,,,,,guitar,w,g,upper,,,,,,,1,nw,HiDemTar,g,1,1.0436528410209576,,,,,,,,,,,,,,,,,,380,2023-11-16_09h43.18.340,leap3,2022.2.5,59.992647806616446,
,,,,,,,,,,,,,,,,,,,,1,0,1,0,25,0,25,0,,,,,,sodent,nw,h,upper,,,,,,,1,w,HiDemTar,h,1,1.0490906913619256,,,,,,,,,,,,,,,,,,380,2023-11-16_09h43.18.340,leap3,2022.2.5,59.992647806616446,
,,,,,,,,,,,,,,,,,,,,1,0,1,0,26,0,26,0,,,,,,surface,w,g,upper,,,,,,,1,nw,HiDemTar,g,1,0.7264186436805176,,,,,,,,,,,,,,,,,,380,2023-11-16_09h43.18.340,leap3,2022.2.5,59.992647806616446,
,,,,,,,,,,,,,,,,,,,,1,0,1,0,27,0,27,0,,,,,,ascending,w,g,upper,,,,,,,1,w,HiDemTar,g,1,0.6804946920892689,,,,,,,,,,,,,,,,,,380,2023-11-16_09h43.18.340,leap3,2022.2.5,59.992647806616446,
,,,,,,,,,,,,,,,,,,,,1,0,1,0,28,0,28,0,,,,,,sopes,nw,h,upper,,,,,,,1,w,HiDemTar,h,1,0.6365101348055759,,,,,,,,,,,,,,,,,,380,2023-11-16_09h43.18.340,leap3,2022.2.5,59.992647806616446,
,,,,,,,,,,,,,,,,,,,,1,0,1,0,29,0,29,0,,,,,,hotplate,w,g,upper,,,,,,,1,nw,HiDemTar,g,1,0.663805034419056,,,,,,,,,,,,,,,,,,380,2023-11-16_09h43.18.340,leap3,2022.2.5,59.992647806616446,
,,,,,,,,,,,,,,,,,,,,1,0,1,0,,,,,,,,,,,,,,,,,,,,,,,,,,,1,,,,,,,,,,,,,,,,380,2023-11-16_09h43.18.340,leap3,2022.2.5,59.992647806616446,
,,,,,,,,,,,,,,,,,,,,2,0,2,0,0,0,0,0,,,,,,alticles,nw,h,lower,,,,,,,3,nw,LoDemNoTar,h,1,0.837557860504603,,,,,,,,,,,,,,,,,,380,2023-11-16_09h43.18.340,leap3,2022.2.5,59.992647806616446,
,,,,,,,,,,,,,,,,,,,,2,0,2,0,1,0,1,0,,,,,,egect,nw,h,lower,,,,,,,3,nw,LoDemNoTar,h,1,0.8908629808138357,,,,,,,,,,,,,,,,,,380,2023-11-16_09h43.18.340,leap3,2022.2.5,59.992647806616446,
,,,,,,,,,,,,,,,,,,,,2,0,2,0,2,0,2,0,,,,,,scatter,w,g,lower,,,,,,,3,w,LoDemNoTar,g,1,1.5094111366488505,,,,,,,,,,,,,,,,,,380,2023-11-16_09h43.18.340,leap3,2022.2.5,59.992647806616446,
,,,,,,,,,,,,,,,,,,,,2,0,2,0,3,0,3,0,,,,,,unspoken,w,g,lower,,,,,,,3,w,LoDemNoTar,g,1,1.3438919072214048,,,,,,,,,,,,,,,,,,380,2023-11-16_09h43.18.340,leap3,2022.2.5,59.992647806616446,
,,,,,,,,,,,,,,,,,,,,2,0,2,0,4,0,4,0,,,,,,cheathe,nw,h,lower,,,,,,,3,nw,LoDemNoTar,h,1,0.9532849145325599,,,,,,,,,,,,,,,,,,380,2023-11-16_09h43.18.340,leap3,2022.2.5,59.992647806616446,
,,,,,,,,,,,,,,,,,,,,2,0,2,0,5,0,5,0,,,,,,usually,w,g,lower,,,,,,,3,w,LoDemNoTar,g,1,0.6898710975947324,,,,,,,,,,,,,,,,,,380,2023-11-16_09h43.18.340,leap3,2022.2.5,59.992647806616446,
,,,,,,,,,,,,,,,,,,,,2,0,2,0,6,0,6,0,,,,,,walnut,w,g,lower,,,,,,,3,w,LoDemNoTar,g,1,1.3412639902089722,,,,,,,,,,,,,,,,,,380,2023-11-16_09h43.18.340,leap3,2022.2.5,59.992647806616446,
,,,,,,,,,,,,,,,,,,,,2,0,2,0,7,0,7,0,,,,,,urique,nw,h,lower,,,,,,,3,nw,LoDemNoTar,h,1,0.821177902224008,,,,,,,,,,,,,,,,,,380,2023-11-16_09h43.18.340,leap3,2022.2.5,59.992647806616446,
,,,,,,,,,,,,,,,,,,,,2,0,2,0,8,0,8,0,,,,,,halter,w,g,lower,,,,,,,3,w,LoDemNoTar,h,0,1.0206074033485493,,,,,,,,,,,,,,,,,,380,2023-11-16_09h43.18.340,leap3,2022.2.5,59.992647806616446,
,,,,,,,,,,,,,,,,,,,,2,0,2,0,9,0,9,0,,,,,,target,w,g,lower,,,,,,,3,w,LoDemNoTar,g,1,0.6985737710929243,,,,,,,,,,,,,,,,,,380,2023-11-16_09h43.18.340,leap3,2022.2.5,59.992647806616446,
,,,,,,,,,,,,,,,,,,,,2,0,2,0,10,0,10,0,,,,,,antwers,nw,h,lower,,,,,,,3,nw,LoDemNoTar,h,1,0.8210146007040748,,,,,,,,,,,,,,,,,,380,2023-11-16_09h43.18.340,leap3,2022.2.5,59.992647806616446,
,,,,,,,,,,,,,,,,,,,,2,0,2,0,11,0,11,0,,,,,,phraining,nw,h,lower,,,,,,,3,nw,LoDemNoTar,h,1,1.0268961723631946,,,,,,,,,,,,,,,,,,380,2023-11-16_09h43.18.340,leap3,2022.2.5,59.992647806616446,
,,,,,,,,,,,,,,,,,,,,2,0,2,0,12,0,12,0,,,,,,forgive,w,g,lower,,,,,,,3,w,LoDemNoTar,g,1,1.4888656310649822,,,,,,,,,,,,,,,,,,380,2023-11-16_09h43.18.340,leap3,2022.2.5,59.992647806616446,
,,,,,,,,,,,,,,,,,,,,2,0,2,0,13,0,13,0,,,,,,nollow,nw,h,lower,,,,,,,3,nw,LoDemNoTar,h,1,0.7242456165113254,,,,,,,,,,,,,,,,,,380,2023-11-16_09h43.18.340,leap3,2022.2.5,59.992647806616446,
,,,,,,,,,,,,,,,,,,,,2,0,2,0,14,0,14,0,,,,,,ements,nw,h,lower,,,,,,,3,nw,LoDemNoTar,h,1,0.6862304696114734,,,,,,,,,,,,,,,,,,380,2023-11-16_09h43.18.340,leap3,2022.2.5,59.992647806616446,
,,,,,,,,,,,,,,,,,,,,2,0,2,0,15,0,15,0,,,,,,slightly,w,g,lower,,,,,,,3,w,LoDemNoTar,g,1,0.6815336641157046,,,,,,,,,,,,,,,,,,380,2023-11-16_09h43.18.340,leap3,2022.2.5,59.992647806616446,
,,,,,,,,,,,,,,,,,,,,2,0,2,0,16,0,16,0,,,,,,treason,w,g,lower,,,,,,,3,w,LoDemNoTar,g,1,0.7655802216468146,,,,,,,,,,,,,,,,,,380,2023-11-16_09h43.18.340,leap3,2022.2.5,59.992647806616446,
,,,,,,,,,,,,,,,,,,,,2,0,2,0,17,0,17,0,,,,,,gunrunker,nw,h,lower,,,,,,,3,nw,LoDemNoTar,h,1,1.1092849628184922,,,,,,,,,,,,,,,,,,380,2023-11-16_09h43.18.340,leap3,2022.2.5,59.992647806616446,
,,,,,,,,,,,,,,,,,,,,2,0,2,0,18,0,18,0,,,,,,tapling,nw,h,lower,,,,,,,3,nw,LoDemNoTar,h,1,1.391972284167423,,,,,,,,,,,,,,,,,,380,2023-11-16_09h43.18.340,leap3,2022.2.5,59.992647806616446,
,,,,,,,,,,,,,,,,,,,,2,0,2,0,19,0,19,0,,,,,,bedding,w,g,lower,,,,,,,3,w,LoDemNoTar,g,1,0.8871462863171473,,,,,,,,,,,,,,,,,,380,2023-11-16_09h43.18.340,leap3,2022.2.5,59.992647806616446,
,,,,,,,,,,,,,,,,,,,,2,0,2,0,20,0,20,0,,,,,,recollect,w,g,lower,,,,,,,3,w,LoDemNoTar,g,1,0.7541853368165903,,,,,,,,,,,,,,,,,,380,2023-11-16_09h43.18.340,leap3,2022.2.5,59.992647806616446,
,,,,,,,,,,,,,,,,,,,,2,0,2,0,21,0,21,0,,,,,,compose,w,g,lower,,,,,,,3,w,LoDemNoTar,g,1,0.8035552223300328,,,,,,,,,,,,,,,,,,380,2023-11-16_09h43.18.340,leap3,2022.2.5,59.992647806616446,
,,,,,,,,,,,,,,,,,,,,2,0,2,0,22,0,22,0,,,,,,purport,w,g,lower,,,,,,,3,w,LoDemNoTar,h,0,0.8741377046972048,,,,,,,,,,,,,,,,,,380,2023-11-16_09h43.18.340,leap3,2022.2.5,59.992647806616446,
,,,,,,,,,,,,,,,,,,,,2,0,2,0,23,0,23,0,,,,,,pigned,nw,h,lower,,,,,,,3,nw,LoDemNoTar,h,1,0.8222337779006921,,,,,,,,,,,,,,,,,,380,2023-11-16_09h43.18.340,leap3,2022.2.5,59.992647806616446,
,,,,,,,,,,,,,,,,,,,,2,0,2,0,24,0,24,0,,,,,,fassed,nw,h,lower,,,,,,,3,nw,LoDemNoTar,h,1,0.8282792548270663,,,,,,,,,,,,,,,,,,380,2023-11-16_09h43.18.340,leap3,2022.2.5,59.992647806616446,
,,,,,,,,,,,,,,,,,,,,2,0,2,0,25,0,25,0,,,,,,burning,w,g,lower,,,,,,,3,w,LoDemNoTar,g,1,0.9703784491866827,,,,,,,,,,,,,,,,,,380,2023-11-16_09h43.18.340,leap3,2022.2.5,59.992647806616446,
,,,,,,,,,,,,,,,,,,,,2,0,2,0,26,0,26,0,,,,,,efficient,w,g,lower,,,,,,,3,w,LoDemNoTar,g,1,0.7215063163894229,,,,,,,,,,,,,,,,,,380,2023-11-16_09h43.18.340,leap3,2022.2.5,59.992647806616446,
,,,,,,,,,,,,,,,,,,,,2,0,2,0,27,0,27,0,,,,,,brimitar,nw,h,lower,,,,,,,3,nw,LoDemNoTar,h,1,0.7964620197162731,,,,,,,,,,,,,,,,,,380,2023-11-16_09h43.18.340,leap3,2022.2.5,59.992647806616446,
,,,,,,,,,,,,,,,,,,,,2,0,2,0,28,0,28,0,,,,,,unsmilung,nw,h,lower,,,,,,,3,nw,LoDemNoTar,h,1,0.7307019129802939,,,,,,,,,,,,,,,,,,380,2023-11-16_09h43.18.340,leap3,2022.2.5,59.992647806616446,
,,,,,,,,,,,,,,,,,,,,2,0,2,0,29,0,29,0,,,,,,nimp,nw,h,lower,,,,,,,3,nw,LoDemNoTar,h,1,1.0047466292162426,,,,,,,,,,,,,,,,,,380,2023-11-16_09h43.18.340,leap3,2022.2.5,59.992647806616446,
,,,,,,,,,,,,,,,,,,,,2,0,2,0,,,,,,,,,,,,,,,,,,,,,,,,,,,NA,,,,,,,,,,,,,,,,380,2023-11-16_09h43.18.340,leap3,2022.2.5,59.992647806616446,
,,,,,,,,,,,,,,,,,,,,3,0,3,0,0,0,0,0,,,,,,micron,w,g,lower,,,,,,,3,w,LoDemNoTar,h,0,0.6115219824714586,,,,,,,,,,,,,,,,,,380,2023-11-16_09h43.18.340,leap3,2022.2.5,59.992647806616446,
,,,,,,,,,,,,,,,,,,,,3,0,3,0,1,0,1,0,,,,,,goltish,nw,h,lower,,,,,,,3,nw,LoDemNoTar,h,1,0.7462342729559168,,,,,,,,,,,,,,,,,,380,2023-11-16_09h43.18.340,leap3,2022.2.5,59.992647806616446,
,,,,,,,,,,,,,,,,,,,,3,0,3,0,2,0,2,0,,,,,,quittint,nw,h,lower,,,,,,,3,nw,LoDemNoTar,h,1,0.6426748429657891,,,,,,,,,,,,,,,,,,380,2023-11-16_09h43.18.340,leap3,2022.2.5,59.992647806616446,
,,,,,,,,,,,,,,,,,,,,3,0,3,0,3,0,3,0,,,,,,glocked,nw,h,lower,,,,,,,3,nw,LoDemNoTar,h,1,1.4320904287451413,,,,,,,,,,,,,,,,,,380,2023-11-16_09h43.18.340,leap3,2022.2.5,59.992647806616446,
,,,,,,,,,,,,,,,,,,,,3,0,3,0,4,0,4,0,,,,,,sunshine,w,g,lower,,,,,,,3,w,LoDemNoTar,g,1,0.9821168407215737,,,,,,,,,,,,,,,,,,380,2023-11-16_09h43.18.340,leap3,2022.2.5,59.992647806616446,
,,,,,,,,,,,,,,,,,,,,3,0,3,0,5,0,5,0,,,,,,divider,w,g,lower,,,,,,,3,w,LoDemNoTar,g,1,0.5820999370625941,,,,,,,,,,,,,,,,,,380,2023-11-16_09h43.18.340,leap3,2022.2.5,59.992647806616446,
,,,,,,,,,,,,,,,,,,,,3,0,3,0,6,0,6,0,,,,,,potent,w,g,lower,,,,,,,3,w,LoDemNoTar,g,1,0.8780922579608159,,,,,,,,,,,,,,,,,,380,2023-11-16_09h43.18.340,leap3,2022.2.5,59.992647806616446,
,,,,,,,,,,,,,,,,,,,,3,0,3,0,7,0,7,0,,,,,,outrank,w,g,lower,,,,,,,3,w,LoDemNoTar,g,1,0.7770463433698751,,,,,,,,,,,,,,,,,,380,2023-11-16_09h43.18.340,leap3,2022.2.5,59.992647806616446,
,,,,,,,,,,,,,,,,,,,,3,0,3,0,8,0,8,0,,,,,,bailmenz,nw,h,lower,,,,,,,3,nw,LoDemNoTar,h,1,0.6615994073072216,,,,,,,,,,,,,,,,,,380,2023-11-16_09h43.18.340,leap3,2022.2.5,59.992647806616446,
,,,,,,,,,,,,,,,,,,,,3,0,3,0,9,0,9,0,,,,,,ensues,w,g,lower,,,,,,,3,w,LoDemNoTar,g,1,0.7174889780580997,,,,,,,,,,,,,,,,,,380,2023-11-16_09h43.18.340,leap3,2022.2.5,59.992647806616446,
,,,,,,,,,,,,,,,,,,,,3,0,3,0,10,0,10,0,,,,,,drobate,nw,h,lower,,,,,,,3,nw,LoDemNoTar,h,1,0.736112596699968,,,,,,,,,,,,,,,,,,380,2023-11-16_09h43.18.340,leap3,2022.2.5,59.992647806616446,
,,,,,,,,,,,,,,,,,,,,3,0,3,0,11,0,11,0,,,,,,brouhuha,nw,h,lower,,,,,,,3,nw,LoDemNoTar,h,1,0.721282946455176,,,,,,,,,,,,,,,,,,380,2023-11-16_09h43.18.340,leap3,2022.2.5,59.992647806616446,
,,,,,,,,,,,,,,,,,,,,3,0,3,0,12,0,12,0,,,,,,violate,w,g,lower,,,,,,,3,w,LoDemNoTar,g,1,0.6753067745885346,,,,,,,,,,,,,,,,,,380,2023-11-16_09h43.18.340,leap3,2022.2.5,59.992647806616446,
,,,,,,,,,,,,,,,,,,,,3,0,3,0,13,0,13,0,,,,,,pariah,w,g,lower,,,,,,,3,w,LoDemNoTar,h,0,0.9113556624361081,,,,,,,,,,,,,,,,,,380,2023-11-16_09h43.18.340,leap3,2022.2.5,59.992647806616446,
,,,,,,,,,,,,,,,,,,,,3,0,3,0,14,0,14,0,,,,,,ganter,nw,h,lower,,,,,,,3,nw,LoDemNoTar,h,1,0.833978508337168,,,,,,,,,,,,,,,,,,380,2023-11-16_09h43.18.340,leap3,2022.2.5,59.992647806616446,
,,,,,,,,,,,,,,,,,,,,3,0,3,0,15,0,15,0,,,,,,ausht,nw,h,lower,,,,,,,3,nw,LoDemNoTar,h,1,0.7993628102558432,,,,,,,,,,,,,,,,,,380,2023-11-16_09h43.18.340,leap3,2022.2.5,59.992647806616446,
,,,,,,,,,,,,,,,,,,,,3,0,3,0,16,0,16,0,,,,,,loneliest,w,g,lower,,,,,,,3,w,LoDemNoTar,g,1,0.798467519445694,,,,,,,,,,,,,,,,,,380,2023-11-16_09h43.18.340,leap3,2022.2.5,59.992647806616446,
,,,,,,,,,,,,,,,,,,,,3,0,3,0,17,0,17,0,,,,,,crudios,nw,h,lower,,,,,,,3,nw,LoDemNoTar,h,1,0.7421728643239476,,,,,,,,,,,,,,,,,,380,2023-11-16_09h43.18.340,leap3,2022.2.5,59.992647806616446,
,,,,,,,,,,,,,,,,,,,,3,0,3,0,18,0,18,0,,,,,,recipus,nw,h,lower,,,,,,,3,nw,LoDemNoTar,h,1,0.983492075043614,,,,,,,,,,,,,,,,,,380,2023-11-16_09h43.18.340,leap3,2022.2.5,59.992647806616446,
,,,,,,,,,,,,,,,,,,,,3,0,3,0,19,0,19,0,,,,,,cherry,w,g,lower,,,,,,,3,w,LoDemNoTar,g,1,0.8145021598902531,,,,,,,,,,,,,,,,,,380,2023-11-16_09h43.18.340,leap3,2022.2.5,59.992647806616446,
,,,,,,,,,,,,,,,,,,,,3,0,3,0,20,0,20,0,,,,,,reconcile,w,g,lower,,,,,,,3,w,LoDemNoTar,g,1,0.9811165056744358,,,,,,,,,,,,,,,,,,380,2023-11-16_09h43.18.340,leap3,2022.2.5,59.992647806616446,
,,,,,,,,,,,,,,,,,,,,3,0,3,0,21,0,21,0,,,,,,fudden,nw,h,lower,,,,,,,3,nw,LoDemNoTar,h,1,1.3332631208759267,,,,,,,,,,,,,,,,,,380,2023-11-16_09h43.18.340,leap3,2022.2.5,59.992647806616446,
,,,,,,,,,,,,,,,,,,,,3,0,3,0,22,0,22,0,,,,,,deakers,nw,h,lower,,,,,,,3,nw,LoDemNoTar,h,1,0.9672796442027902,,,,,,,,,,,,,,,,,,380,2023-11-16_09h43.18.340,leap3,2022.2.5,59.992647806616446,
,,,,,,,,,,,,,,,,,,,,3,0,3,0,23,0,23,0,,,,,,imprives,nw,h,lower,,,,,,,3,nw,LoDemNoTar,h,1,1.10338920414506,,,,,,,,,,,,,,,,,,380,2023-11-16_09h43.18.340,leap3,2022.2.5,59.992647806616446,
,,,,,,,,,,,,,,,,,,,,3,0,3,0,24,0,24,0,,,,,,inducing,w,g,lower,,,,,,,3,w,LoDemNoTar,g,1,1.2580254884815076,,,,,,,,,,,,,,,,,,380,2023-11-16_09h43.18.340,leap3,2022.2.5,59.992647806616446,
,,,,,,,,,,,,,,,,,,,,3,0,3,0,25,0,25,0,,,,,,leuter,nw,h,lower,,,,,,,3,nw,LoDemNoTar,h,1,0.8307257592241513,,,,,,,,,,,,,,,,,,380,2023-11-16_09h43.18.340,leap3,2022.2.5,59.992647806616446,
,,,,,,,,,,,,,,,,,,,,3,0,3,0,26,0,26,0,,,,,,efcorted,nw,h,lower,,,,,,,3,nw,LoDemNoTar,h,1,0.8518209359463071,,,,,,,,,,,,,,,,,,380,2023-11-16_09h43.18.340,leap3,2022.2.5,59.992647806616446,
,,,,,,,,,,,,,,,,,,,,3,0,3,0,27,0,27,0,,,,,,garment,w,g,lower,,,,,,,3,w,LoDemNoTar,g,1,1.1044755667971913,,,,,,,,,,,,,,,,,,380,2023-11-16_09h43.18.340,leap3,2022.2.5,59.992647806616446,
,,,,,,,,,,,,,,,,,,,,3,0,3,0,28,0,28,0,,,,,,arrival,w,g,lower,,,,,,,3,w,LoDemNoTar,g,1,0.7312129471538356,,,,,,,,,,,,,,,,,,380,2023-11-16_09h43.18.340,leap3,2022.2.5,59.992647806616446,
,,,,,,,,,,,,,,,,,,,,3,0,3,0,29,0,29,0,,,,,,shockwave,w,g,lower,,,,,,,3,w,LoDemNoTar,g,1,0.8292666102643125,,,,,,,,,,,,,,,,,,380,2023-11-16_09h43.18.340,leap3,2022.2.5,59.992647806616446,
,,,,,,,,,,,,,,,,,,,,3,0,3,0,,,,,,,,,,,,,,,,,,,,,,,,,,,NA,,,,,,,,,,,,,,,,380,2023-11-16_09h43.18.340,leap3,2022.2.5,59.992647806616446,
,,,,,,,,,,,,,,,,,,,,4,0,4,0,0,0,0,0,,,,,,expired,w,g,lower,,,,,,,3,w,LoDemNoTar,g,1,0.8002378770470386,,,,,,,,,,,,,,,,,,380,2023-11-16_09h43.18.340,leap3,2022.2.5,59.992647806616446,
,,,,,,,,,,,,,,,,,,,,4,0,4,0,1,0,1,0,,,,,,downtrund,nw,h,lower,,,,,,,3,nw,LoDemNoTar,h,1,0.7291214198194211,,,,,,,,,,,,,,,,,,380,2023-11-16_09h43.18.340,leap3,2022.2.5,59.992647806616446,
,,,,,,,,,,,,,,,,,,,,4,0,4,0,2,0,2,0,,,,,,yellep,nw,h,lower,,,,,,,3,nw,LoDemNoTar,h,1,0.7790518430992961,,,,,,,,,,,,,,,,,,380,2023-11-16_09h43.18.340,leap3,2022.2.5,59.992647806616446,
,,,,,,,,,,,,,,,,,,,,4,0,4,0,3,0,3,0,,,,,,caution,w,g,lower,,,,,,,3,w,LoDemNoTar,g,1,0.8031763990002219,,,,,,,,,,,,,,,,,,380,2023-11-16_09h43.18.340,leap3,2022.2.5,59.992647806616446,
,,,,,,,,,,,,,,,,,,,,4,0,4,0,4,0,4,0,,,,,,hemoter,nw,h,lower,,,,,,,3,nw,LoDemNoTar,h,1,0.7458183219132479,,,,,,,,,,,,,,,,,,380,2023-11-16_09h43.18.340,leap3,2022.2.5,59.992647806616446,
,,,,,,,,,,,,,,,,,,,,4,0,4,0,5,0,5,0,,,,,,twarfs,nw,h,lower,,,,,,,3,nw,LoDemNoTar,h,1,0.7472161950718146,,,,,,,,,,,,,,,,,,380,2023-11-16_09h43.18.340,leap3,2022.2.5,59.992647806616446,
,,,,,,,,,,,,,,,,,,,,4,0,4,0,6,0,6,0,,,,,,retona,nw,h,lower,,,,,,,3,nw,LoDemNoTar,h,1,1.1405920693068765,,,,,,,,,,,,,,,,,,380,2023-11-16_09h43.18.340,leap3,2022.2.5,59.992647806616446,
,,,,,,,,,,,,,,,,,,,,4,0,4,0,7,0,7,0,,,,,,markot,nw,h,lower,,,,,,,3,nw,LoDemNoTar,h,1,0.6779688008100493,,,,,,,,,,,,,,,,,,380,2023-11-16_09h43.18.340,leap3,2022.2.5,59.992647806616446,
,,,,,,,,,,,,,,,,,,,,4,0,4,0,8,0,8,0,,,,,,forgery,w,g,lower,,,,,,,3,w,LoDemNoTar,g,1,1.866047789240838,,,,,,,,,,,,,,,,,,380,2023-11-16_09h43.18.340,leap3,2022.2.5,59.992647806616446,
,,,,,,,,,,,,,,,,,,,,4,0,4,0,9,0,9,0,,,,,,crimb,nw,h,lower,,,,,,,3,nw,LoDemNoTar,h,1,0.7657133380416781,,,,,,,,,,,,,,,,,,380,2023-11-16_09h43.18.340,leap3,2022.2.5,59.992647806616446,
,,,,,,,,,,,,,,,,,,,,4,0,4,0,10,0,10,0,,,,,,intended,w,g,lower,,,,,,,3,w,LoDemNoTar,g,1,0.6783953166304855,,,,,,,,,,,,,,,,,,380,2023-11-16_09h43.18.340,leap3,2022.2.5,59.992647806616446,
,,,,,,,,,,,,,,,,,,,,4,0,4,0,11,0,11,0,,,,,,surdens,nw,h,lower,,,,,,,3,nw,LoDemNoTar,h,1,0.7784221813926706,,,,,,,,,,,,,,,,,,380,2023-11-16_09h43.18.340,leap3,2022.2.5,59.992647806616446,
,,,,,,,,,,,,,,,,,,,,4,0,4,0,12,0,12,0,,,,,,relaying,w,g,lower,,,,,,,3,w,LoDemNoTar,g,1,0.8104658049269347,,,,,,,,,,,,,,,,,,380,2023-11-16_09h43.18.340,leap3,2022.2.5,59.992647806616446,
,,,,,,,,,,,,,,,,,,,,4,0,4,0,13,0,13,0,,,,,,mopping,w,g,lower,,,,,,,3,w,LoDemNoTar,h,0,0.6971215647063218,,,,,,,,,,,,,,,,,,380,2023-11-16_09h43.18.340,leap3,2022.2.5,59.992647806616446,
,,,,,,,,,,,,,,,,,,,,4,0,4,0,14,0,14,0,,,,,,poughest,nw,h,lower,,,,,,,3,nw,LoDemNoTar,h,1,0.7964861678192392,,,,,,,,,,,,,,,,,,380,2023-11-16_09h43.18.340,leap3,2022.2.5,59.992647806616446,
,,,,,,,,,,,,,,,,,,,,4,0,4,0,15,0,15,0,,,,,,shamrock,w,g,lower,,,,,,,3,w,LoDemNoTar,g,1,0.8438623257970903,,,,,,,,,,,,,,,,,,380,2023-11-16_09h43.18.340,leap3,2022.2.5,59.992647806616446,
,,,,,,,,,,,,,,,,,,,,4,0,4,0,16,0,16,0,,,,,,axis,w,g,lower,,,,,,,3,w,LoDemNoTar,g,1,0.6011941418255446,,,,,,,,,,,,,,,,,,380,2023-11-16_09h43.18.340,leap3,2022.2.5,59.992647806616446,
,,,,,,,,,,,,,,,,,,,,4,0,4,0,17,0,17,0,,,,,,moisture,w,g,lower,,,,,,,3,w,LoDemNoTar,g,1,0.6958863893669331,,,,,,,,,,,,,,,,,,380,2023-11-16_09h43.18.340,leap3,2022.2.5,59.992647806616446,
,,,,,,,,,,,,,,,,,,,,4,0,4,0,18,0,18,0,,,,,,dredigest,nw,h,lower,,,,,,,3,nw,LoDemNoTar,h,1,0.7783397759922082,,,,,,,,,,,,,,,,,,380,2023-11-16_09h43.18.340,leap3,2022.2.5,59.992647806616446,
,,,,,,,,,,,,,,,,,,,,4,0,4,0,19,0,19,0,,,,,,aicline,nw,h,lower,,,,,,,3,nw,LoDemNoTar,h,1,1.3382454776583472,,,,,,,,,,,,,,,,,,380,2023-11-16_09h43.18.340,leap3,2022.2.5,59.992647806616446,
,,,,,,,,,,,,,,,,,,,,4,0,4,0,20,0,20,0,,,,,,tinker,w,g,lower,,,,,,,3,w,LoDemNoTar,g,1,0.6583484693110222,,,,,,,,,,,,,,,,,,380,2023-11-16_09h43.18.340,leap3,2022.2.5,59.992647806616446,
,,,,,,,,,,,,,,,,,,,,4,0,4,0,21,0,21,0,,,,,,govern,w,g,lower,,,,,,,3,w,LoDemNoTar,g,1,0.8389765613974305,,,,,,,,,,,,,,,,,,380,2023-11-16_09h43.18.340,leap3,2022.2.5,59.992647806616446,
,,,,,,,,,,,,,,,,,,,,4,0,4,0,22,0,22,0,,,,,,snorls,nw,h,lower,,,,,,,3,nw,LoDemNoTar,h,1,0.8610944101674249,,,,,,,,,,,,,,,,,,380,2023-11-16_09h43.18.340,leap3,2022.2.5,59.992647806616446,
,,,,,,,,,,,,,,,,,,,,4,0,4,0,23,0,23,0,,,,,,chight,nw,h,lower,,,,,,,3,nw,LoDemNoTar,h,1,1.8182731876004254,,,,,,,,,,,,,,,,,,380,2023-11-16_09h43.18.340,leap3,2022.2.5,59.992647806616446,
,,,,,,,,,,,,,,,,,,,,4,0,4,0,24,0,24,0,,,,,,brimitive,nw,h,lower,,,,,,,3,nw,LoDemNoTar,h,1,0.880312373948982,,,,,,,,,,,,,,,,,,380,2023-11-16_09h43.18.340,leap3,2022.2.5,59.992647806616446,
,,,,,,,,,,,,,,,,,,,,4,0,4,0,25,0,25,0,,,,,,heaviest,w,g,lower,,,,,,,3,w,LoDemNoTar,g,1,0.6752524413750507,,,,,,,,,,,,,,,,,,380,2023-11-16_09h43.18.340,leap3,2022.2.5,59.992647806616446,
,,,,,,,,,,,,,,,,,,,,4,0,4,0,26,0,26,0,,,,,,chraps,nw,h,lower,,,,,,,3,nw,LoDemNoTar,h,1,0.7833794845355442,,,,,,,,,,,,,,,,,,380,2023-11-16_09h43.18.340,leap3,2022.2.5,59.992647806616446,
,,,,,,,,,,,,,,,,,,,,4,0,4,0,27,0,27,0,,,,,,phonology,w,g,lower,,,,,,,3,w,LoDemNoTar,h,0,1.1590647623379482,,,,,,,,,,,,,,,,,,380,2023-11-16_09h43.18.340,leap3,2022.2.5,59.992647806616446,
,,,,,,,,,,,,,,,,,,,,4,0,4,0,28,0,28,0,,,,,,rodeo,w,g,lower,,,,,,,3,w,LoDemNoTar,g,1,0.7439471459947526,,,,,,,,,,,,,,,,,,380,2023-11-16_09h43.18.340,leap3,2022.2.5,59.992647806616446,
,,,,,,,,,,,,,,,,,,,,4,0,4,0,29,0,29,0,,,,,,graveyard,w,g,lower,,,,,,,3,w,LoDemNoTar,g,1,0.6653487017320003,,,,,,,,,,,,,,,,,,380,2023-11-16_09h43.18.340,leap3,2022.2.5,59.992647806616446,
,,,,,,,,,,,,,,,,,,,,4,0,4,0,,,,,,,,,,,,,,,,,,,,,,,,,,,NA,,,,,,,,,,,,,,,,380,2023-11-16_09h43.18.340,leap3,2022.2.5,59.992647806616446,
,,,,,,,,,,,,,,,,,,,,5,0,5,0,0,0,0,0,,,,,,suddenly,w,g,lower,,,,,,,3,w,LoDemNoTar,g,1,0.6851930068660295,,,,,,,,,,,,,,,,,,380,2023-11-16_09h43.18.340,leap3,2022.2.5,59.992647806616446,
,,,,,,,,,,,,,,,,,,,,5,0,5,0,1,0,1,0,,,,,,infusion,w,g,lower,,,,,,,3,w,LoDemNoTar,g,1,0.6085608216671972,,,,,,,,,,,,,,,,,,380,2023-11-16_09h43.18.340,leap3,2022.2.5,59.992647806616446,
,,,,,,,,,,,,,,,,,,,,5,0,5,0,2,0,2,0,,,,,,buzzer,w,g,lower,,,,,,,3,w,LoDemNoTar,g,1,0.7032847636146471,,,,,,,,,,,,,,,,,,380,2023-11-16_09h43.18.340,leap3,2022.2.5,59.992647806616446,
,,,,,,,,,,,,,,,,,,,,5,0,5,0,3,0,3,0,,,,,,corg,nw,h,lower,,,,,,,3,nw,LoDemNoTar,h,1,0.8899033956840867,,,,,,,,,,,,,,,,,,380,2023-11-16_09h43.18.340,leap3,2022.2.5,59.992647806616446,
,,,,,,,,,,,,,,,,,,,,5,0,5,0,4,0,4,0,,,,,,gigglod,nw,h,lower,,,,,,,3,nw,LoDemNoTar,h,1,0.7733166692778468,,,,,,,,,,,,,,,,,,380,2023-11-16_09h43.18.340,leap3,2022.2.5,59.992647806616446,
,,,,,,,,,,,,,,,,,,,,5,0,5,0,5,0,5,0,,,,,,flacked,nw,h,lower,,,,,,,3,nw,LoDemNoTar,g,0,1.173367380280979,,,,,,,,,,,,,,,,,,380,2023-11-16_09h43.18.340,leap3,2022.2.5,59.992647806616446,
,,,,,,,,,,,,,,,,,,,,5,0,5,0,6,0,6,0,,,,,,noblest,w,g,lower,,,,,,,3,w,LoDemNoTar,g,1,0.6693895844800863,,,,,,,,,,,,,,,,,,380,2023-11-16_09h43.18.340,leap3,2022.2.5,59.992647806616446,
,,,,,,,,,,,,,,,,,,,,5,0,5,0,7,0,7,0,,,,,,fillings,w,g,lower,,,,,,,3,w,LoDemNoTar,g,1,0.7694424084329512,,,,,,,,,,,,,,,,,,380,2023-11-16_09h43.18.340,leap3,2022.2.5,59.992647806616446,
,,,,,,,,,,,,,,,,,,,,5,0,5,0,8,0,8,0,,,,,,misobeyed,nw,h,lower,,,,,,,3,nw,LoDemNoTar,g,0,0.7605387020012131,,,,,,,,,,,,,,,,,,380,2023-11-16_09h43.18.340,leap3,2022.2.5,59.992647806616446,
,,,,,,,,,,,,,,,,,,,,5,0,5,0,9,0,9,0,,,,,,withep,nw,h,lower,,,,,,,3,nw,LoDemNoTar,h,1,0.7611762118613115,,,,,,,,,,,,,,,,,,380,2023-11-16_09h43.18.340,leap3,2022.2.5,59.992647806616446,
,,,,,,,,,,,,,,,,,,,,5,0,5,0,10,0,10,0,,,,,,companion,w,g,lower,,,,,,,3,w,LoDemNoTar,g,1,0.880773300799774,,,,,,,,,,,,,,,,,,380,2023-11-16_09h43.18.340,leap3,2022.2.5,59.992647806616446,
,,,,,,,,,,,,,,,,,,,,5,0,5,0,11,0,11,0,,,,,,become,w,g,lower,,,,,,,3,w,LoDemNoTar,g,1,0.8609259771619691,,,,,,,,,,,,,,,,,,380,2023-11-16_09h43.18.340,leap3,2022.2.5,59.992647806616446,
,,,,,,,,,,,,,,,,,,,,5,0,5,0,12,0,12,0,,,,,,parent,w,g,lower,,,,,,,3,w,LoDemNoTar,g,1,1.2662787054578075,,,,,,,,,,,,,,,,,,380,2023-11-16_09h43.18.340,leap3,2022.2.5,59.992647806616446,
,,,,,,,,,,,,,,,,,,,,5,0,5,0,13,0,13,0,,,,,,earterner,nw,h,lower,,,,,,,3,nw,LoDemNoTar,h,1,0.8552892068546498,,,,,,,,,,,,,,,,,,380,2023-11-16_09h43.18.340,leap3,2022.2.5,59.992647806616446,
,,,,,,,,,,,,,,,,,,,,5,0,5,0,14,0,14,0,,,,,,forbid,w,g,lower,,,,,,,3,w,LoDemNoTar,g,1,1.1478917381900828,,,,,,,,,,,,,,,,,,380,2023-11-16_09h43.18.340,leap3,2022.2.5,59.992647806616446,
,,,,,,,,,,,,,,,,,,,,5,0,5,0,15,0,15,0,,,,,,tining,nw,h,lower,,,,,,,3,nw,LoDemNoTar,h,1,0.860458711424144,,,,,,,,,,,,,,,,,,380,2023-11-16_09h43.18.340,leap3,2022.2.5,59.992647806616446,
,,,,,,,,,,,,,,,,,,,,5,0,5,0,16,0,16,0,,,,,,bamps,nw,h,lower,,,,,,,3,nw,LoDemNoTar,h,1,1.4890195752086584,,,,,,,,,,,,,,,,,,380,2023-11-16_09h43.18.340,leap3,2022.2.5,59.992647806616446,
,,,,,,,,,,,,,,,,,,,,5,0,5,0,17,0,17,0,,,,,,ignore,w,g,lower,,,,,,,3,w,LoDemNoTar,g,1,0.6523410256631905,,,,,,,,,,,,,,,,,,380,2023-11-16_09h43.18.340,leap3,2022.2.5,59.992647806616446,
,,,,,,,,,,,,,,,,,,,,5,0,5,0,18,0,18,0,,,,,,wienegs,nw,h,lower,,,,,,,3,nw,LoDemNoTar,h,1,0.7531436481513083,,,,,,,,,,,,,,,,,,380,2023-11-16_09h43.18.340,leap3,2022.2.5,59.992647806616446,
,,,,,,,,,,,,,,,,,,,,5,0,5,0,19,0,19,0,,,,,,troven,nw,h,lower,,,,,,,3,nw,LoDemNoTar,h,1,1.24983203804004,,,,,,,,,,,,,,,,,,380,2023-11-16_09h43.18.340,leap3,2022.2.5,59.992647806616446,
,,,,,,,,,,,,,,,,,,,,5,0,5,0,20,0,20,0,,,,,,irfirm,nw,h,lower,,,,,,,3,nw,LoDemNoTar,g,0,0.687200317697716,,,,,,,,,,,,,,,,,,380,2023-11-16_09h43.18.340,leap3,2022.2.5,59.992647806616446,
,,,,,,,,,,,,,,,,,,,,5,0,5,0,21,0,21,0,,,,,,sputter,w,g,lower,,,,,,,3,w,LoDemNoTar,g,1,1.3145679634617409,,,,,,,,,,,,,,,,,,380,2023-11-16_09h43.18.340,leap3,2022.2.5,59.992647806616446,
,,,,,,,,,,,,,,,,,,,,5,0,5,0,22,0,22,0,,,,,,ilcurring,nw,h,lower,,,,,,,3,nw,LoDemNoTar,h,1,0.7492552002950106,,,,,,,,,,,,,,,,,,380,2023-11-16_09h43.18.340,leap3,2022.2.5,59.992647806616446,
,,,,,,,,,,,,,,,,,,,,5,0,5,0,23,0,23,0,,,,,,eyesight,w,g,lower,,,,,,,3,w,LoDemNoTar,g,1,0.7825696176150814,,,,,,,,,,,,,,,,,,380,2023-11-16_09h43.18.340,leap3,2022.2.5,59.992647806616446,
,,,,,,,,,,,,,,,,,,,,5,0,5,0,24,0,24,0,,,,,,sength,nw,h,lower,,,,,,,3,nw,LoDemNoTar,h,1,0.8376188344554976,,,,,,,,,,,,,,,,,,380,2023-11-16_09h43.18.340,leap3,2022.2.5,59.992647806616446,
,,,,,,,,,,,,,,,,,,,,5,0,5,0,25,0,25,0,,,,,,module,w,g,lower,,,,,,,3,w,LoDemNoTar,g,1,0.7469261160149472,,,,,,,,,,,,,,,,,,380,2023-11-16_09h43.18.340,leap3,2022.2.5,59.992647806616446,
,,,,,,,,,,,,,,,,,,,,5,0,5,0,26,0,26,0,,,,,,rationale,w,g,lower,,,,,,,3,w,LoDemNoTar,g,1,0.7082653092948021,,,,,,,,,,,,,,,,,,380,2023-11-16_09h43.18.340,leap3,2022.2.5,59.992647806616446,
,,,,,,,,,,,,,,,,,,,,5,0,5,0,27,0,27,0,,,,,,duries,nw,h,lower,,,,,,,3,nw,LoDemNoTar,h,1,0.6630307859595632,,,,,,,,,,,,,,,,,,380,2023-11-16_09h43.18.340,leap3,2022.2.5,59.992647806616446,
,,,,,,,,,,,,,,,,,,,,5,0,5,0,28,0,28,0,,,,,,subpoena,w,g,lower,,,,,,,3,w,LoDemNoTar,g,1,0.7476786312035983,,,,,,,,,,,,,,,,,,380,2023-11-16_09h43.18.340,leap3,2022.2.5,59.992647806616446,
,,,,,,,,,,,,,,,,,,,,5,0,5,0,29,0,29,0,,,,,,smallash,nw,h,lower,,,,,,,3,nw,LoDemNoTar,h,1,1.2771233154344372,,,,,,,,,,,,,,,,,,380,2023-11-16_09h43.18.340,leap3,2022.2.5,59.992647806616446,
,,,,,,,,,,,,,,,,,,,,5,0,5,0,,,,,,,,,,,,,,,,,,,,,,,,,,,NA,,,,,,,,,,,,,,,,380,2023-11-16_09h43.18.340,leap3,2022.2.5,59.992647806616446,
,,,,,,,,,,,,,,,,,,,,6,0,6,0,0,0,0,0,,,,,,gensions,nw,h,upper,,,,,,,1,nw,HiDemTar,h,1,0.7438919072155841,,,,,,,,,,,,,,,,,,380,2023-11-16_09h43.18.340,leap3,2022.2.5,59.992647806616446,
,,,,,,,,,,,,,,,,,,,,6,0,6,0,1,0,1,0,,,,,,sequence,w,g,upper,,,,,,,1,w,HiDemTar,g,1,1.5212971334694885,,,,,,,,,,,,,,,,,,380,2023-11-16_09h43.18.340,leap3,2022.2.5,59.992647806616446,
,,,,,,,,,,,,,,,,,,,,6,0,6,0,2,0,2,0,,,,,,bulmed,nw,h,upper,,,,,,,1,nw,HiDemTar,h,1,0.6756671850016573,,,,,,,,,,,,,,,,,,380,2023-11-16_09h43.18.340,leap3,2022.2.5,59.992647806616446,
,,,,,,,,,,,,,,,,,,,,6,0,6,0,3,0,3,0,,,,,,lanthers,nw,h,upper,,,,,,,1,nw,HiDemTar,h,1,0.5915237332083052,,,,,,,,,,,,,,,,,,380,2023-11-16_09h43.18.340,leap3,2022.2.5,59.992647806616446,
,,,,,,,,,,,,,,,,,,,,6,0,6,0,4,0,4,0,,,,,,porghum,nw,h,upper,,,,,,,1,nw,HiDemTar,h,1,0.6628780492173973,,,,,,,,,,,,,,,,,,380,2023-11-16_09h43.18.340,leap3,2022.2.5,59.992647806616446,
,,,,,,,,,,,,,,,,,,,,6,0,6,0,5,0,5,0,,,,,,entropy,w,g,upper,,,,,,,1,w,HiDemTar,g,1,0.8989435388793936,,,,,,,,,,,,,,,,,,380,2023-11-16_09h43.18.340,leap3,2022.2.5,59.992647806616446,
,,,,,,,,,,,,,,,,,,,,6,0,6,0,6,0,6,0,,,,,,cegalia,nw,h,upper,,,,,,,1,nw,HiDemTar,h,1,0.7496201384492451,,,,,,,,,,,,,,,,,,380,2023-11-16_09h43.18.340,leap3,2022.2.5,59.992647806616446,
,,,,,,,,,,,,,,,,,,,,6,0,6,0,7,0,7,0,,,,,,system,w,g,upper,,,,,,,1,w,HiDemTar,g,1,0.7269263574999059,,,,,,,,,,,,,,,,,,380,2023-11-16_09h43.18.340,leap3,2022.2.5,59.992647806616446,
,,,,,,,,,,,,,,,,,,,,6,0,6,0,8,0,8,0,,,,,,trallion,nw,h,upper,,,,,,,1,nw,HiDemTar,h,1,0.9440214014030062,,,,,,,,,,,,,,,,,,380,2023-11-16_09h43.18.340,leap3,2022.2.5,59.992647806616446,
,,,,,,,,,,,,,,,,,,,,6,0,6,0,9,0,9,0,,,,,,brighten,w,g,upper,,,,,,,1,w,HiDemTar,g,1,0.8092671535996487,,,,,,,,,,,,,,,,,,380,2023-11-16_09h43.18.340,leap3,2022.2.5,59.992647806616446,
,,,,,,,,,,,,,,,,,,,,6,0,6,0,10,0,10,0,,,,,,clume,nw,h,upper,,,,,,,1,nw,HiDemTar,h,1,0.7200027952931123,,,,,,,,,,,,,,,,,,380,2023-11-16_09h43.18.340,leap3,2022.2.5,59.992647806616446,
,,,,,,,,,,,,,,,,,,,,6,0,6,0,11,0,11,0,,,,,,filny,nw,h,upper,,,,,,,1,nw,HiDemTar,h,1,1.1140357997064712,,,,,,,,,,,,,,,,,,380,2023-11-16_09h43.18.340,leap3,2022.2.5,59.992647806616446,
,,,,,,,,,,,,,,,,,,,,6,0,6,0,12,0,12,0,,,,,,fomes,nw,h,upper,,,,,,,1,nw,HiDemTar,h,1,0.7406802098703338,,,,,,,,,,,,,,,,,,380,2023-11-16_09h43.18.340,leap3,2022.2.5,59.992647806616446,
,,,,,,,,,,,,,,,,,,,,6,0,6,0,13,0,13,0,,,,,,latpin,nw,h,upper,,,,,,,1,nw,HiDemTar,h,1,0.9420952885557199,,,,,,,,,,,,,,,,,,380,2023-11-16_09h43.18.340,leap3,2022.2.5,59.992647806616446,
,,,,,,,,,,,,,,,,,,,,6,0,6,0,14,0,14,0,,,,,,antique,w,g,upper,,,,,,,1,w,HiDemTar,g,1,1.0626749033253873,,,,,,,,,,,,,,,,,,380,2023-11-16_09h43.18.340,leap3,2022.2.5,59.992647806616446,
,,,,,,,,,,,,,,,,,,,,6,0,6,0,15,0,15,0,,,,,,computer,w,g,upper,,,,,,,1,w,HiDemTar,g,1,0.7721699363755761,,,,,,,,,,,,,,,,,,380,2023-11-16_09h43.18.340,leap3,2022.2.5,59.992647806616446,
,,,,,,,,,,,,,,,,,,,,6,0,6,0,16,0,16,0,,,,,,company,w,g,upper,,,,,,,1,w,HiDemTar,g,1,0.7152278103021672,,,,,,,,,,,,,,,,,,380,2023-11-16_09h43.18.340,leap3,2022.2.5,59.992647806616446,
,,,,,,,,,,,,,,,,,,,,6,0,6,0,17,0,17,0,,,,,,unversed,w,g,upper,,,,,,,1,w,HiDemTar,h,0,0.7658862988173496,,,,,,,,,,,,,,,,,,380,2023-11-16_09h43.18.340,leap3,2022.2.5,59.992647806616446,
,,,,,,,,,,,,,,,,,,,,6,0,6,0,18,0,18,0,,,,,,ordinary,w,g,upper,,,,,,,1,w,HiDemTar,g,1,0.7185303648730041,,,,,,,,,,,,,,,,,,380,2023-11-16_09h43.18.340,leap3,2022.2.5,59.992647806616446,
,,,,,,,,,,,,,,,,,,,,6,0,6,0,19,0,19,0,,,,,,widely,w,g,upper,,,,,,,1,w,HiDemTar,g,1,0.5925756848155288,,,,,,,,,,,,,,,,,,380,2023-11-16_09h43.18.340,leap3,2022.2.5,59.992647806616446,
,,,,,,,,,,,,,,,,,,,,6,0,6,0,20,0,20,0,,,,,,plashed,nw,h,upper,,,,,,,1,nw,HiDemTar,h,1,0.7519320172141306,,,,,,,,,,,,,,,,,,380,2023-11-16_09h43.18.340,leap3,2022.2.5,59.992647806616446,
,,,,,,,,,,,,,,,,,,,,6,0,6,0,21,0,21,0,,,,,,veirs,nw,h,upper,,,,,,,1,nw,HiDemTar,h,1,0.8327188830589876,,,,,,,,,,,,,,,,,,380,2023-11-16_09h43.18.340,leap3,2022.2.5,59.992647806616446,
,,,,,,,,,,,,,,,,,,,,6,0,6,0,22,0,22,0,,,,,,preight,nw,h,upper,,,,,,,1,nw,HiDemTar,h,1,0.7807618304505013,,,,,,,,,,,,,,,,,,380,2023-11-16_09h43.18.340,leap3,2022.2.5,59.992647806616446,
,,,,,,,,,,,,,,,,,,,,6,0,6,0,23,0,23,0,,,,,,awful,w,g,upper,,,,,,,1,w,HiDemTar,g,1,0.8201851134508615,,,,,,,,,,,,,,,,,,380,2023-11-16_09h43.18.340,leap3,2022.2.5,59.992647806616446,
,,,,,,,,,,,,,,,,,,,,6,0,6,0,24,0,24,0,,,,,,flieves,nw,h,upper,,,,,,,1,nw,HiDemTar,h,1,0.7049989768711384,,,,,,,,,,,,,,,,,,380,2023-11-16_09h43.18.340,leap3,2022.2.5,59.992647806616446,
,,,,,,,,,,,,,,,,,,,,6,0,6,0,25,0,25,0,,,,,,togglo,nw,h,upper,,,,,,,1,nw,HiDemTar,h,1,0.9155885225627571,,,,,,,,,,,,,,,,,,380,2023-11-16_09h43.18.340,leap3,2022.2.5,59.992647806616446,
,,,,,,,,,,,,,,,,,,,,6,0,6,0,26,0,26,0,,,,,,kangaroo,target,q,upper,,,,,,,1,target,HiDemTar,g,0,2.0217695306782844,,,,,,,,,,,,,,,,,,380,2023-11-16_09h43.18.340,leap3,2022.2.5,59.992647806616446,
,,,,,,,,,,,,,,,,,,,,6,0,6,0,27,0,27,0,,,,,,alchemist,w,g,upper,,,,,,,1,aftertar1,HiDemTar,g,1,0.7630377285386203,,,,,,,,,,,,,,,,,,380,2023-11-16_09h43.18.340,leap3,2022.2.5,59.992647806616446,
,,,,,,,,,,,,,,,,,,,,6,0,6,0,28,0,28,0,,,,,,extend,w,g,upper,,,,,,,1,aftertar2,HiDemTar,g,1,0.7390568538394291,,,,,,,,,,,,,,,,,,380,2023-11-16_09h43.18.340,leap3,2022.2.5,59.992647806616446,
,,,,,,,,,,,,,,,,,,,,6,0,6,0,29,0,29,0,,,,,,moral,w,g,upper,,,,,,,1,aftertar3,HiDemTar,g,1,0.8598598385433434,,,,,,,,,,,,,,,,,,380,2023-11-16_09h43.18.340,leap3,2022.2.5,59.992647806616446,
,,,,,,,,,,,,,,,,,,,,6,0,6,0,,,,,,,,,,,,,,,,,,,,,,,,,,,0,,,,,,,,,,,,,,,,380,2023-11-16_09h43.18.340,leap3,2022.2.5,59.992647806616446,
,,,,,,,,,,,,,,,,,,,,7,0,7,0,0,0,0,0,,,,,,mortgage,w,g,upper,,,,,,,2,w,HiDemNoTar,g,1,1.1596425056341104,,,,,,,,,,,,,,,,,,380,2023-11-16_09h43.18.340,leap3,2022.2.5,59.992647806616446,
,,,,,,,,,,,,,,,,,,,,7,0,7,0,1,0,1,0,,,,,,anterior,w,g,upper,,,,,,,2,w,HiDemNoTar,g,1,0.5522960498201428,,,,,,,,,,,,,,,,,,380,2023-11-16_09h43.18.340,leap3,2022.2.5,59.992647806616446,
,,,,,,,,,,,,,,,,,,,,7,0,7,0,2,0,2,0,,,,,,nores,nw,h,upper,,,,,,,2,nw,HiDemNoTar,h,1,0.7770698877720861,,,,,,,,,,,,,,,,,,380,2023-11-16_09h43.18.340,leap3,2022.2.5,59.992647806616446,
,,,,,,,,,,,,,,,,,,,,7,0,7,0,3,0,3,0,,,,,,rangel,nw,h,upper,,,,,,,2,nw,HiDemNoTar,h,1,0.9850179331406252,,,,,,,,,,,,,,,,,,380,2023-11-16_09h43.18.340,leap3,2022.2.5,59.992647806616446,
,,,,,,,,,,,,,,,,,,,,7,0,7,0,4,0,4,0,,,,,,latter,w,g,upper,,,,,,,2,w,HiDemNoTar,g,1,0.7044097632315243,,,,,,,,,,,,,,,,,,380,2023-11-16_09h43.18.340,leap3,2022.2.5,59.992647806616446,
,,,,,,,,,,,,,,,,,,,,7,0,7,0,5,0,5,0,,,,,,category,w,g,upper,,,,,,,2,w,HiDemNoTar,g,1,0.6431756141973892,,,,,,,,,,,,,,,,,,380,2023-11-16_09h43.18.340,leap3,2022.2.5,59.992647806616446,
,,,,,,,,,,,,,,,,,,,,7,0,7,0,6,0,6,0,,,,,,elalt,nw,h,upper,,,,,,,2,nw,HiDemNoTar,h,1,0.7916456811217358,,,,,,,,,,,,,,,,,,380,2023-11-16_09h43.18.340,leap3,2022.2.5,59.992647806616446,
,,,,,,,,,,,,,,,,,,,,7,0,7,0,7,0,7,0,,,,,,skiing,w,g,upper,,,,,,,2,w,HiDemNoTar,g,1,1.062956228692201,,,,,,,,,,,,,,,,,,380,2023-11-16_09h43.18.340,leap3,2022.2.5,59.992647806616446,
,,,,,,,,,,,,,,,,,,,,7,0,7,0,8,0,8,0,,,,,,fragment,w,g,upper,,,,,,,2,w,HiDemNoTar,g,1,0.5955718603654532,,,,,,,,,,,,,,,,,,380,2023-11-16_09h43.18.340,leap3,2022.2.5,59.992647806616446,
,,,,,,,,,,,,,,,,,,,,7,0,7,0,9,0,9,0,,,,,,scrib,nw,h,upper,,,,,,,2,nw,HiDemNoTar,h,1,0.6670891760732047,,,,,,,,,,,,,,,,,,380,2023-11-16_09h43.18.340,leap3,2022.2.5,59.992647806616446,
,,,,,,,,,,,,,,,,,,,,7,0,7,0,10,0,10,0,,,,,,rejoiced,w,g,upper,,,,,,,2,w,HiDemNoTar,g,1,0.718979217694141,,,,,,,,,,,,,,,,,,380,2023-11-16_09h43.18.340,leap3,2022.2.5,59.992647806616446,
,,,,,,,,,,,,,,,,,,,,7,0,7,0,11,0,11,0,,,,,,owner,w,g,upper,,,,,,,2,w,HiDemNoTar,g,1,0.7209907544456655,,,,,,,,,,,,,,,,,,380,2023-11-16_09h43.18.340,leap3,2022.2.5,59.992647806616446,
,,,,,,,,,,,,,,,,,,,,7,0,7,0,12,0,12,0,,,,,,esdings,nw,h,upper,,,,,,,2,nw,HiDemNoTar,h,1,0.9780140785005642,,,,,,,,,,,,,,,,,,380,2023-11-16_09h43.18.340,leap3,2022.2.5,59.992647806616446,
,,,,,,,,,,,,,,,,,,,,7,0,7,0,13,0,13,0,,,,,,itfidels,nw,h,upper,,,,,,,2,nw,HiDemNoTar,h,1,0.8254001975728897,,,,,,,,,,,,,,,,,,380,2023-11-16_09h43.18.340,leap3,2022.2.5,59.992647806616446,
,,,,,,,,,,,,,,,,,,,,7,0,7,0,14,0,14,0,,,,,,fivalve,nw,h,upper,,,,,,,2,nw,HiDemNoTar,h,1,1.1424058934935601,,,,,,,,,,,,,,,,,,380,2023-11-16_09h43.18.340,leap3,2022.2.5,59.992647806616446,
,,,,,,,,,,,,,,,,,,,,7,0,7,0,15,0,15,0,,,,,,reses,nw,h,upper,,,,,,,2,nw,HiDemNoTar,h,1,0.823648554738611,,,,,,,,,,,,,,,,,,380,2023-11-16_09h43.18.340,leap3,2022.2.5,59.992647806616446,
,,,,,,,,,,,,,,,,,,,,7,0,7,0,16,0,16,0,,,,,,surfaced,w,g,upper,,,,,,,2,w,HiDemNoTar,g,1,0.7248810134042287,,,,,,,,,,,,,,,,,,380,2023-11-16_09h43.18.340,leap3,2022.2.5,59.992647806616446,
,,,,,,,,,,,,,,,,,,,,7,0,7,0,17,0,17,0,,,,,,number,w,g,upper,,,,,,,2,w,HiDemNoTar,g,1,0.7342070097365649,,,,,,,,,,,,,,,,,,380,2023-11-16_09h43.18.340,leap3,2022.2.5,59.992647806616446,
,,,,,,,,,,,,,,,,,,,,7,0,7,0,18,0,18,0,,,,,,tibs,nw,h,upper,,,,,,,2,nw,HiDemNoTar,h,1,1.335524590467685,,,,,,,,,,,,,,,,,,380,2023-11-16_09h43.18.340,leap3,2022.2.5,59.992647806616446,
,,,,,,,,,,,,,,,,,,,,7,0,7,0,19,0,19,0,,,,,,irregular,w,g,upper,,,,,,,2,w,HiDemNoTar,g,1,1.9050415379024344,,,,,,,,,,,,,,,,,,380,2023-11-16_09h43.18.340,leap3,2022.2.5,59.992647806616446,
,,,,,,,,,,,,,,,,,,,,7,0,7,0,20,0,20,0,,,,,,jinds,nw,h,upper,,,,,,,2,nw,HiDemNoTar,h,1,0.6590753271302674,,,,,,,,,,,,,,,,,,380,2023-11-16_09h43.18.340,leap3,2022.2.5,59.992647806616446,
,,,,,,,,,,,,,,,,,,,,7,0,7,0,21,0,21,0,,,,,,pender,nw,h,upper,,,,,,,2,nw,HiDemNoTar,h,1,0.8710579163598595,,,,,,,,,,,,,,,,,,380,2023-11-16_09h43.18.340,leap3,2022.2.5,59.992647806616446,
,,,,,,,,,,,,,,,,,,,,7,0,7,0,22,0,22,0,,,,,,offonents,nw,h,upper,,,,,,,2,nw,HiDemNoTar,h,1,0.8584139710437739,,,,,,,,,,,,,,,,,,380,2023-11-16_09h43.18.340,leap3,2022.2.5,59.992647806616446,
,,,,,,,,,,,,,,,,,,,,7,0,7,0,23,0,23,0,,,,,,painter,w,g,upper,,,,,,,2,w,HiDemNoTar,g,1,1.0615852203191025,,,,,,,,,,,,,,,,,,380,2023-11-16_09h43.18.340,leap3,2022.2.5,59.992647806616446,
,,,,,,,,,,,,,,,,,,,,7,0,7,0,24,0,24,0,,,,,,odacles,nw,h,upper,,,,,,,2,nw,HiDemNoTar,h,1,1.017516144667752,,,,,,,,,,,,,,,,,,380,2023-11-16_09h43.18.340,leap3,2022.2.5,59.992647806616446,
,,,,,,,,,,,,,,,,,,,,7,0,7,0,25,0,25,0,,,,,,religious,w,g,upper,,,,,,,2,w,HiDemNoTar,g,1,0.7116351766890148,,,,,,,,,,,,,,,,,,380,2023-11-16_09h43.18.340,leap3,2022.2.5,59.992647806616446,
,,,,,,,,,,,,,,,,,,,,7,0,7,0,26,0,26,0,,,,,,deserve,w,g,upper,,,,,,,2,w,HiDemNoTar,g,1,0.6095521011884557,,,,,,,,,,,,,,,,,,380,2023-11-16_09h43.18.340,leap3,2022.2.5,59.992647806616446,
,,,,,,,,,,,,,,,,,,,,7,0,7,0,27,0,27,0,,,,,,infancy,w,g,upper,,,,,,,2,w,HiDemNoTar,g,1,0.8396050157170976,,,,,,,,,,,,,,,,,,380,2023-11-16_09h43.18.340,leap3,2022.2.5,59.992647806616446,
,,,,,,,,,,,,,,,,,,,,7,0,7,0,28,0,28,0,,,,,,houted,nw,h,upper,,,,,,,2,nw,HiDemNoTar,h,1,0.8043173967453185,,,,,,,,,,,,,,,,,,380,2023-11-16_09h43.18.340,leap3,2022.2.5,59.992647806616446,
,,,,,,,,,,,,,,,,,,,,7,0,7,0,29,0,29,0,,,,,,puyer,nw,h,upper,,,,,,,2,nw,HiDemNoTar,h,1,0.7784152388194343,,,,,,,,,,,,,,,,,,380,2023-11-16_09h43.18.340,leap3,2022.2.5,59.992647806616446,
,,,,,,,,,,,,,,,,,,,,7,0,7,0,,,,,,,,,,,,,,,,,,,,,,,,,,,NA,,,,,,,,,,,,,,,,380,2023-11-16_09h43.18.340,leap3,2022.2.5,59.992647806616446,
,,,,,,,,,,,,,,,,,,,,8,0,8,0,0,0,0,0,,,,,,ludictous,nw,h,upper,,,,,,,1,nw,HiDemTar,h,1,0.8415951210190542,,,,,,,,,,,,,,,,,,380,2023-11-16_09h43.18.340,leap3,2022.2.5,59.992647806616446,
,,,,,,,,,,,,,,,,,,,,8,0,8,0,1,0,1,0,,,,,,appain,nw,h,upper,,,,,,,1,nw,HiDemTar,h,1,0.7250585019501159,,,,,,,,,,,,,,,,,,380,2023-11-16_09h43.18.340,leap3,2022.2.5,59.992647806616446,
,,,,,,,,,,,,,,,,,,,,8,0,8,0,2,0,2,0,,,,,,punctual,w,g,upper,,,,,,,1,w,HiDemTar,g,1,0.7345342165062902,,,,,,,,,,,,,,,,,,380,2023-11-16_09h43.18.340,leap3,2022.2.5,59.992647806616446,
,,,,,,,,,,,,,,,,,,,,8,0,8,0,3,0,3,0,,,,,,prison,w,g,upper,,,,,,,1,w,HiDemTar,g,1,0.6321447619702667,,,,,,,,,,,,,,,,,,380,2023-11-16_09h43.18.340,leap3,2022.2.5,59.992647806616446,
,,,,,,,,,,,,,,,,,,,,8,0,8,0,4,0,4,0,,,,,,massacre,w,g,upper,,,,,,,1,w,HiDemTar,g,1,0.6941634224203881,,,,,,,,,,,,,,,,,,380,2023-11-16_09h43.18.340,leap3,2022.2.5,59.992647806616446,
,,,,,,,,,,,,,,,,,,,,8,0,8,0,5,0,5,0,,,,,,teamwork,w,g,upper,,,,,,,1,w,HiDemTar,g,1,0.6721539382560877,,,,,,,,,,,,,,,,,,380,2023-11-16_09h43.18.340,leap3,2022.2.5,59.992647806616446,
,,,,,,,,,,,,,,,,,,,,8,0,8,0,6,0,6,0,,,,,,lifetime,w,g,upper,,,,,,,1,w,HiDemTar,g,1,0.6355110071599483,,,,,,,,,,,,,,,,,,380,2023-11-16_09h43.18.340,leap3,2022.2.5,59.992647806616446,
,,,,,,,,,,,,,,,,,,,,8,0,8,0,7,0,7,0,,,,,,dorth,nw,h,upper,,,,,,,1,nw,HiDemTar,h,1,0.6806613139924593,,,,,,,,,,,,,,,,,,380,2023-11-16_09h43.18.340,leap3,2022.2.5,59.992647806616446,
,,,,,,,,,,,,,,,,,,,,8,0,8,0,8,0,8,0,,,,,,buttress,w,g,upper,,,,,,,1,w,HiDemTar,g,1,1.108152115077246,,,,,,,,,,,,,,,,,,380,2023-11-16_09h43.18.340,leap3,2022.2.5,59.992647806616446,
,,,,,,,,,,,,,,,,,,,,8,0,8,0,9,0,9,0,,,,,,glapula,nw,h,upper,,,,,,,1,nw,HiDemTar,h,1,0.7822393923415802,,,,,,,,,,,,,,,,,,380,2023-11-16_09h43.18.340,leap3,2022.2.5,59.992647806616446,
,,,,,,,,,,,,,,,,,,,,8,0,8,0,10,0,10,0,,,,,,oleandur,nw,h,upper,,,,,,,1,nw,HiDemTar,h,1,0.821125078262412,,,,,,,,,,,,,,,,,,380,2023-11-16_09h43.18.340,leap3,2022.2.5,59.992647806616446,
,,,,,,,,,,,,,,,,,,,,8,0,8,0,11,0,11,0,,,,,,attrove,nw,h,upper,,,,,,,1,nw,HiDemTar,g,0,1.8509845061198575,,,,,,,,,,,,,,,,,,380,2023-11-16_09h43.18.340,leap3,2022.2.5,59.992647806616446,
,,,,,,,,,,,,,,,,,,,,8,0,8,0,12,0,12,0,,,,,,sengry,nw,h,upper,,,,,,,1,nw,HiDemTar,h,1,0.6875679725344526,,,,,,,,,,,,,,,,,,380,2023-11-16_09h43.18.340,leap3,2022.2.5,59.992647806616446,
,,,,,,,,,,,,,,,,,,,,8,0,8,0,13,0,13,0,,,,,,define,w,g,upper,,,,,,,1,w,HiDemTar,g,1,0.6734135635342682,,,,,,,,,,,,,,,,,,380,2023-11-16_09h43.18.340,leap3,2022.2.5,59.992647806616446,
,,,,,,,,,,,,,,,,,,,,8,0,8,0,14,0,14,0,,,,,,airbis,nw,h,upper,,,,,,,1,nw,HiDemTar,h,1,0.796698972946615,,,,,,,,,,,,,,,,,,380,2023-11-16_09h43.18.340,leap3,2022.2.5,59.992647806616446,
,,,,,,,,,,,,,,,,,,,,8,0,8,0,15,0,15,0,,,,,,amidst,w,g,upper,,,,,,,1,w,HiDemTar,g,1,0.7313044080947293,,,,,,,,,,,,,,,,,,380,2023-11-16_09h43.18.340,leap3,2022.2.5,59.992647806616446,
,,,,,,,,,,,,,,,,,,,,8,0,8,0,16,0,16,0,,,,,,uncarled,nw,h,upper,,,,,,,1,nw,HiDemTar,h,1,0.756778842798667,,,,,,,,,,,,,,,,,,380,2023-11-16_09h43.18.340,leap3,2022.2.5,59.992647806616446,
,,,,,,,,,,,,,,,,,,,,8,0,8,0,17,0,17,0,,,,,,larger,w,g,upper,,,,,,,1,w,HiDemTar,g,1,0.7487601642351365,,,,,,,,,,,,,,,,,,380,2023-11-16_09h43.18.340,leap3,2022.2.5,59.992647806616446,
,,,,,,,,,,,,,,,,,,,,8,0,8,0,18,0,18,0,,,,,,carnival,w,g,upper,,,,,,,1,w,HiDemTar,g,1,0.7814213754463708,,,,,,,,,,,,,,,,,,380,2023-11-16_09h43.18.340,leap3,2022.2.5,59.992647806616446,
,,,,,,,,,,,,,,,,,,,,8,0,8,0,19,0,19,0,,,,,,clattest,nw,h,upper,,,,,,,1,nw,HiDemTar,h,1,0.9328003828995861,,,,,,,,,,,,,,,,,,380,2023-11-16_09h43.18.340,leap3,2022.2.5,59.992647806616446,
,,,,,,,,,,,,,,,,,,,,8,0,8,0,20,0,20,0,,,,,,mining,w,g,upper,,,,,,,1,w,HiDemTar,g,1,0.6221966502052965,,,,,,,,,,,,,,,,,,380,2023-11-16_09h43.18.340,leap3,2022.2.5,59.992647806616446,
,,,,,,,,,,,,,,,,,,,,8,0,8,0,21,0,21,0,,,,,,vibrate,w,g,upper,,,,,,,1,w,HiDemTar,g,1,0.5795372199208941,,,,,,,,,,,,,,,,,,380,2023-11-16_09h43.18.340,leap3,2022.2.5,59.992647806616446,
,,,,,,,,,,,,,,,,,,,,8,0,8,0,22,0,22,0,,,,,,attended,w,g,upper,,,,,,,1,w,HiDemTar,g,1,0.5860143441241235,,,,,,,,,,,,,,,,,,380,2023-11-16_09h43.18.340,leap3,2022.2.5,59.992647806616446,
,,,,,,,,,,,,,,,,,,,,8,0,8,0,23,0,23,0,,,,,,rumblos,nw,h,upper,,,,,,,1,nw,HiDemTar,h,1,0.6326183665805729,,,,,,,,,,,,,,,,,,380,2023-11-16_09h43.18.340,leap3,2022.2.5,59.992647806616446,
,,,,,,,,,,,,,,,,,,,,8,0,8,0,24,0,24,0,,,,,,flamingo,target,q,upper,,,,,,,1,target,HiDemTar,g,0,0.6058909473213134,,,,,,,,,,,,,,,,,,380,2023-11-16_09h43.18.340,leap3,2022.2.5,59.992647806616446,
,,,,,,,,,,,,,,,,,,,,8,0,8,0,25,0,25,0,,,,,,pastnoss,nw,h,upper,,,,,,,1,aftertar1,HiDemTar,h,1,1.0359326933685225,,,,,,,,,,,,,,,,,,380,2023-11-16_09h43.18.340,leap3,2022.2.5,59.992647806616446,
,,,,,,,,,,,,,,,,,,,,8,0,8,0,26,0,26,0,,,,,,fatho,nw,h,upper,,,,,,,1,aftertar2,HiDemTar,h,1,0.5921500745607773,,,,,,,,,,,,,,,,,,380,2023-11-16_09h43.18.340,leap3,2022.2.5,59.992647806616446,
,,,,,,,,,,,,,,,,,,,,8,0,8,0,27,0,27,0,,,,,,grenavier,nw,h,upper,,,,,,,1,aftertar3,HiDemTar,h,1,0.6629791693994775,,,,,,,,,,,,,,,,,,380,2023-11-16_09h43.18.340,leap3,2022.2.5,59.992647806616446,
,,,,,,,,,,,,,,,,,,,,8,0,8,0,28,0,28,0,,,,,,ciping,nw,h,upper,,,,,,,1,nw,HiDemTar,h,1,0.8437062686862191,,,,,,,,,,,,,,,,,,380,2023-11-16_09h43.18.340,leap3,2022.2.5,59.992647806616446,
,,,,,,,,,,,,,,,,,,,,8,0,8,0,29,0,29,0,,,,,,tucker,w,g,upper,,,,,,,1,nw,HiDemTar,g,1,1.1607967848249245,,,,,,,,,,,,,,,,,,380,2023-11-16_09h43.18.340,leap3,2022.2.5,59.992647806616446,
,,,,,,,,,,,,,,,,,,,,8,0,8,0,,,,,,,,,,,,,,,,,,,,,,,,,,,0,,,,,,,,,,,,,,,,380,2023-11-16_09h43.18.340,leap3,2022.2.5,59.992647806616446,
,,,,,,,,,,,,,,,,,,,,9,0,9,0,0,0,0,0,,,,,,rocket,w,g,lower,,,,,,,4,w,LoDemTar,g,1,1.1845044841466006,,,,,,,,,,,,,,,,,,380,2023-11-16_09h43.18.340,leap3,2022.2.5,59.992647806616446,
,,,,,,,,,,,,,,,,,,,,9,0,9,0,1,0,1,0,,,,,,affluent,w,g,lower,,,,,,,4,w,LoDemTar,g,1,0.7200100397312781,,,,,,,,,,,,,,,,,,380,2023-11-16_09h43.18.340,leap3,2022.2.5,59.992647806616446,
,,,,,,,,,,,,,,,,,,,,9,0,9,0,2,0,2,0,,,,,,minister,w,g,lower,,,,,,,4,w,LoDemTar,g,1,0.5693274031073088,,,,,,,,,,,,,,,,,,380,2023-11-16_09h43.18.340,leap3,2022.2.5,59.992647806616446,
,,,,,,,,,,,,,,,,,,,,9,0,9,0,3,0,3,0,,,,,,afford,w,g,lower,,,,,,,4,w,LoDemTar,g,1,0.48861298155679833,,,,,,,,,,,,,,,,,,380,2023-11-16_09h43.18.340,leap3,2022.2.5,59.992647806616446,
,,,,,,,,,,,,,,,,,,,,9,0,9,0,4,0,4,0,,,,,,ubefully,nw,h,lower,,,,,,,4,nw,LoDemTar,h,1,0.6753315263922559,,,,,,,,,,,,,,,,,,380,2023-11-16_09h43.18.340,leap3,2022.2.5,59.992647806616446,
,,,,,,,,,,,,,,,,,,,,9,0,9,0,5,0,5,0,,,,,,patio,w,g,lower,,,,,,,4,w,LoDemTar,g,1,0.7498471306025749,,,,,,,,,,,,,,,,,,380,2023-11-16_09h43.18.340,leap3,2022.2.5,59.992647806616446,
,,,,,,,,,,,,,,,,,,,,9,0,9,0,6,0,6,0,,,,,,neliefs,nw,h,lower,,,,,,,4,nw,LoDemTar,h,1,0.7985644136933843,,,,,,,,,,,,,,,,,,380,2023-11-16_09h43.18.340,leap3,2022.2.5,59.992647806616446,
,,,,,,,,,,,,,,,,,,,,9,0,9,0,7,0,7,0,,,,,,collute,nw,h,lower,,,,,,,4,nw,LoDemTar,h,1,1.653216092454386,,,,,,,,,,,,,,,,,,380,2023-11-16_09h43.18.340,leap3,2022.2.5,59.992647806616446,
,,,,,,,,,,,,,,,,,,,,9,0,9,0,8,0,8,0,,,,,,potter,w,g,lower,,,,,,,4,w,LoDemTar,g,1,0.6091868611692917,,,,,,,,,,,,,,,,,,380,2023-11-16_09h43.18.340,leap3,2022.2.5,59.992647806616446,
,,,,,,,,,,,,,,,,,,,,9,0,9,0,9,0,9,0,,,,,,removable,w,g,lower,,,,,,,4,w,LoDemTar,g,1,0.6553055068216054,,,,,,,,,,,,,,,,,,380,2023-11-16_09h43.18.340,leap3,2022.2.5,59.992647806616446,
,,,,,,,,,,,,,,,,,,,,9,0,9,0,10,0,10,0,,,,,,perishing,w,g,lower,,,,,,,4,w,LoDemTar,g,1,0.9473076560097979,,,,,,,,,,,,,,,,,,380,2023-11-16_09h43.18.340,leap3,2022.2.5,59.992647806616446,
,,,,,,,,,,,,,,,,,,,,9,0,9,0,11,0,11,0,,,,,,gablus,nw,h,lower,,,,,,,4,nw,LoDemTar,h,1,0.7479916509473696,,,,,,,,,,,,,,,,,,380,2023-11-16_09h43.18.340,leap3,2022.2.5,59.992647806616446,
,,,,,,,,,,,,,,,,,,,,9,0,9,0,12,0,12,0,,,,,,colicky,w,g,lower,,,,,,,4,w,LoDemTar,h,0,0.8046165313280653,,,,,,,,,,,,,,,,,,380,2023-11-16_09h43.18.340,leap3,2022.2.5,59.992647806616446,
,,,,,,,,,,,,,,,,,,,,9,0,9,0,13,0,13,0,,,,,,extruded,w,g,lower,,,,,,,4,w,LoDemTar,g,1,0.7708270001312485,,,,,,,,,,,,,,,,,,380,2023-11-16_09h43.18.340,leap3,2022.2.5,59.992647806616446,
,,,,,,,,,,,,,,,,,,,,9,0,9,0,14,0,14,0,,,,,,sarlock,nw,h,lower,,,,,,,4,nw,LoDemTar,h,1,1.13811537977017,,,,,,,,,,,,,,,,,,380,2023-11-16_09h43.18.340,leap3,2022.2.5,59.992647806616446,
,,,,,,,,,,,,,,,,,,,,9,0,9,0,15,0,15,0,,,,,,sorping,nw,h,lower,,,,,,,4,nw,LoDemTar,h,1,1.377837495499989,,,,,,,,,,,,,,,,,,380,2023-11-16_09h43.18.340,leap3,2022.2.5,59.992647806616446,
,,,,,,,,,,,,,,,,,,,,9,0,9,0,16,0,16,0,,,,,,drine,nw,h,lower,,,,,,,4,nw,LoDemTar,h,1,0.8321767582092434,,,,,,,,,,,,,,,,,,380,2023-11-16_09h43.18.340,leap3,2022.2.5,59.992647806616446,
,,,,,,,,,,,,,,,,,,,,9,0,9,0,17,0,17,0,,,,,,female,w,g,lower,,,,,,,4,w,LoDemTar,g,1,0.821737232603482,,,,,,,,,,,,,,,,,,380,2023-11-16_09h43.18.340,leap3,2022.2.5,59.992647806616446,
,,,,,,,,,,,,,,,,,,,,9,0,9,0,18,0,18,0,,,,,,welayed,nw,h,lower,,,,,,,4,nw,LoDemTar,h,1,1.7477725069475127,,,,,,,,,,,,,,,,,,380,2023-11-16_09h43.18.340,leap3,2022.2.5,59.992647806616446,
,,,,,,,,,,,,,,,,,,,,9,0,9,0,19,0,19,0,,,,,,poars,nw,h,lower,,,,,,,4,nw,LoDemTar,h,1,1.0686240896902746,,,,,,,,,,,,,,,,,,380,2023-11-16_09h43.18.340,leap3,2022.2.5,59.992647806616446,
,,,,,,,,,,,,,,,,,,,,9,0,9,0,20,0,20,0,,,,,,shurk,nw,h,lower,,,,,,,4,nw,LoDemTar,h,1,0.7607035127875861,,,,,,,,,,,,,,,,,,380,2023-11-16_09h43.18.340,leap3,2022.2.5,59.992647806616446,
,,,,,,,,,,,,,,,,,,,,9,0,9,0,21,0,21,0,,,,,,brials,nw,h,lower,,,,,,,4,nw,LoDemTar,h,1,0.8169362884073053,,,,,,,,,,,,,,,,,,380,2023-11-16_09h43.18.340,leap3,2022.2.5,59.992647806616446,
,,,,,,,,,,,,,,,,,,,,9,0,9,0,22,0,22,0,,,,,,pallir,nw,h,lower,,,,,,,4,nw,LoDemTar,h,1,0.6698936760658398,,,,,,,,,,,,,,,,,,380,2023-11-16_09h43.18.340,leap3,2022.2.5,59.992647806616446,
,,,,,,,,,,,,,,,,,,,,9,0,9,0,23,0,23,0,,,,,,coyote,target,q,lower,,,,,,,4,target,LoDemTar,q,1,1.0491718893463258,1,,,,,,,,,,,,,,,,,380,2023-11-16_09h43.18.340,leap3,2022.2.5,59.992647806616446,
,,,,,,,,,,,,,,,,,,,,9,0,9,0,24,0,24,0,,,,,,shimble,nw,h,lower,,,,,,,4,aftertar1,LoDemTar,h,1,1.0858706629223889,,,,,,,,,,,,,,,,,,380,2023-11-16_09h43.18.340,leap3,2022.2.5,59.992647806616446,
,,,,,,,,,,,,,,,,,,,,9,0,9,0,25,0,25,0,,,,,,slogan,w,g,lower,,,,,,,4,aftertar2,LoDemTar,g,1,1.0646001106360927,,,,,,,,,,,,,,,,,,380,2023-11-16_09h43.18.340,leap3,2022.2.5,59.992647806616446,
,,,,,,,,,,,,,,,,,,,,9,0,9,0,26,0,26,0,,,,,,earmaff,nw,h,lower,,,,,,,4,aftertar3,LoDemTar,h,1,1.2206224959227256,,,,,,,,,,,,,,,,,,380,2023-11-16_09h43.18.340,leap3,2022.2.5,59.992647806616446,
,,,,,,,,,,,,,,,,,,,,9,0,9,0,27,0,27,0,,,,,,volume,w,g,lower,,,,,,,4,nw,LoDemTar,g,1,0.6819203355553327,,,,,,,,,,,,,,,,,,380,2023-11-16_09h43.18.340,leap3,2022.2.5,59.992647806616446,
,,,,,,,,,,,,,,,,,,,,9,0,9,0,28,0,28,0,,,,,,gures,nw,h,lower,,,,,,,4,w,LoDemTar,h,1,0.9805390642286511,,,,,,,,,,,,,,,,,,380,2023-11-16_09h43.18.340,leap3,2022.2.5,59.992647806616446,
,,,,,,,,,,,,,,,,,,,,9,0,9,0,29,0,29,0,,,,,,entitle,w,g,lower,,,,,,,4,nw,LoDemTar,g,1,0.7326902071945369,,,,,,,,,,,,,,,,,,380,2023-11-16_09h43.18.340,leap3,2022.2.5,59.992647806616446,
,,,,,,,,,,,,,,,,,,,,9,0,9,0,,,,,,,,,,,,,,,,,,,,,,,,,,,1,,,,,,,,,,,,,,,,380,2023-11-16_09h43.18.340,leap3,2022.2.5,59.992647806616446,
,,,,,,,,,,,,,,,,,,,,10,0,10,0,0,0,0,0,,,,,,unstatle,nw,h,upper,,,,,,,1,nw,HiDemTar,h,1,1.0698788853478618,,,,,,,,,,,,,,,,,,380,2023-11-16_09h43.18.340,leap3,2022.2.5,59.992647806616446,
,,,,,,,,,,,,,,,,,,,,10,0,10,0,1,0,1,0,,,,,,praiged,nw,h,upper,,,,,,,1,nw,HiDemTar,h,1,0.6172305933869211,,,,,,,,,,,,,,,,,,380,2023-11-16_09h43.18.340,leap3,2022.2.5,59.992647806616446,
,,,,,,,,,,,,,,,,,,,,10,0,10,0,2,0,2,0,,,,,,lutton,nw,h,upper,,,,,,,1,nw,HiDemTar,h,1,0.543338613875676,,,,,,,,,,,,,,,,,,380,2023-11-16_09h43.18.340,leap3,2022.2.5,59.992647806616446,
,,,,,,,,,,,,,,,,,,,,10,0,10,0,3,0,3,0,,,,,,baseline,w,g,upper,,,,,,,1,w,HiDemTar,g,1,0.8000362404127372,,,,,,,,,,,,,,,,,,380,2023-11-16_09h43.18.340,leap3,2022.2.5,59.992647806616446,
,,,,,,,,,,,,,,,,,,,,10,0,10,0,4,0,4,0,,,,,,dreaded,w,g,upper,,,,,,,1,w,HiDemTar,g,1,1.1737929905648343,,,,,,,,,,,,,,,,,,380,2023-11-16_09h43.18.340,leap3,2022.2.5,59.992647806616446,
,,,,,,,,,,,,,,,,,,,,10,0,10,0,5,0,5,0,,,,,,flicking,w,g,upper,,,,,,,1,w,HiDemTar,g,1,0.7159830421442166,,,,,,,,,,,,,,,,,,380,2023-11-16_09h43.18.340,leap3,2022.2.5,59.992647806616446,
,,,,,,,,,,,,,,,,,,,,10,0,10,0,6,0,6,0,,,,,,lignpost,nw,h,upper,,,,,,,1,nw,HiDemTar,h,1,0.7822261108958628,,,,,,,,,,,,,,,,,,380,2023-11-16_09h43.18.340,leap3,2022.2.5,59.992647806616446,
,,,,,,,,,,,,,,,,,,,,10,0,10,0,7,0,7,0,,,,,,country,w,g,upper,,,,,,,1,w,HiDemTar,g,1,0.7662732721219072,,,,,,,,,,,,,,,,,,380,2023-11-16_09h43.18.340,leap3,2022.2.5,59.992647806616446,
,,,,,,,,,,,,,,,,,,,,10,0,10,0,8,0,8,0,,,,,,movie,w,g,upper,,,,,,,1,w,HiDemTar,g,1,0.5743867319833953,,,,,,,,,,,,,,,,,,380,2023-11-16_09h43.18.340,leap3,2022.2.5,59.992647806616446,
,,,,,,,,,,,,,,,,,,,,10,0,10,0,9,0,9,0,,,,,,function,w,g,upper,,,,,,,1,w,HiDemTar,g,1,0.9975658897601534,,,,,,,,,,,,,,,,,,380,2023-11-16_09h43.18.340,leap3,2022.2.5,59.992647806616446,
,,,,,,,,,,,,,,,,,,,,10,0,10,0,10,0,10,0,,,,,,arcients,nw,h,upper,,,,,,,1,nw,HiDemTar,h,1,0.8925147108820966,,,,,,,,,,,,,,,,,,380,2023-11-16_09h43.18.340,leap3,2022.2.5,59.992647806616446,
,,,,,,,,,,,,,,,,,,,,10,0,10,0,11,0,11,0,,,,,,pregs,nw,h,upper,,,,,,,1,nw,HiDemTar,h,1,1.1990986904129386,,,,,,,,,,,,,,,,,,380,2023-11-16_09h43.18.340,leap3,2022.2.5,59.992647806616446,
,,,,,,,,,,,,,,,,,,,,10,0,10,0,12,0,12,0,,,,,,anonymous,w,g,upper,,,,,,,1,w,HiDemTar,g,1,0.7658923358540051,,,,,,,,,,,,,,,,,,380,2023-11-16_09h43.18.340,leap3,2022.2.5,59.992647806616446,
,,,,,,,,,,,,,,,,,,,,10,0,10,0,13,0,13,0,,,,,,roaned,nw,h,upper,,,,,,,1,nw,HiDemTar,h,1,0.5487960845348425,,,,,,,,,,,,,,,,,,380,2023-11-16_09h43.18.340,leap3,2022.2.5,59.992647806616446,
,,,,,,,,,,,,,,,,,,,,10,0,10,0,14,0,14,0,,,,,,chesume,nw,h,upper,,,,,,,1,nw,HiDemTar,h,1,0.8135938894702122,,,,,,,,,,,,,,,,,,380,2023-11-16_09h43.18.340,leap3,2022.2.5,59.992647806616446,
,,,,,,,,,,,,,,,,,,,,10,0,10,0,15,0,15,0,,,,,,analysis,w,g,upper,,,,,,,1,w,HiDemTar,g,1,0.7874713801138569,,,,,,,,,,,,,,,,,,380,2023-11-16_09h43.18.340,leap3,2022.2.5,59.992647806616446,
,,,,,,,,,,,,,,,,,,,,10,0,10,0,16,0,16,0,,,,,,fravity,nw,h,upper,,,,,,,1,nw,HiDemTar,h,1,0.7142410585656762,,,,,,,,,,,,,,,,,,380,2023-11-16_09h43.18.340,leap3,2022.2.5,59.992647806616446,
,,,,,,,,,,,,,,,,,,,,10,0,10,0,17,0,17,0,,,,,,elephant,target,q,upper,,,,,,,1,target,HiDemTar,q,1,0.9642575094476342,1,,,,,,,,,,,,,,,,,380,2023-11-16_09h43.18.340,leap3,2022.2.5,59.992647806616446,
,,,,,,,,,,,,,,,,,,,,10,0,10,0,18,0,18,0,,,,,,churnad,nw,h,upper,,,,,,,1,aftertar1,HiDemTar,h,1,0.6844238898775075,,,,,,,,,,,,,,,,,,380,2023-11-16_09h43.18.340,leap3,2022.2.5,59.992647806616446,
,,,,,,,,,,,,,,,,,,,,10,0,10,0,19,0,19,0,,,,,,optional,w,g,upper,,,,,,,1,aftertar2,HiDemTar,g,1,0.6396566322800936,,,,,,,,,,,,,,,,,,380,2023-11-16_09h43.18.340,leap3,2022.2.5,59.992647806616446,
,,,,,,,,,,,,,,,,,,,,10,0,10,0,20,0,20,0,,,,,,tycoon,w,g,upper,,,,,,,1,aftertar3,HiDemTar,g,1,0.9074907589820214,,,,,,,,,,,,,,,,,,380,2023-11-16_09h43.18.340,leap3,2022.2.5,59.992647806616446,
,,,,,,,,,,,,,,,,,,,,10,0,10,0,21,0,21,0,,,,,,purpose,w,g,upper,,,,,,,1,w,HiDemTar,g,1,0.894447162601864,,,,,,,,,,,,,,,,,,380,2023-11-16_09h43.18.340,leap3,2022.2.5,59.992647806616446,
,,,,,,,,,,,,,,,,,,,,10,0,10,0,22,0,22,0,,,,,,numbled,nw,h,upper,,,,,,,1,w,HiDemTar,h,1,0.6880729696713388,,,,,,,,,,,,,,,,,,380,2023-11-16_09h43.18.340,leap3,2022.2.5,59.992647806616446,
,,,,,,,,,,,,,,,,,,,,10,0,10,0,23,0,23,0,,,,,,harfing,nw,h,upper,,,,,,,1,nw,HiDemTar,h,1,0.7788248509605182,,,,,,,,,,,,,,,,,,380,2023-11-16_09h43.18.340,leap3,2022.2.5,59.992647806616446,
,,,,,,,,,,,,,,,,,,,,10,0,10,0,24,0,24,0,,,,,,insertion,w,g,upper,,,,,,,1,nw,HiDemTar,g,1,0.7621134600049118,,,,,,,,,,,,,,,,,,380,2023-11-16_09h43.18.340,leap3,2022.2.5,59.992647806616446,
,,,,,,,,,,,,,,,,,,,,10,0,10,0,25,0,25,0,,,,,,tablet,w,g,upper,,,,,,,1,w,HiDemTar,g,1,1.0342851892200997,,,,,,,,,,,,,,,,,,380,2023-11-16_09h43.18.340,leap3,2022.2.5,59.992647806616446,
,,,,,,,,,,,,,,,,,,,,10,0,10,0,26,0,26,0,,,,,,dounger,nw,h,upper,,,,,,,1,w,HiDemTar,h,1,0.6394797474349616,,,,,,,,,,,,,,,,,,380,2023-11-16_09h43.18.340,leap3,2022.2.5,59.992647806616446,
,,,,,,,,,,,,,,,,,,,,10,0,10,0,27,0,27,0,,,,,,arrested,w,g,upper,,,,,,,1,nw,HiDemTar,g,1,0.7481688376283273,,,,,,,,,,,,,,,,,,380,2023-11-16_09h43.18.340,leap3,2022.2.5,59.992647806616446,
,,,,,,,,,,,,,,,,,,,,10,0,10,0,28,0,28,0,,,,,,gontracts,nw,h,upper,,,,,,,1,w,HiDemTar,h,1,0.7234903846838279,,,,,,,,,,,,,,,,,,380,2023-11-16_09h43.18.340,leap3,2022.2.5,59.992647806616446,
,,,,,,,,,,,,,,,,,,,,10,0,10,0,29,0,29,0,,,,,,nopping,nw,h,upper,,,,,,,1,nw,HiDemTar,h,1,0.7971408831945155,,,,,,,,,,,,,,,,,,380,2023-11-16_09h43.18.340,leap3,2022.2.5,59.992647806616446,
,,,,,,,,,,,,,,,,,,,,10,0,10,0,,,,,,,,,,,,,,,,,,,,,,,,,,,1,,,,,,,,,,,,,,,,380,2023-11-16_09h43.18.340,leap3,2022.2.5,59.992647806616446,
,,,,,,,,,,,,,,,,,,,,11,0,11,0,0,0,0,0,,,,,,plymie,nw,h,upper,,,,,,,1,nw,HiDemTar,h,1,0.7478337827487849,,,,,,,,,,,,,,,,,,380,2023-11-16_09h43.18.340,leap3,2022.2.5,59.992647806616446,
,,,,,,,,,,,,,,,,,,,,11,0,11,0,1,0,1,0,,,,,,scrooner,nw,h,upper,,,,,,,1,nw,HiDemTar,h,1,0.8605794519244228,,,,,,,,,,,,,,,,,,380,2023-11-16_09h43.18.340,leap3,2022.2.5,59.992647806616446,
,,,,,,,,,,,,,,,,,,,,11,0,11,0,2,0,2,0,,,,,,cassette,w,g,upper,,,,,,,1,w,HiDemTar,g,1,0.8966271323588444,,,,,,,,,,,,,,,,,,380,2023-11-16_09h43.18.340,leap3,2022.2.5,59.992647806616446,
,,,,,,,,,,,,,,,,,,,,11,0,11,0,3,0,3,0,,,,,,foster,w,g,upper,,,,,,,1,w,HiDemTar,g,1,0.7953771663160296,,,,,,,,,,,,,,,,,,380,2023-11-16_09h43.18.340,leap3,2022.2.5,59.992647806616446,
,,,,,,,,,,,,,,,,,,,,11,0,11,0,4,0,4,0,,,,,,gelfry,nw,h,upper,,,,,,,1,nw,HiDemTar,h,1,0.8259746205003466,,,,,,,,,,,,,,,,,,380,2023-11-16_09h43.18.340,leap3,2022.2.5,59.992647806616446,
,,,,,,,,,,,,,,,,,,,,11,0,11,0,5,0,5,0,,,,,,peanimate,nw,h,upper,,,,,,,1,nw,HiDemTar,h,1,1.0142132882465376,,,,,,,,,,,,,,,,,,380,2023-11-16_09h43.18.340,leap3,2022.2.5,59.992647806616446,
,,,,,,,,,,,,,,,,,,,,11,0,11,0,6,0,6,0,,,,,,bettled,nw,h,upper,,,,,,,1,nw,HiDemTar,h,1,0.8602407748112455,,,,,,,,,,,,,,,,,,380,2023-11-16_09h43.18.340,leap3,2022.2.5,59.992647806616446,
,,,,,,,,,,,,,,,,,,,,11,0,11,0,7,0,7,0,,,,,,godomy,nw,h,upper,,,,,,,1,nw,HiDemTar,h,1,0.6722167233237997,,,,,,,,,,,,,,,,,,380,2023-11-16_09h43.18.340,leap3,2022.2.5,59.992647806616446,
,,,,,,,,,,,,,,,,,,,,11,0,11,0,8,0,8,0,,,,,,hivinity,nw,h,upper,,,,,,,1,nw,HiDemTar,h,1,1.3076057643047534,,,,,,,,,,,,,,,,,,380,2023-11-16_09h43.18.340,leap3,2022.2.5,59.992647806616446,
,,,,,,,,,,,,,,,,,,,,11,0,11,0,9,0,9,0,,,,,,contact,w,g,upper,,,,,,,1,w,HiDemTar,g,1,0.8855902431096183,,,,,,,,,,,,,,,,,,380,2023-11-16_09h43.18.340,leap3,2022.2.5,59.992647806616446,
,,,,,,,,,,,,,,,,,,,,11,0,11,0,10,0,10,0,,,,,,chrik,nw,h,upper,,,,,,,1,nw,HiDemTar,h,1,0.9284009008842986,,,,,,,,,,,,,,,,,,380,2023-11-16_09h43.18.340,leap3,2022.2.5,59.992647806616446,
,,,,,,,,,,,,,,,,,,,,11,0,11,0,11,0,11,0,,,,,,revising,w,g,upper,,,,,,,1,w,HiDemTar,g,1,0.6889093994977884,,,,,,,,,,,,,,,,,,380,2023-11-16_09h43.18.340,leap3,2022.2.5,59.992647806616446,
,,,,,,,,,,,,,,,,,,,,11,0,11,0,12,0,12,0,,,,,,theery,nw,h,upper,,,,,,,1,nw,HiDemTar,h,1,1.3955172252899501,,,,,,,,,,,,,,,,,,380,2023-11-16_09h43.18.340,leap3,2022.2.5,59.992647806616446,
,,,,,,,,,,,,,,,,,,,,11,0,11,0,13,0,13,0,,,,,,bloodless,w,g,upper,,,,,,,1,w,HiDemTar,g,1,0.8901119748916244,,,,,,,,,,,,,,,,,,380,2023-11-16_09h43.18.340,leap3,2022.2.5,59.992647806616446,
,,,,,,,,,,,,,,,,,,,,11,0,11,0,14,0,14,0,,,,,,mogus,nw,h,upper,,,,,,,1,nw,HiDemTar,h,1,0.7648138213116908,,,,,,,,,,,,,,,,,,380,2023-11-16_09h43.18.340,leap3,2022.2.5,59.992647806616446,
,,,,,,,,,,,,,,,,,,,,11,0,11,0,15,0,15,0,,,,,,paranoid,w,g,upper,,,,,,,1,w,HiDemTar,g,1,0.844793536918587,,,,,,,,,,,,,,,,,,380,2023-11-16_09h43.18.340,leap3,2022.2.5,59.992647806616446,
,,,,,,,,,,,,,,,,,,,,11,0,11,0,16,0,16,0,,,,,,incidonts,nw,h,upper,,,,,,,1,nw,HiDemTar,h,1,0.7934863700647838,,,,,,,,,,,,,,,,,,380,2023-11-16_09h43.18.340,leap3,2022.2.5,59.992647806616446,
,,,,,,,,,,,,,,,,,,,,11,0,11,0,17,0,17,0,,,,,,renown,w,g,upper,,,,,,,1,w,HiDemTar,g,1,0.7911331376817543,,,,,,,,,,,,,,,,,,380,2023-11-16_09h43.18.340,leap3,2022.2.5,59.992647806616446,
,,,,,,,,,,,,,,,,,,,,11,0,11,0,18,0,18,0,,,,,,portify,nw,h,upper,,,,,,,1,nw,HiDemTar,h,1,0.9257391765131615,,,,,,,,,,,,,,,,,,380,2023-11-16_09h43.18.340,leap3,2022.2.5,59.992647806616446,
,,,,,,,,,,,,,,,,,,,,11,0,11,0,19,0,19,0,,,,,,rantho,nw,h,upper,,,,,,,1,nw,HiDemTar,h,1,0.8236337640264537,,,,,,,,,,,,,,,,,,380,2023-11-16_09h43.18.340,leap3,2022.2.5,59.992647806616446,
,,,,,,,,,,,,,,,,,,,,11,0,11,0,20,0,20,0,,,,,,enabled,w,g,upper,,,,,,,1,w,HiDemTar,g,1,0.8214719053503359,,,,,,,,,,,,,,,,,,380,2023-11-16_09h43.18.340,leap3,2022.2.5,59.992647806616446,
,,,,,,,,,,,,,,,,,,,,11,0,11,0,21,0,21,0,,,,,,trophy,w,g,upper,,,,,,,1,w,HiDemTar,g,1,0.6417599318228895,,,,,,,,,,,,,,,,,,380,2023-11-16_09h43.18.340,leap3,2022.2.5,59.992647806616446,
,,,,,,,,,,,,,,,,,,,,11,0,11,0,22,0,22,0,,,,,,preclude,w,g,upper,,,,,,,1,w,HiDemTar,g,1,0.7982661846472183,,,,,,,,,,,,,,,,,,380,2023-11-16_09h43.18.340,leap3,2022.2.5,59.992647806616446,
,,,,,,,,,,,,,,,,,,,,11,0,11,0,23,0,23,0,,,,,,volder,nw,h,upper,,,,,,,1,nw,HiDemTar,h,1,0.6530364909413038,,,,,,,,,,,,,,,,,,380,2023-11-16_09h43.18.340,leap3,2022.2.5,59.992647806616446,
,,,,,,,,,,,,,,,,,,,,11,0,11,0,24,0,24,0,,,,,,ragtam,nw,h,upper,,,,,,,1,nw,HiDemTar,h,1,0.6168602218822343,,,,,,,,,,,,,,,,,,380,2023-11-16_09h43.18.340,leap3,2022.2.5,59.992647806616446,
,,,,,,,,,,,,,,,,,,,,11,0,11,0,25,0,25,0,,,,,,euphoric,w,g,upper,,,,,,,1,w,HiDemTar,g,1,0.8548720484250225,,,,,,,,,,,,,,,,,,380,2023-11-16_09h43.18.340,leap3,2022.2.5,59.992647806616446,
,,,,,,,,,,,,,,,,,,,,11,0,11,0,26,0,26,0,,,,,,vaporize,w,g,upper,,,,,,,1,w,HiDemTar,g,1,0.5867502574837999,,,,,,,,,,,,,,,,,,380,2023-11-16_09h43.18.340,leap3,2022.2.5,59.992647806616446,
,,,,,,,,,,,,,,,,,,,,11,0,11,0,27,0,27,0,,,,,,usage,w,g,upper,,,,,,,1,w,HiDemTar,g,1,0.9613748299743747,,,,,,,,,,,,,,,,,,380,2023-11-16_09h43.18.340,leap3,2022.2.5,59.992647806616446,
,,,,,,,,,,,,,,,,,,,,11,0,11,0,28,0,28,0,,,,,,vivid,w,g,upper,,,,,,,1,w,HiDemTar,g,1,0.5692975198326167,,,,,,,,,,,,,,,,,,380,2023-11-16_09h43.18.340,leap3,2022.2.5,59.992647806616446,
,,,,,,,,,,,,,,,,,,,,11,0,11,0,29,0,29,0,,,,,,monkey,target,q,upper,,,,,,,1,target,HiDemTar,g,0,0.6316539518302307,,,,,,,,,,,,,,,,,,380,2023-11-16_09h43.18.340,leap3,2022.2.5,59.992647806616446,
,,,,,,,,,,,,,,,,,,,,11,0,11,0,,,,,,,,,,,,,,,,,,,,,,,,,,,0,,,,,,,,,,,,,,,,380,2023-11-16_09h43.18.340,leap3,2022.2.5,59.992647806616446,
,,,,,,,,,,,,,,,,,,,,12,0,12,0,0,0,0,0,,,,,,schides,nw,h,lower,,,,,,,3,nw,LoDemNoTar,h,1,1.061612085075467,,,,,,,,,,,,,,,,,,380,2023-11-16_09h43.18.340,leap3,2022.2.5,59.992647806616446,
,,,,,,,,,,,,,,,,,,,,12,0,12,0,1,0,1,0,,,,,,abraid,nw,h,lower,,,,,,,3,nw,LoDemNoTar,h,1,0.7375463901553303,,,,,,,,,,,,,,,,,,380,2023-11-16_09h43.18.340,leap3,2022.2.5,59.992647806616446,
,,,,,,,,,,,,,,,,,,,,12,0,12,0,2,0,2,0,,,,,,seighing,nw,h,lower,,,,,,,3,nw,LoDemNoTar,h,1,1.1383668218622915,,,,,,,,,,,,,,,,,,380,2023-11-16_09h43.18.340,leap3,2022.2.5,59.992647806616446,
,,,,,,,,,,,,,,,,,,,,12,0,12,0,3,0,3,0,,,,,,chiffol,nw,h,lower,,,,,,,3,nw,LoDemNoTar,h,1,0.7950807483721292,,,,,,,,,,,,,,,,,,380,2023-11-16_09h43.18.340,leap3,2022.2.5,59.992647806616446,
,,,,,,,,,,,,,,,,,,,,12,0,12,0,4,0,4,0,,,,,,hinsome,nw,h,lower,,,,,,,3,nw,LoDemNoTar,h,1,0.8647290011140285,,,,,,,,,,,,,,,,,,380,2023-11-16_09h43.18.340,leap3,2022.2.5,59.992647806616446,
,,,,,,,,,,,,,,,,,,,,12,0,12,0,5,0,5,0,,,,,,ebuating,nw,h,lower,,,,,,,3,nw,LoDemNoTar,h,1,0.660742149761063,,,,,,,,,,,,,,,,,,380,2023-11-16_09h43.18.340,leap3,2022.2.5,59.992647806616446,
,,,,,,,,,,,,,,,,,,,,12,0,12,0,6,0,6,0,,,,,,alber,nw,h,lower,,,,,,,3,nw,LoDemNoTar,h,1,0.8315803001314634,,,,,,,,,,,,,,,,,,380,2023-11-16_09h43.18.340,leap3,2022.2.5,59.992647806616446,
,,,,,,,,,,,,,,,,,,,,12,0,12,0,7,0,7,0,,,,,,batire,nw,h,lower,,,,,,,3,nw,LoDemNoTar,h,1,1.02092072495725,,,,,,,,,,,,,,,,,,380,2023-11-16_09h43.18.340,leap3,2022.2.5,59.992647806616446,
,,,,,,,,,,,,,,,,,,,,12,0,12,0,8,0,8,0,,,,,,doads,nw,h,lower,,,,,,,3,nw,LoDemNoTar,h,1,0.7550613091589184,,,,,,,,,,,,,,,,,,380,2023-11-16_09h43.18.340,leap3,2022.2.5,59.992647806616446,
,,,,,,,,,,,,,,,,,,,,12,0,12,0,9,0,9,0,,,,,,solidity,w,g,lower,,,,,,,3,w,LoDemNoTar,g,1,1.083602552607772,,,,,,,,,,,,,,,,,,380,2023-11-16_09h43.18.340,leap3,2022.2.5,59.992647806616446,
,,,,,,,,,,,,,,,,,,,,12,0,12,0,10,0,10,0,,,,,,tracing,w,g,lower,,,,,,,3,w,LoDemNoTar,g,1,0.7188113883894403,,,,,,,,,,,,,,,,,,380,2023-11-16_09h43.18.340,leap3,2022.2.5,59.992647806616446,
,,,,,,,,,,,,,,,,,,,,12,0,12,0,11,0,11,0,,,,,,stable,w,g,lower,,,,,,,3,w,LoDemNoTar,g,1,0.6879338162398199,,,,,,,,,,,,,,,,,,380,2023-11-16_09h43.18.340,leap3,2022.2.5,59.992647806616446,
,,,,,,,,,,,,,,,,,,,,12,0,12,0,12,0,12,0,,,,,,gremieres,nw,h,lower,,,,,,,3,nw,LoDemNoTar,h,1,0.7947085657797288,,,,,,,,,,,,,,,,,,380,2023-11-16_09h43.18.340,leap3,2022.2.5,59.992647806616446,
,,,,,,,,,,,,,,,,,,,,12,0,12,0,13,0,13,0,,,,,,miurnal,nw,h,lower,,,,,,,3,nw,LoDemNoTar,h,1,0.9692172273935284,,,,,,,,,,,,,,,,,,380,2023-11-16_09h43.18.340,leap3,2022.2.5,59.992647806616446,
,,,,,,,,,,,,,,,,,,,,12,0,12,0,14,0,14,0,,,,,,coverall,w,g,lower,,,,,,,3,w,LoDemNoTar,g,1,0.9366749455803074,,,,,,,,,,,,,,,,,,380,2023-11-16_09h43.18.340,leap3,2022.2.5,59.992647806616446,
,,,,,,,,,,,,,,,,,,,,12,0,12,0,15,0,15,0,,,,,,deceit,w,g,lower,,,,,,,3,w,LoDemNoTar,g,1,0.7213756147830281,,,,,,,,,,,,,,,,,,380,2023-11-16_09h43.18.340,leap3,2022.2.5,59.992647806616446,
,,,,,,,,,,,,,,,,,,,,12,0,12,0,16,0,16,0,,,,,,sording,nw,h,lower,,,,,,,3,nw,LoDemNoTar,h,1,1.0107598080503521,,,,,,,,,,,,,,,,,,380,2023-11-16_09h43.18.340,leap3,2022.2.5,59.992647806616446,
,,,,,,,,,,,,,,,,,,,,12,0,12,0,17,0,17,0,,,,,,official,w,g,lower,,,,,,,3,w,LoDemNoTar,g,1,0.9367751602112548,,,,,,,,,,,,,,,,,,380,2023-11-16_09h43.18.340,leap3,2022.2.5,59.992647806616446,
,,,,,,,,,,,,,,,,,,,,12,0,12,0,18,0,18,0,,,,,,passet,nw,h,lower,,,,,,,3,nw,LoDemNoTar,h,1,0.94546274113236,,,,,,,,,,,,,,,,,,380,2023-11-16_09h43.18.340,leap3,2022.2.5,59.992647806616446,
,,,,,,,,,,,,,,,,,,,,12,0,12,0,19,0,19,0,,,,,,cavern,w,g,lower,,,,,,,3,w,LoDemNoTar,g,1,0.7292454806884052,,,,,,,,,,,,,,,,,,380,2023-11-16_09h43.18.340,leap3,2022.2.5,59.992647806616446,
,,,,,,,,,,,,,,,,,,,,12,0,12,0,20,0,20,0,,,,,,railroad,w,g,lower,,,,,,,3,w,LoDemNoTar,g,1,0.9225461939640809,,,,,,,,,,,,,,,,,,380,2023-11-16_09h43.18.340,leap3,2022.2.5,59.992647806616446,
,,,,,,,,,,,,,,,,,,,,12,0,12,0,21,0,21,0,,,,,,mixture,w,g,lower,,,,,,,3,w,LoDemNoTar,g,1,0.7319950437522493,,,,,,,,,,,,,,,,,,380,2023-11-16_09h43.18.340,leap3,2022.2.5,59.992647806616446,
,,,,,,,,,,,,,,,,,,,,12,0,12,0,22,0,22,0,,,,,,shests,nw,h,lower,,,,,,,3,nw,LoDemNoTar,h,1,0.8612737098155776,,,,,,,,,,,,,,,,,,380,2023-11-16_09h43.18.340,leap3,2022.2.5,59.992647806616446,
,,,,,,,,,,,,,,,,,,,,12,0,12,0,23,0,23,0,,,,,,airline,w,g,lower,,,,,,,3,w,LoDemNoTar,g,1,0.7933155222417554,,,,,,,,,,,,,,,,,,380,2023-11-16_09h43.18.340,leap3,2022.2.5,59.992647806616446,
,,,,,,,,,,,,,,,,,,,,12,0,12,0,24,0,24,0,,,,,,bypassed,w,g,lower,,,,,,,3,w,LoDemNoTar,h,0,0.8640670413151383,,,,,,,,,,,,,,,,,,380,2023-11-16_09h43.18.340,leap3,2022.2.5,59.992647806616446,
,,,,,,,,,,,,,,,,,,,,12,0,12,0,25,0,25,0,,,,,,culinary,w,g,lower,,,,,,,3,w,LoDemNoTar,h,0,1.5080778596602613,,,,,,,,,,,,,,,,,,380,2023-11-16_09h43.18.340,leap3,2022.2.5,59.992647806616446,
,,,,,,,,,,,,,,,,,,,,12,0,12,0,26,0,26,0,,,,,,defeat,w,g,lower,,,,,,,3,w,LoDemNoTar,g,1,0.6701617199723842,,,,,,,,,,,,,,,,,,380,2023-11-16_09h43.18.340,leap3,2022.2.5,59.992647806616446,
,,,,,,,,,,,,,,,,,,,,12,0,12,0,27,0,27,0,,,,,,delegate,w,g,lower,,,,,,,3,w,LoDemNoTar,g,1,0.7694828565145144,,,,,,,,,,,,,,,,,,380,2023-11-16_09h43.18.340,leap3,2022.2.5,59.992647806616446,
,,,,,,,,,,,,,,,,,,,,12,0,12,0,28,0,28,0,,,,,,halms,nw,h,lower,,,,,,,3,nw,LoDemNoTar,h,1,0.656828950101044,,,,,,,,,,,,,,,,,,380,2023-11-16_09h43.18.340,leap3,2022.2.5,59.992647806616446,
,,,,,,,,,,,,,,,,,,,,12,0,12,0,29,0,29,0,,,,,,digest,w,g,lower,,,,,,,3,w,LoDemNoTar,g,1,0.6107353581028292,,,,,,,,,,,,,,,,,,380,2023-11-16_09h43.18.340,leap3,2022.2.5,59.992647806616446,
,,,,,,,,,,,,,,,,,,,,12,0,12,0,,,,,,,,,,,,,,,,,,,,,,,,,,,NA,,,,,,,,,,,,,,,,380,2023-11-16_09h43.18.340,leap3,2022.2.5,59.992647806616446,
,,,,,,,,,,,,,,,,,,,,13,0,13,0,0,0,0,0,,,,,,restock,w,g,lower,,,,,,,3,w,LoDemNoTar,g,1,1.441895463023684,,,,,,,,,,,,,,,,,,380,2023-11-16_09h43.18.340,leap3,2022.2.5,59.992647806616446,
,,,,,,,,,,,,,,,,,,,,13,0,13,0,1,0,1,0,,,,,,kettle,w,g,lower,,,,,,,3,w,LoDemNoTar,g,1,0.6306155835191021,,,,,,,,,,,,,,,,,,380,2023-11-16_09h43.18.340,leap3,2022.2.5,59.992647806616446,
,,,,,,,,,,,,,,,,,,,,13,0,13,0,2,0,2,0,,,,,,childhood,w,g,lower,,,,,,,3,w,LoDemNoTar,g,1,0.7399352409847779,,,,,,,,,,,,,,,,,,380,2023-11-16_09h43.18.340,leap3,2022.2.5,59.992647806616446,
,,,,,,,,,,,,,,,,,,,,13,0,13,0,3,0,3,0,,,,,,hangar,w,g,lower,,,,,,,3,w,LoDemNoTar,g,1,0.667574854727718,,,,,,,,,,,,,,,,,,380,2023-11-16_09h43.18.340,leap3,2022.2.5,59.992647806616446,
,,,,,,,,,,,,,,,,,,,,13,0,13,0,4,0,4,0,,,,,,stagger,w,g,lower,,,,,,,3,w,LoDemNoTar,g,1,0.6394399030832574,,,,,,,,,,,,,,,,,,380,2023-11-16_09h43.18.340,leap3,2022.2.5,59.992647806616446,
,,,,,,,,,,,,,,,,,,,,13,0,13,0,5,0,5,0,,,,,,disperse,w,g,lower,,,,,,,3,w,LoDemNoTar,g,1,0.7483882834931137,,,,,,,,,,,,,,,,,,380,2023-11-16_09h43.18.340,leap3,2022.2.5,59.992647806616446,
,,,,,,,,,,,,,,,,,,,,13,0,13,0,6,0,6,0,,,,,,slooping,nw,h,lower,,,,,,,3,nw,LoDemNoTar,h,1,0.9891572193737375,,,,,,,,,,,,,,,,,,380,2023-11-16_09h43.18.340,leap3,2022.2.5,59.992647806616446,
,,,,,,,,,,,,,,,,,,,,13,0,13,0,7,0,7,0,,,,,,decant,w,g,lower,,,,,,,3,w,LoDemNoTar,g,1,1.1078055898251478,,,,,,,,,,,,,,,,,,380,2023-11-16_09h43.18.340,leap3,2022.2.5,59.992647806616446,
,,,,,,,,,,,,,,,,,,,,13,0,13,0,8,0,8,0,,,,,,legalosm,nw,h,lower,,,,,,,3,nw,LoDemNoTar,h,1,0.7818708319537109,,,,,,,,,,,,,,,,,,380,2023-11-16_09h43.18.340,leap3,2022.2.5,59.992647806616446,
,,,,,,,,,,,,,,,,,,,,13,0,13,0,9,0,9,0,,,,,,sponto,nw,h,lower,,,,,,,3,nw,LoDemNoTar,h,1,0.6612196784262778,,,,,,,,,,,,,,,,,,380,2023-11-16_09h43.18.340,leap3,2022.2.5,59.992647806616446,
,,,,,,,,,,,,,,,,,,,,13,0,13,0,10,0,10,0,,,,,,retain,w,g,lower,,,,,,,3,w,LoDemNoTar,g,1,0.7043687114492059,,,,,,,,,,,,,,,,,,380,2023-11-16_09h43.18.340,leap3,2022.2.5,59.992647806616446,
,,,,,,,,,,,,,,,,,,,,13,0,13,0,11,0,11,0,,,,,,gund,nw,h,lower,,,,,,,3,nw,LoDemNoTar,h,1,1.0023218581045512,,,,,,,,,,,,,,,,,,380,2023-11-16_09h43.18.340,leap3,2022.2.5,59.992647806616446,
,,,,,,,,,,,,,,,,,,,,13,0,13,0,12,0,12,0,,,,,,amplifier,w,g,lower,,,,,,,3,w,LoDemNoTar,g,1,0.9603135209763423,,,,,,,,,,,,,,,,,,380,2023-11-16_09h43.18.340,leap3,2022.2.5,59.992647806616446,
,,,,,,,,,,,,,,,,,,,,13,0,13,0,13,0,13,0,,,,,,racile,nw,h,lower,,,,,,,3,nw,LoDemNoTar,h,1,0.848347231731168,,,,,,,,,,,,,,,,,,380,2023-11-16_09h43.18.340,leap3,2022.2.5,59.992647806616446,
,,,,,,,,,,,,,,,,,,,,13,0,13,0,14,0,14,0,,,,,,pircus,nw,h,lower,,,,,,,3,nw,LoDemNoTar,h,1,1.0210535395162879,,,,,,,,,,,,,,,,,,380,2023-11-16_09h43.18.340,leap3,2022.2.5,59.992647806616446,
,,,,,,,,,,,,,,,,,,,,13,0,13,0,15,0,15,0,,,,,,dislokes,nw,h,lower,,,,,,,3,nw,LoDemNoTar,h,1,1.226471769521595,,,,,,,,,,,,,,,,,,380,2023-11-16_09h43.18.340,leap3,2022.2.5,59.992647806616446,
,,,,,,,,,,,,,,,,,,,,13,0,13,0,16,0,16,0,,,,,,bingu,nw,h,lower,,,,,,,3,nw,LoDemNoTar,h,1,0.6558295206050389,,,,,,,,,,,,,,,,,,380,2023-11-16_09h43.18.340,leap3,2022.2.5,59.992647806616446,
,,,,,,,,,,,,,,,,,,,,13,0,13,0,17,0,17,0,,,,,,mennel,nw,h,lower,,,,,,,3,nw,LoDemNoTar,h,1,0.6999170091730775,,,,,,,,,,,,,,,,,,380,2023-11-16_09h43.18.340,leap3,2022.2.5,59.992647806616446,
,,,,,,,,,,,,,,,,,,,,13,0,13,0,18,0,18,0,,,,,,fullity,nw,h,lower,,,,,,,3,nw,LoDemNoTar,h,1,1.42176771958475,,,,,,,,,,,,,,,,,,380,2023-11-16_09h43.18.340,leap3,2022.2.5,59.992647806616446,
,,,,,,,,,,,,,,,,,,,,13,0,13,0,19,0,19,0,,,,,,ounside,nw,h,lower,,,,,,,3,nw,LoDemNoTar,h,1,0.8498721842479426,,,,,,,,,,,,,,,,,,380,2023-11-16_09h43.18.340,leap3,2022.2.5,59.992647806616446,
,,,,,,,,,,,,,,,,,,,,13,0,13,0,20,0,20,0,,,,,,regards,w,g,lower,,,,,,,3,w,LoDemNoTar,g,1,1.2547857189638307,,,,,,,,,,,,,,,,,,380,2023-11-16_09h43.18.340,leap3,2022.2.5,59.992647806616446,
,,,,,,,,,,,,,,,,,,,,13,0,13,0,21,0,21,0,,,,,,postal,w,g,lower,,,,,,,3,w,LoDemNoTar,g,1,1.619699132934329,,,,,,,,,,,,,,,,,,380,2023-11-16_09h43.18.340,leap3,2022.2.5,59.992647806616446,
,,,,,,,,,,,,,,,,,,,,13,0,13,0,22,0,22,0,,,,,,classify,w,g,lower,,,,,,,3,w,LoDemNoTar,g,1,0.8490091915300582,,,,,,,,,,,,,,,,,,380,2023-11-16_09h43.18.340,leap3,2022.2.5,59.992647806616446,
,,,,,,,,,,,,,,,,,,,,13,0,13,0,23,0,23,0,,,,,,dazid,nw,h,lower,,,,,,,3,nw,LoDemNoTar,h,1,0.8537681783927837,,,,,,,,,,,,,,,,,,380,2023-11-16_09h43.18.340,leap3,2022.2.5,59.992647806616446,
,,,,,,,,,,,,,,,,,,,,13,0,13,0,24,0,24,0,,,,,,border,w,g,lower,,,,,,,3,w,LoDemNoTar,g,1,1.041744839239982,,,,,,,,,,,,,,,,,,380,2023-11-16_09h43.18.340,leap3,2022.2.5,59.992647806616446,
,,,,,,,,,,,,,,,,,,,,13,0,13,0,25,0,25,0,,,,,,lasprey,nw,h,lower,,,,,,,3,nw,LoDemNoTar,h,1,0.7184660705534043,,,,,,,,,,,,,,,,,,380,2023-11-16_09h43.18.340,leap3,2022.2.5,59.992647806616446,
,,,,,,,,,,,,,,,,,,,,13,0,13,0,26,0,26,0,,,,,,desert,w,g,lower,,,,,,,3,w,LoDemNoTar,g,1,0.7909127862658352,,,,,,,,,,,,,,,,,,380,2023-11-16_09h43.18.340,leap3,2022.2.5,59.992647806616446,
,,,,,,,,,,,,,,,,,,,,13,0,13,0,27,0,27,0,,,,,,pranny,nw,h,lower,,,,,,,3,nw,LoDemNoTar,h,1,0.7895363445568364,,,,,,,,,,,,,,,,,,380,2023-11-16_09h43.18.340,leap3,2022.2.5,59.992647806616446,
,,,,,,,,,,,,,,,,,,,,13,0,13,0,28,0,28,0,,,,,,contain,w,g,lower,,,,,,,3,w,LoDemNoTar,g,1,0.676285980065586,,,,,,,,,,,,,,,,,,380,2023-11-16_09h43.18.340,leap3,2022.2.5,59.992647806616446,
,,,,,,,,,,,,,,,,,,,,13,0,13,0,29,0,29,0,,,,,,sporidic,nw,h,lower,,,,,,,3,nw,LoDemNoTar,h,1,1.0315486057515955,,,,,,,,,,,,,,,,,,380,2023-11-16_09h43.18.340,leap3,2022.2.5,59.992647806616446,
,,,,,,,,,,,,,,,,,,,,13,0,13,0,,,,,,,,,,,,,,,,,,,,,,,,,,,NA,,,,,,,,,,,,,,,,380,2023-11-16_09h43.18.340,leap3,2022.2.5,59.992647806616446,
,,,,,,,,,,,,,,,,,,,,14,0,14,0,0,0,0,0,,,,,,atble,nw,h,lower,,,,,,,3,nw,LoDemNoTar,h,1,0.7497725733555853,,,,,,,,,,,,,,,,,,380,2023-11-16_09h43.18.340,leap3,2022.2.5,59.992647806616446,
,,,,,,,,,,,,,,,,,,,,14,0,14,0,1,0,1,0,,,,,,release,w,g,lower,,,,,,,3,w,LoDemNoTar,g,1,0.6774939887836808,,,,,,,,,,,,,,,,,,380,2023-11-16_09h43.18.340,leap3,2022.2.5,59.992647806616446,
,,,,,,,,,,,,,,,,,,,,14,0,14,0,2,0,2,0,,,,,,formation,w,g,lower,,,,,,,3,w,LoDemNoTar,g,1,0.9847978835750837,,,,,,,,,,,,,,,,,,380,2023-11-16_09h43.18.340,leap3,2022.2.5,59.992647806616446,
,,,,,,,,,,,,,,,,,,,,14,0,14,0,3,0,3,0,,,,,,trises,nw,h,lower,,,,,,,3,nw,LoDemNoTar,h,1,0.6394405067840125,,,,,,,,,,,,,,,,,,380,2023-11-16_09h43.18.340,leap3,2022.2.5,59.992647806616446,
,,,,,,,,,,,,,,,,,,,,14,0,14,0,4,0,4,0,,,,,,profats,nw,h,lower,,,,,,,3,nw,LoDemNoTar,h,1,1.0362276020314312,,,,,,,,,,,,,,,,,,380,2023-11-16_09h43.18.340,leap3,2022.2.5,59.992647806616446,
,,,,,,,,,,,,,,,,,,,,14,0,14,0,5,0,5,0,,,,,,stretches,w,g,lower,,,,,,,3,w,LoDemNoTar,g,1,1.6011020771984477,,,,,,,,,,,,,,,,,,380,2023-11-16_09h43.18.340,leap3,2022.2.5,59.992647806616446,
,,,,,,,,,,,,,,,,,,,,14,0,14,0,6,0,6,0,,,,,,dabble,w,g,lower,,,,,,,3,w,LoDemNoTar,g,1,0.8949186542449752,,,,,,,,,,,,,,,,,,380,2023-11-16_09h43.18.340,leap3,2022.2.5,59.992647806616446,
,,,,,,,,,,,,,,,,,,,,14,0,14,0,7,0,7,0,,,,,,handed,w,g,lower,,,,,,,3,w,LoDemNoTar,h,0,1.600420497066807,,,,,,,,,,,,,,,,,,380,2023-11-16_09h43.18.340,leap3,2022.2.5,59.992647806616446,
,,,,,,,,,,,,,,,,,,,,14,0,14,0,8,0,8,0,,,,,,sludding,nw,h,lower,,,,,,,3,nw,LoDemNoTar,h,1,0.9265496471343795,,,,,,,,,,,,,,,,,,380,2023-11-16_09h43.18.340,leap3,2022.2.5,59.992647806616446,
,,,,,,,,,,,,,,,,,,,,14,0,14,0,9,0,9,0,,,,,,grieving,w,g,lower,,,,,,,3,w,LoDemNoTar,g,1,0.7515848882758291,,,,,,,,,,,,,,,,,,380,2023-11-16_09h43.18.340,leap3,2022.2.5,59.992647806616446,
,,,,,,,,,,,,,,,,,,,,14,0,14,0,10,0,10,0,,,,,,teliever,nw,h,lower,,,,,,,3,nw,LoDemNoTar,h,1,0.8480103657202562,,,,,,,,,,,,,,,,,,380,2023-11-16_09h43.18.340,leap3,2022.2.5,59.992647806616446,
,,,,,,,,,,,,,,,,,,,,14,0,14,0,11,0,11,0,,,,,,iflaid,nw,h,lower,,,,,,,3,nw,LoDemNoTar,h,1,0.692603153293021,,,,,,,,,,,,,,,,,,380,2023-11-16_09h43.18.340,leap3,2022.2.5,59.992647806616446,
,,,,,,,,,,,,,,,,,,,,14,0,14,0,12,0,12,0,,,,,,professor,w,g,lower,,,,,,,3,w,LoDemNoTar,g,1,1.279400783154415,,,,,,,,,,,,,,,,,,380,2023-11-16_09h43.18.340,leap3,2022.2.5,59.992647806616446,
,,,,,,,,,,,,,,,,,,,,14,0,14,0,13,0,13,0,,,,,,mitten,w,g,lower,,,,,,,3,w,LoDemNoTar,g,1,1.394711886154255,,,,,,,,,,,,,,,,,,380,2023-11-16_09h43.18.340,leap3,2022.2.5,59.992647806616446,
,,,,,,,,,,,,,,,,,,,,14,0,14,0,14,0,14,0,,,,,,gairs,nw,h,lower,,,,,,,3,nw,LoDemNoTar,h,1,0.6733275359147228,,,,,,,,,,,,,,,,,,380,2023-11-16_09h43.18.340,leap3,2022.2.5,59.992647806616446,
,,,,,,,,,,,,,,,,,,,,14,0,14,0,15,0,15,0,,,,,,smabled,nw,h,lower,,,,,,,3,nw,LoDemNoTar,h,1,0.6287954204599373,,,,,,,,,,,,,,,,,,380,2023-11-16_09h43.18.340,leap3,2022.2.5,59.992647806616446,
,,,,,,,,,,,,,,,,,,,,14,0,14,0,16,0,16,0,,,,,,valif,nw,h,lower,,,,,,,3,nw,LoDemNoTar,h,1,0.7702054884139216,,,,,,,,,,,,,,,,,,380,2023-11-16_09h43.18.340,leap3,2022.2.5,59.992647806616446,
,,,,,,,,,,,,,,,,,,,,14,0,14,0,17,0,17,0,,,,,,vintnel,nw,h,lower,,,,,,,3,nw,LoDemNoTar,h,1,1.0565107988804812,,,,,,,,,,,,,,,,,,380,2023-11-16_09h43.18.340,leap3,2022.2.5,59.992647806616446,
,,,,,,,,,,,,,,,,,,,,14,0,14,0,18,0,18,0,,,,,,stifle,w,g,lower,,,,,,,3,w,LoDemNoTar,g,1,1.0205585034418618,,,,,,,,,,,,,,,,,,380,2023-11-16_09h43.18.340,leap3,2022.2.5,59.992647806616446,
,,,,,,,,,,,,,,,,,,,,14,0,14,0,19,0,19,0,,,,,,railway,w,g,lower,,,,,,,3,w,LoDemNoTar,g,1,0.8899528992915293,,,,,,,,,,,,,,,,,,380,2023-11-16_09h43.18.340,leap3,2022.2.5,59.992647806616446,
,,,,,,,,,,,,,,,,,,,,14,0,14,0,20,0,20,0,,,,,,encounter,w,g,lower,,,,,,,3,w,LoDemNoTar,g,1,0.6685462120658485,,,,,,,,,,,,,,,,,,380,2023-11-16_09h43.18.340,leap3,2022.2.5,59.992647806616446,
,,,,,,,,,,,,,,,,,,,,14,0,14,0,21,0,21,0,,,,,,veranpah,nw,h,lower,,,,,,,3,nw,LoDemNoTar,h,1,1.6719360016577411,,,,,,,,,,,,,,,,,,380,2023-11-16_09h43.18.340,leap3,2022.2.5,59.992647806616446,
,,,,,,,,,,,,,,,,,,,,14,0,14,0,22,0,22,0,,,,,,treenery,nw,h,lower,,,,,,,3,nw,LoDemNoTar,h,1,2.179397160944063,,,,,,,,,,,,,,,,,,380,2023-11-16_09h43.18.340,leap3,2022.2.5,59.992647806616446,
,,,,,,,,,,,,,,,,,,,,14,0,14,0,23,0,23,0,,,,,,pakened,nw,h,lower,,,,,,,3,nw,LoDemNoTar,h,1,0.6506422068050597,,,,,,,,,,,,,,,,,,380,2023-11-16_09h43.18.340,leap3,2022.2.5,59.992647806616446,
,,,,,,,,,,,,,,,,,,,,14,0,14,0,24,0,24,0,,,,,,maiden,w,g,lower,,,,,,,3,w,LoDemNoTar,g,1,0.8777246031531831,,,,,,,,,,,,,,,,,,380,2023-11-16_09h43.18.340,leap3,2022.2.5,59.992647806616446,
,,,,,,,,,,,,,,,,,,,,14,0,14,0,25,0,25,0,,,,,,ronic,nw,h,lower,,,,,,,3,nw,LoDemNoTar,h,1,0.8090791002759943,,,,,,,,,,,,,,,,,,380,2023-11-16_09h43.18.340,leap3,2022.2.5,59.992647806616446,
,,,,,,,,,,,,,,,,,,,,14,0,14,0,26,0,26,0,,,,,,exclusion,w,g,lower,,,,,,,3,w,LoDemNoTar,g,1,0.8872685360838659,,,,,,,,,,,,,,,,,,380,2023-11-16_09h43.18.340,leap3,2022.2.5,59.992647806616446,
,,,,,,,,,,,,,,,,,,,,14,0,14,0,27,0,27,0,,,,,,pracking,nw,h,lower,,,,,,,3,nw,LoDemNoTar,h,1,0.7058191067335429,,,,,,,,,,,,,,,,,,380,2023-11-16_09h43.18.340,leap3,2022.2.5,59.992647806616446,
,,,,,,,,,,,,,,,,,,,,14,0,14,0,28,0,28,0,,,,,,filter,w,g,lower,,,,,,,3,w,LoDemNoTar,g,1,1.2038745809550164,,,,,,,,,,,,,,,,,,380,2023-11-16_09h43.18.340,leap3,2022.2.5,59.992647806616446,
,,,,,,,,,,,,,,,,,,,,14,0,14,0,29,0,29,0,,,,,,venturous,w,g,lower,,,,,,,3,w,LoDemNoTar,g,1,1.7687876930722268,,,,,,,,,,,,,,,,,,380,2023-11-16_09h43.18.340,leap3,2022.2.5,59.992647806616446,
,,,,,,,,,,,,,,,,,,,,14,0,14,0,,,,,,,,,,,,,,,,,,,,,,,,,,,NA,,,,,,,,,,,,,,,,380,2023-11-16_09h43.18.340,leap3,2022.2.5,59.992647806616446,
,,,,,,,,,,,,,,,,,,,,15,0,15,0,0,0,0,0,,,,,,shillac,nw,h,lower,,,,,,,3,nw,LoDemNoTar,h,1,0.7762379857158521,,,,,,,,,,,,,,,,,,380,2023-11-16_09h43.18.340,leap3,2022.2.5,59.992647806616446,
,,,,,,,,,,,,,,,,,,,,15,0,15,0,1,0,1,0,,,,,,snays,nw,h,lower,,,,,,,3,nw,LoDemNoTar,h,1,1.0875386929546949,,,,,,,,,,,,,,,,,,380,2023-11-16_09h43.18.340,leap3,2022.2.5,59.992647806616446,
,,,,,,,,,,,,,,,,,,,,15,0,15,0,2,0,2,0,,,,,,ebince,nw,h,lower,,,,,,,3,nw,LoDemNoTar,h,1,1.0341892005235422,,,,,,,,,,,,,,,,,,380,2023-11-16_09h43.18.340,leap3,2022.2.5,59.992647806616446,
,,,,,,,,,,,,,,,,,,,,15,0,15,0,3,0,3,0,,,,,,dorte,nw,h,lower,,,,,,,3,nw,LoDemNoTar,h,1,1.134904889840982,,,,,,,,,,,,,,,,,,380,2023-11-16_09h43.18.340,leap3,2022.2.5,59.992647806616446,
,,,,,,,,,,,,,,,,,,,,15,0,15,0,4,0,4,0,,,,,,drauns,nw,h,lower,,,,,,,3,nw,LoDemNoTar,h,1,0.5994998507230775,,,,,,,,,,,,,,,,,,380,2023-11-16_09h43.18.340,leap3,2022.2.5,59.992647806616446,
,,,,,,,,,,,,,,,,,,,,15,0,15,0,5,0,5,0,,,,,,outfit,w,g,lower,,,,,,,3,w,LoDemNoTar,g,1,0.7661742649215739,,,,,,,,,,,,,,,,,,380,2023-11-16_09h43.18.340,leap3,2022.2.5,59.992647806616446,
,,,,,,,,,,,,,,,,,,,,15,0,15,0,6,0,6,0,,,,,,comment,w,g,lower,,,,,,,3,w,LoDemNoTar,g,1,0.9891300527669955,,,,,,,,,,,,,,,,,,380,2023-11-16_09h43.18.340,leap3,2022.2.5,59.992647806616446,
,,,,,,,,,,,,,,,,,,,,15,0,15,0,7,0,7,0,,,,,,gaining,w,g,lower,,,,,,,3,w,LoDemNoTar,g,1,0.7798116027115611,,,,,,,,,,,,,,,,,,380,2023-11-16_09h43.18.340,leap3,2022.2.5,59.992647806616446,
,,,,,,,,,,,,,,,,,,,,15,0,15,0,8,0,8,0,,,,,,insole,w,g,lower,,,,,,,3,w,LoDemNoTar,g,1,1.099162079175585,,,,,,,,,,,,,,,,,,380,2023-11-16_09h43.18.340,leap3,2022.2.5,59.992647806616446,
,,,,,,,,,,,,,,,,,,,,15,0,15,0,9,0,9,0,,,,,,scack,nw,h,lower,,,,,,,3,nw,LoDemNoTar,h,1,0.8457977960351855,,,,,,,,,,,,,,,,,,380,2023-11-16_09h43.18.340,leap3,2022.2.5,59.992647806616446,
,,,,,,,,,,,,,,,,,,,,15,0,15,0,10,0,10,0,,,,,,virulent,w,g,lower,,,,,,,3,w,LoDemNoTar,g,1,0.9625586906040553,,,,,,,,,,,,,,,,,,380,2023-11-16_09h43.18.340,leap3,2022.2.5,59.992647806616446,
,,,,,,,,,,,,,,,,,,,,15,0,15,0,11,0,11,0,,,,,,penalize,w,g,lower,,,,,,,3,w,LoDemNoTar,g,1,1.4265291212504962,,,,,,,,,,,,,,,,,,380,2023-11-16_09h43.18.340,leap3,2022.2.5,59.992647806616446,
,,,,,,,,,,,,,,,,,,,,15,0,15,0,12,0,12,0,,,,,,asclibed,nw,h,lower,,,,,,,3,nw,LoDemNoTar,h,1,0.9279251832922455,,,,,,,,,,,,,,,,,,380,2023-11-16_09h43.18.340,leap3,2022.2.5,59.992647806616446,
,,,,,,,,,,,,,,,,,,,,15,0,15,0,13,0,13,0,,,,,,emergence,w,g,lower,,,,,,,3,w,LoDemNoTar,g,1,0.9133258455549367,,,,,,,,,,,,,,,,,,380,2023-11-16_09h43.18.340,leap3,2022.2.5,59.992647806616446,
,,,,,,,,,,,,,,,,,,,,15,0,15,0,14,0,14,0,,,,,,knowledge,w,g,lower,,,,,,,3,w,LoDemNoTar,g,1,0.6663182479533134,,,,,,,,,,,,,,,,,,380,2023-11-16_09h43.18.340,leap3,2022.2.5,59.992647806616446,
,,,,,,,,,,,,,,,,,,,,15,0,15,0,15,0,15,0,,,,,,imotope,nw,h,lower,,,,,,,3,nw,LoDemNoTar,h,1,0.9903422873903764,,,,,,,,,,,,,,,,,,380,2023-11-16_09h43.18.340,leap3,2022.2.5,59.992647806616446,
,,,,,,,,,,,,,,,,,,,,15,0,15,0,16,0,16,0,,,,,,ephically,nw,h,lower,,,,,,,3,nw,LoDemNoTar,h,1,1.7891560119751375,,,,,,,,,,,,,,,,,,380,2023-11-16_09h43.18.340,leap3,2022.2.5,59.992647806616446,
,,,,,,,,,,,,,,,,,,,,15,0,15,0,17,0,17,0,,,,,,picnic,w,g,lower,,,,,,,3,w,LoDemNoTar,g,1,0.8986851541994838,,,,,,,,,,,,,,,,,,380,2023-11-16_09h43.18.340,leap3,2022.2.5,59.992647806616446,
,,,,,,,,,,,,,,,,,,,,15,0,15,0,18,0,18,0,,,,,,paterways,nw,h,lower,,,,,,,3,nw,LoDemNoTar,h,1,0.8621641710051335,,,,,,,,,,,,,,,,,,380,2023-11-16_09h43.18.340,leap3,2022.2.5,59.992647806616446,
,,,,,,,,,,,,,,,,,,,,15,0,15,0,19,0,19,0,,,,,,alomalous,nw,h,lower,,,,,,,3,nw,LoDemNoTar,h,1,1.0663061739178374,,,,,,,,,,,,,,,,,,380,2023-11-16_09h43.18.340,leap3,2022.2.5,59.992647806616446,
,,,,,,,,,,,,,,,,,,,,15,0,15,0,20,0,20,0,,,,,,peadgear,nw,h,lower,,,,,,,3,nw,LoDemNoTar,h,1,0.8294655302452156,,,,,,,,,,,,,,,,,,380,2023-11-16_09h43.18.340,leap3,2022.2.5,59.992647806616446,
,,,,,,,,,,,,,,,,,,,,15,0,15,0,21,0,21,0,,,,,,miteous,nw,h,lower,,,,,,,3,nw,LoDemNoTar,h,1,0.8906100294552743,,,,,,,,,,,,,,,,,,380,2023-11-16_09h43.18.340,leap3,2022.2.5,59.992647806616446,
,,,,,,,,,,,,,,,,,,,,15,0,15,0,22,0,22,0,,,,,,unmarked,w,g,lower,,,,,,,3,w,LoDemNoTar,g,1,1.0773451761197066,,,,,,,,,,,,,,,,,,380,2023-11-16_09h43.18.340,leap3,2022.2.5,59.992647806616446,
,,,,,,,,,,,,,,,,,,,,15,0,15,0,23,0,23,0,,,,,,butcher,w,g,lower,,,,,,,3,w,LoDemNoTar,g,1,1.1687409061269136,,,,,,,,,,,,,,,,,,380,2023-11-16_09h43.18.340,leap3,2022.2.5,59.992647806616446,
,,,,,,,,,,,,,,,,,,,,15,0,15,0,24,0,24,0,,,,,,melodic,w,g,lower,,,,,,,3,w,LoDemNoTar,g,1,1.2320496788306627,,,,,,,,,,,,,,,,,,380,2023-11-16_09h43.18.340,leap3,2022.2.5,59.992647806616446,
,,,,,,,,,,,,,,,,,,,,15,0,15,0,25,0,25,0,,,,,,gewer,nw,h,lower,,,,,,,3,nw,LoDemNoTar,h,1,1.0053624057909474,,,,,,,,,,,,,,,,,,380,2023-11-16_09h43.18.340,leap3,2022.2.5,59.992647806616446,
,,,,,,,,,,,,,,,,,,,,15,0,15,0,26,0,26,0,,,,,,collision,w,g,lower,,,,,,,3,w,LoDemNoTar,g,1,0.7715061654598685,,,,,,,,,,,,,,,,,,380,2023-11-16_09h43.18.340,leap3,2022.2.5,59.992647806616446,
,,,,,,,,,,,,,,,,,,,,15,0,15,0,27,0,27,0,,,,,,slending,nw,h,lower,,,,,,,3,nw,LoDemNoTar,h,1,2.0348795343306847,,,,,,,,,,,,,,,,,,380,2023-11-16_09h43.18.340,leap3,2022.2.5,59.992647806616446,
,,,,,,,,,,,,,,,,,,,,15,0,15,0,28,0,28,0,,,,,,abhorrent,w,g,lower,,,,,,,3,w,LoDemNoTar,g,1,0.9905985591030912,,,,,,,,,,,,,,,,,,380,2023-11-16_09h43.18.340,leap3,2022.2.5,59.992647806616446,
,,,,,,,,,,,,,,,,,,,,15,0,15,0,29,0,29,0,,,,,,actual,w,g,lower,,,,,,,3,w,LoDemNoTar,g,1,0.6612607302085962,,,,,,,,,,,,,,,,,,380,2023-11-16_09h43.18.340,leap3,2022.2.5,59.992647806616446,
,,,,,,,,,,,,,,,,,,,,15,0,15,0,,,,,,,,,,,,,,,,,,,,,,,,,,,NA,,,,,,,,,,,,,,,,380,2023-11-16_09h43.18.340,leap3,2022.2.5,59.992647806616446,
,,,,,,,,,,,,,,,,,,,,16,0,16,0,0,0,0,0,,,,,,sequence,w,g,upper,,,,,,,1,w,HiDemTar,g,1,0.7541952979081543,,,,,,,,,,,,,,,,,,380,2023-11-16_09h43.18.340,leap3,2022.2.5,59.992647806616446,
,,,,,,,,,,,,,,,,,,,,16,0,16,0,1,0,1,0,,,,,,committed,w,g,upper,,,,,,,1,w,HiDemTar,g,1,0.6261895385978278,,,,,,,,,,,,,,,,,,380,2023-11-16_09h43.18.340,leap3,2022.2.5,59.992647806616446,
,,,,,,,,,,,,,,,,,,,,16,0,16,0,2,0,2,0,,,,,,arrigns,nw,h,upper,,,,,,,1,nw,HiDemTar,h,1,0.8155206060182536,,,,,,,,,,,,,,,,,,380,2023-11-16_09h43.18.340,leap3,2022.2.5,59.992647806616446,
,,,,,,,,,,,,,,,,,,,,16,0,16,0,3,0,3,0,,,,,,heuls,nw,h,upper,,,,,,,1,nw,HiDemTar,h,1,0.780564419736038,,,,,,,,,,,,,,,,,,380,2023-11-16_09h43.18.340,leap3,2022.2.5,59.992647806616446,
,,,,,,,,,,,,,,,,,,,,16,0,16,0,4,0,4,0,,,,,,argue,w,g,upper,,,,,,,1,w,HiDemTar,g,1,0.8026626481732819,,,,,,,,,,,,,,,,,,380,2023-11-16_09h43.18.340,leap3,2022.2.5,59.992647806616446,
,,,,,,,,,,,,,,,,,,,,16,0,16,0,5,0,5,0,,,,,,sullen,w,g,upper,,,,,,,1,w,HiDemTar,h,0,1.2247593673528172,,,,,,,,,,,,,,,,,,380,2023-11-16_09h43.18.340,leap3,2022.2.5,59.992647806616446,
,,,,,,,,,,,,,,,,,,,,16,0,16,0,6,0,6,0,,,,,,hustle,w,g,upper,,,,,,,1,w,HiDemTar,g,1,1.1108210838428931,,,,,,,,,,,,,,,,,,380,2023-11-16_09h43.18.340,leap3,2022.2.5,59.992647806616446,
,,,,,,,,,,,,,,,,,,,,16,0,16,0,7,0,7,0,,,,,,mosary,nw,h,upper,,,,,,,1,nw,HiDemTar,h,1,1.065329081407981,,,,,,,,,,,,,,,,,,380,2023-11-16_09h43.18.340,leap3,2022.2.5,59.992647806616446,
