demoRace_loop.thisRepN,demoRace_loop.thisTrialN,demoRace_loop.thisN,demoRace_loop.thisIndex,LDTunderstand.thisRepN,LDTunderstand.thisTrialN,LDTunderstand.thisN,LDTunderstand.thisIndex,pracBlocks.thisRepN,pracBlocks.thisTrialN,pracBlocks.thisN,pracBlocks.thisIndex,pracTrial.thisRepN,pracTrial.thisTrialN,pracTrial.thisN,pracTrial.thisIndex,PMunderstand.thisRepN,PMunderstand.thisTrialN,PMunderstand.thisN,PMunderstand.thisIndex,LDT_block.thisRepN,LDT_block.thisTrialN,LDT_block.thisN,LDT_block.thisIndex,LDT_trial.thisRepN,LDT_trial.thisTrialN,LDT_trial.thisN,LDT_trial.thisIndex,ageTextbox.text,genderTextbox.text,race,raceResp,LDTunderstand,stim,word_type,corr_key,stim_location,LDTpracKey.keys,LDTpracKey.corr,LDTpracKey.rt,PMunderstand,cueTextbox.text,intentionTextbox.text,block_type,role,block_desc,LDTResp.keys,LDTResp.corr,LDTResp.rt,PM_accuracy,pressedQ,postQ1,Q2Textbox.text,Q3Textbox.text,Q4,Q5,Q6Key.keys,Q6Key.rt,postQ7_correct,postQ7,Q8Textbox.text,education,medTextbox.text,health,healthLimit,psych,participant,date,expName,psychopyVersion,frameRate,
0,0,0,0,,,,,,,,,,,,,,,,,,,,,,,,,"
20", woman ,American Indian or Alaska Native,n,,,,,,,,,,,,,,,,,,,,,,,,,,,,,,,,,,,381,2023-11-16_10h00.49.531,leap3,2022.2.5,60.02065318891152,
1,0,1,0,,,,,,,,,,,,,,,,,,,,,,,,,,,Asian,n,,,,,,,,,,,,,,,,,,,,,,,,,,,,,,,,,,,381,2023-11-16_10h00.49.531,leap3,2022.2.5,60.02065318891152,
2,0,2,0,,,,,,,,,,,,,,,,,,,,,,,,,,,Black or African American,n,,,,,,,,,,,,,,,,,,,,,,,,,,,,,,,,,,,381,2023-11-16_10h00.49.531,leap3,2022.2.5,60.02065318891152,
3,0,3,0,,,,,,,,,,,,,,,,,,,,,,,,,,,Native Hawaiian or other Pacific Islander,n,,,,,,,,,,,,,,,,,,,,,,,,,,,,,,,,,,,381,2023-11-16_10h00.49.531,leap3,2022.2.5,60.02065318891152,
4,0,4,0,,,,,,,,,,,,,,,,,,,,,,,,,,,White,y,,,,,,,,,,,,,,,,,,,,,,,,,,,,,,,,,,,381,2023-11-16_10h00.49.531,leap3,2022.2.5,60.02065318891152,
,,,,0,0,0,0,,,,,,,,,,,,,,,,,,,,,,,,,y,,,,,,,,,,,,,,,,,,,,,,,,,,,,,,,,,,381,2023-11-16_10h00.49.531,leap3,2022.2.5,60.02065318891152,
,,,,,,,,0,0,0,0,0,0,0,0,,,,,,,,,,,,,,,,,,unscrew,w,g,lower,g,1,0.9870427875721361,,,,,,,,,,,,,,,,,,,,,,,,,,,381,2023-11-16_10h00.49.531,leap3,2022.2.5,60.02065318891152,
,,,,,,,,0,0,0,0,1,0,1,0,,,,,,,,,,,,,,,,,,raestro,nw,h,lower,h,1,0.95319710552576,,,,,,,,,,,,,,,,,,,,,,,,,,,381,2023-11-16_10h00.49.531,leap3,2022.2.5,60.02065318891152,
,,,,,,,,0,0,0,0,2,0,2,0,,,,,,,,,,,,,,,,,,grutch,nw,h,lower,g,0,0.8166776357247727,,,,,,,,,,,,,,,,,,,,,,,,,,,381,2023-11-16_10h00.49.531,leap3,2022.2.5,60.02065318891152,
,,,,,,,,0,0,0,0,3,0,3,0,,,,,,,,,,,,,,,,,,crinklo,nw,h,lower,h,1,1.011643011297565,,,,,,,,,,,,,,,,,,,,,,,,,,,381,2023-11-16_10h00.49.531,leap3,2022.2.5,60.02065318891152,
,,,,,,,,0,0,0,0,4,0,4,0,,,,,,,,,,,,,,,,,,grocus,nw,h,lower,h,1,0.7725321569450898,,,,,,,,,,,,,,,,,,,,,,,,,,,381,2023-11-16_10h00.49.531,leap3,2022.2.5,60.02065318891152,
,,,,,,,,0,0,0,0,5,0,5,0,,,,,,,,,,,,,,,,,,summary,w,g,lower,h,0,4.66494134288223,,,,,,,,,,,,,,,,,,,,,,,,,,,381,2023-11-16_10h00.49.531,leap3,2022.2.5,60.02065318891152,
,,,,,,,,0,0,0,0,6,0,6,0,,,,,,,,,,,,,,,,,,treeps,nw,h,lower,h,1,0.797666945043602,,,,,,,,,,,,,,,,,,,,,,,,,,,381,2023-11-16_10h00.49.531,leap3,2022.2.5,60.02065318891152,
,,,,,,,,0,0,0,0,7,0,7,0,,,,,,,,,,,,,,,,,,busted,w,g,lower,g,1,0.6826634648023173,,,,,,,,,,,,,,,,,,,,,,,,,,,381,2023-11-16_10h00.49.531,leap3,2022.2.5,60.02065318891152,
,,,,,,,,0,0,0,0,8,0,8,0,,,,,,,,,,,,,,,,,,infinity,w,g,lower,g,1,0.5104498249856988,,,,,,,,,,,,,,,,,,,,,,,,,,,381,2023-11-16_10h00.49.531,leap3,2022.2.5,60.02065318891152,
,,,,,,,,0,0,0,0,9,0,9,0,,,,,,,,,,,,,,,,,,hiring,w,g,lower,g,1,0.5373316817276645,,,,,,,,,,,,,,,,,,,,,,,,,,,381,2023-11-16_10h00.49.531,leap3,2022.2.5,60.02065318891152,
,,,,,,,,0,0,0,0,10,0,10,0,,,,,,,,,,,,,,,,,,hasking,nw,h,lower,g,0,0.721881050922093,,,,,,,,,,,,,,,,,,,,,,,,,,,381,2023-11-16_10h00.49.531,leap3,2022.2.5,60.02065318891152,
,,,,,,,,0,0,0,0,11,0,11,0,,,,,,,,,,,,,,,,,,revival,w,g,lower,g,1,0.7144898155966075,,,,,,,,,,,,,,,,,,,,,,,,,,,381,2023-11-16_10h00.49.531,leap3,2022.2.5,60.02065318891152,
,,,,,,,,0,0,0,0,12,0,12,0,,,,,,,,,,,,,,,,,,curlecs,nw,h,lower,h,1,0.8931345273886109,,,,,,,,,,,,,,,,,,,,,,,,,,,381,2023-11-16_10h00.49.531,leap3,2022.2.5,60.02065318891152,
,,,,,,,,0,0,0,0,13,0,13,0,,,,,,,,,,,,,,,,,,umpire,w,g,lower,g,1,0.8867638240481028,,,,,,,,,,,,,,,,,,,,,,,,,,,381,2023-11-16_10h00.49.531,leap3,2022.2.5,60.02065318891152,
,,,,,,,,0,0,0,0,,,,,,,,,,,,,,,,,,,,,,,,,,,,,,,,,,,,,,,,,,,,,,,,,,,,,,,381,2023-11-16_10h00.49.531,leap3,2022.2.5,60.02065318891152,
,,,,,,,,1,0,1,0,0,0,0,0,,,,,,,,,,,,,,,,,,overshoot,w,g,upper,g,1,0.8899941503623268,,,,,,,,,,,,,,,,,,,,,,,,,,,381,2023-11-16_10h00.49.531,leap3,2022.2.5,60.02065318891152,
,,,,,,,,1,0,1,0,1,0,1,0,,,,,,,,,,,,,,,,,,julled,nw,h,upper,h,1,0.8420720090216491,,,,,,,,,,,,,,,,,,,,,,,,,,,381,2023-11-16_10h00.49.531,leap3,2022.2.5,60.02065318891152,
,,,,,,,,1,0,1,0,2,0,2,0,,,,,,,,,,,,,,,,,,alolition,nw,h,upper,h,1,0.7989579285786022,,,,,,,,,,,,,,,,,,,,,,,,,,,381,2023-11-16_10h00.49.531,leap3,2022.2.5,60.02065318891152,
,,,,,,,,1,0,1,0,3,0,3,0,,,,,,,,,,,,,,,,,,trotch,nw,h,upper,h,1,0.7427939576591598,,,,,,,,,,,,,,,,,,,,,,,,,,,381,2023-11-16_10h00.49.531,leap3,2022.2.5,60.02065318891152,
,,,,,,,,1,0,1,0,4,0,4,0,,,,,,,,,,,,,,,,,,turative,nw,h,upper,h,1,0.7275058996165171,,,,,,,,,,,,,,,,,,,,,,,,,,,381,2023-11-16_10h00.49.531,leap3,2022.2.5,60.02065318891152,
,,,,,,,,1,0,1,0,5,0,5,0,,,,,,,,,,,,,,,,,,reputable,w,g,upper,g,1,0.5847497448703507,,,,,,,,,,,,,,,,,,,,,,,,,,,381,2023-11-16_10h00.49.531,leap3,2022.2.5,60.02065318891152,
,,,,,,,,1,0,1,0,6,0,6,0,,,,,,,,,,,,,,,,,,lumbigo,nw,h,upper,h,1,0.6875457791320514,,,,,,,,,,,,,,,,,,,,,,,,,,,381,2023-11-16_10h00.49.531,leap3,2022.2.5,60.02065318891152,
,,,,,,,,1,0,1,0,7,0,7,0,,,,,,,,,,,,,,,,,,tricycle,w,g,upper,h,0,1.0099985693523195,,,,,,,,,,,,,,,,,,,,,,,,,,,381,2023-11-16_10h00.49.531,leap3,2022.2.5,60.02065318891152,
,,,,,,,,1,0,1,0,8,0,8,0,,,,,,,,,,,,,,,,,,sponsor,w,g,upper,g,1,0.630930250743404,,,,,,,,,,,,,,,,,,,,,,,,,,,381,2023-11-16_10h00.49.531,leap3,2022.2.5,60.02065318891152,
,,,,,,,,1,0,1,0,9,0,9,0,,,,,,,,,,,,,,,,,,slumber,w,g,upper,g,1,0.6762495978764491,,,,,,,,,,,,,,,,,,,,,,,,,,,381,2023-11-16_10h00.49.531,leap3,2022.2.5,60.02065318891152,
,,,,,,,,1,0,1,0,10,0,10,0,,,,,,,,,,,,,,,,,,lurshing,nw,h,upper,h,1,0.7275182751764078,,,,,,,,,,,,,,,,,,,,,,,,,,,381,2023-11-16_10h00.49.531,leap3,2022.2.5,60.02065318891152,
,,,,,,,,1,0,1,0,11,0,11,0,,,,,,,,,,,,,,,,,,grimace,w,g,upper,g,1,0.6807540044974303,,,,,,,,,,,,,,,,,,,,,,,,,,,381,2023-11-16_10h00.49.531,leap3,2022.2.5,60.02065318891152,
,,,,,,,,1,0,1,0,12,0,12,0,,,,,,,,,,,,,,,,,,latador,nw,h,upper,h,1,0.899157205465599,,,,,,,,,,,,,,,,,,,,,,,,,,,381,2023-11-16_10h00.49.531,leap3,2022.2.5,60.02065318891152,
,,,,,,,,1,0,1,0,13,0,13,0,,,,,,,,,,,,,,,,,,picture,w,g,upper,g,1,0.4937391797575401,,,,,,,,,,,,,,,,,,,,,,,,,,,381,2023-11-16_10h00.49.531,leap3,2022.2.5,60.02065318891152,
,,,,,,,,1,0,1,0,,,,,,,,,,,,,,,,,,,,,,,,,,,,,,,,,,,,,,,,,,,,,,,,,,,,,,,381,2023-11-16_10h00.49.531,leap3,2022.2.5,60.02065318891152,
,,,,,,,,,,,,,,,,0,0,0,0,,,,,,,,,,,,,,,,,,,,,y,,,,,,,,,,,,,,,,,,,,,,,,,,381,2023-11-16_10h00.49.531,leap3,2022.2.5,60.02065318891152,
,,,,,,,,,,,,,,,,,,,,0,0,0,0,0,0,0,0,,,,,,happen,w,g,upper,,,,,animal,"
q
",3,w,LoDemNoTar,g,1,0.9222678328369511,,,,,,,,,,,,,,,,,,381,2023-11-16_10h00.49.531,leap3,2022.2.5,60.02065318891152,
,,,,,,,,,,,,,,,,,,,,0,0,0,0,1,0,1,0,,,,,,rewrite,w,g,upper,,,,,,,3,w,LoDemNoTar,g,1,0.6761457638058346,,,,,,,,,,,,,,,,,,381,2023-11-16_10h00.49.531,leap3,2022.2.5,60.02065318891152,
,,,,,,,,,,,,,,,,,,,,0,0,0,0,2,0,2,0,,,,,,pakened,nw,h,upper,,,,,,,3,nw,LoDemNoTar,h,1,1.0002330351271667,,,,,,,,,,,,,,,,,,381,2023-11-16_10h00.49.531,leap3,2022.2.5,60.02065318891152,
,,,,,,,,,,,,,,,,,,,,0,0,0,0,3,0,3,0,,,,,,argue,w,g,upper,,,,,,,3,w,LoDemNoTar,g,1,0.8314284128282452,,,,,,,,,,,,,,,,,,381,2023-11-16_10h00.49.531,leap3,2022.2.5,60.02065318891152,
,,,,,,,,,,,,,,,,,,,,0,0,0,0,4,0,4,0,,,,,,ringlat,nw,h,upper,,,,,,,3,nw,LoDemNoTar,h,1,0.8614316304883687,,,,,,,,,,,,,,,,,,381,2023-11-16_10h00.49.531,leap3,2022.2.5,60.02065318891152,
,,,,,,,,,,,,,,,,,,,,0,0,0,0,5,0,5,0,,,,,,publish,w,g,upper,,,,,,,3,w,LoDemNoTar,g,1,0.6980746748886304,,,,,,,,,,,,,,,,,,381,2023-11-16_10h00.49.531,leap3,2022.2.5,60.02065318891152,
,,,,,,,,,,,,,,,,,,,,0,0,0,0,6,0,6,0,,,,,,erithets,nw,h,upper,,,,,,,3,nw,LoDemNoTar,h,1,0.7333770523837302,,,,,,,,,,,,,,,,,,381,2023-11-16_10h00.49.531,leap3,2022.2.5,60.02065318891152,
,,,,,,,,,,,,,,,,,,,,0,0,0,0,7,0,7,0,,,,,,prohibit,w,g,upper,,,,,,,3,w,LoDemNoTar,g,1,0.7413336400932167,,,,,,,,,,,,,,,,,,381,2023-11-16_10h00.49.531,leap3,2022.2.5,60.02065318891152,
,,,,,,,,,,,,,,,,,,,,0,0,0,0,8,0,8,0,,,,,,handed,w,g,upper,,,,,,,3,w,LoDemNoTar,g,1,0.6955705833970569,,,,,,,,,,,,,,,,,,381,2023-11-16_10h00.49.531,leap3,2022.2.5,60.02065318891152,
,,,,,,,,,,,,,,,,,,,,0,0,0,0,9,0,9,0,,,,,,eaglot,nw,h,upper,,,,,,,3,nw,LoDemNoTar,h,1,0.7304524932842469,,,,,,,,,,,,,,,,,,381,2023-11-16_10h00.49.531,leap3,2022.2.5,60.02065318891152,
,,,,,,,,,,,,,,,,,,,,0,0,0,0,10,0,10,0,,,,,,previous,w,g,upper,,,,,,,3,w,LoDemNoTar,g,1,0.6850770033197477,,,,,,,,,,,,,,,,,,381,2023-11-16_10h00.49.531,leap3,2022.2.5,60.02065318891152,
,,,,,,,,,,,,,,,,,,,,0,0,0,0,11,0,11,0,,,,,,eyesight,w,g,upper,,,,,,,3,w,LoDemNoTar,g,1,0.7202951665531145,,,,,,,,,,,,,,,,,,381,2023-11-16_10h00.49.531,leap3,2022.2.5,60.02065318891152,
,,,,,,,,,,,,,,,,,,,,0,0,0,0,12,0,12,0,,,,,,greakable,nw,h,upper,,,,,,,3,nw,LoDemNoTar,h,1,1.2022241138620302,,,,,,,,,,,,,,,,,,381,2023-11-16_10h00.49.531,leap3,2022.2.5,60.02065318891152,
,,,,,,,,,,,,,,,,,,,,0,0,0,0,13,0,13,0,,,,,,loached,nw,h,upper,,,,,,,3,nw,LoDemNoTar,h,1,1.4248845118418103,,,,,,,,,,,,,,,,,,381,2023-11-16_10h00.49.531,leap3,2022.2.5,60.02065318891152,
,,,,,,,,,,,,,,,,,,,,0,0,0,0,14,0,14,0,,,,,,mosary,nw,h,upper,,,,,,,3,nw,LoDemNoTar,g,0,1.246749009587802,,,,,,,,,,,,,,,,,,381,2023-11-16_10h00.49.531,leap3,2022.2.5,60.02065318891152,
,,,,,,,,,,,,,,,,,,,,0,0,0,0,15,0,15,0,,,,,,wimpid,nw,h,upper,,,,,,,3,nw,LoDemNoTar,h,1,0.9791686030803248,,,,,,,,,,,,,,,,,,381,2023-11-16_10h00.49.531,leap3,2022.2.5,60.02065318891152,
,,,,,,,,,,,,,,,,,,,,0,0,0,0,16,0,16,0,,,,,,tritical,nw,h,upper,,,,,,,3,nw,LoDemNoTar,h,1,1.7071396309474949,,,,,,,,,,,,,,,,,,381,2023-11-16_10h00.49.531,leap3,2022.2.5,60.02065318891152,
,,,,,,,,,,,,,,,,,,,,0,0,0,0,17,0,17,0,,,,,,preight,nw,h,upper,,,,,,,3,nw,LoDemNoTar,h,1,1.4056839617696824,,,,,,,,,,,,,,,,,,381,2023-11-16_10h00.49.531,leap3,2022.2.5,60.02065318891152,
,,,,,,,,,,,,,,,,,,,,0,0,0,0,18,0,18,0,,,,,,bamps,nw,h,upper,,,,,,,3,nw,LoDemNoTar,h,1,1.292321905042627,,,,,,,,,,,,,,,,,,381,2023-11-16_10h00.49.531,leap3,2022.2.5,60.02065318891152,
,,,,,,,,,,,,,,,,,,,,0,0,0,0,19,0,19,0,,,,,,release,w,g,upper,,,,,,,3,w,LoDemNoTar,g,1,0.815623599148239,,,,,,,,,,,,,,,,,,381,2023-11-16_10h00.49.531,leap3,2022.2.5,60.02065318891152,
,,,,,,,,,,,,,,,,,,,,0,0,0,0,20,0,20,0,,,,,,smolvers,nw,h,upper,,,,,,,3,nw,LoDemNoTar,h,1,0.9663375489617465,,,,,,,,,,,,,,,,,,381,2023-11-16_10h00.49.531,leap3,2022.2.5,60.02065318891152,
,,,,,,,,,,,,,,,,,,,,0,0,0,0,21,0,21,0,,,,,,trocess,nw,h,upper,,,,,,,3,nw,LoDemNoTar,h,1,1.062997110231663,,,,,,,,,,,,,,,,,,381,2023-11-16_10h00.49.531,leap3,2022.2.5,60.02065318891152,
,,,,,,,,,,,,,,,,,,,,0,0,0,0,22,0,22,0,,,,,,artifact,w,g,upper,,,,,,,3,w,LoDemNoTar,g,1,0.9555508790945169,,,,,,,,,,,,,,,,,,381,2023-11-16_10h00.49.531,leap3,2022.2.5,60.02065318891152,
,,,,,,,,,,,,,,,,,,,,0,0,0,0,23,0,23,0,,,,,,itself,w,g,upper,,,,,,,3,w,LoDemNoTar,g,1,0.8281983883498469,,,,,,,,,,,,,,,,,,381,2023-11-16_10h00.49.531,leap3,2022.2.5,60.02065318891152,
,,,,,,,,,,,,,,,,,,,,0,0,0,0,24,0,24,0,,,,,,tipoff,w,g,upper,,,,,,,3,w,LoDemNoTar,g,1,0.8091689833963756,,,,,,,,,,,,,,,,,,381,2023-11-16_10h00.49.531,leap3,2022.2.5,60.02065318891152,
,,,,,,,,,,,,,,,,,,,,0,0,0,0,25,0,25,0,,,,,,describe,w,g,upper,,,,,,,3,w,LoDemNoTar,g,1,0.6398288911877898,,,,,,,,,,,,,,,,,,381,2023-11-16_10h00.49.531,leap3,2022.2.5,60.02065318891152,
,,,,,,,,,,,,,,,,,,,,0,0,0,0,26,0,26,0,,,,,,gairs,nw,h,upper,,,,,,,3,nw,LoDemNoTar,h,1,0.7491133476432879,,,,,,,,,,,,,,,,,,381,2023-11-16_10h00.49.531,leap3,2022.2.5,60.02065318891152,
,,,,,,,,,,,,,,,,,,,,0,0,0,0,27,0,27,0,,,,,,coupling,w,g,upper,,,,,,,3,w,LoDemNoTar,g,1,0.7504055385506945,,,,,,,,,,,,,,,,,,381,2023-11-16_10h00.49.531,leap3,2022.2.5,60.02065318891152,
,,,,,,,,,,,,,,,,,,,,0,0,0,0,28,0,28,0,,,,,,golemic,nw,h,upper,,,,,,,3,nw,LoDemNoTar,h,1,0.7586153727170313,,,,,,,,,,,,,,,,,,381,2023-11-16_10h00.49.531,leap3,2022.2.5,60.02065318891152,
,,,,,,,,,,,,,,,,,,,,0,0,0,0,29,0,29,0,,,,,,awful,w,g,upper,,,,,,,3,w,LoDemNoTar,g,1,0.6155585821252316,,,,,,,,,,,,,,,,,,381,2023-11-16_10h00.49.531,leap3,2022.2.5,60.02065318891152,
,,,,,,,,,,,,,,,,,,,,0,0,0,0,,,,,,,,,,,,,,,,,,,,,,,,,,NA,,,,,,,,,,,,,,,,,381,2023-11-16_10h00.49.531,leap3,2022.2.5,60.02065318891152,
,,,,,,,,,,,,,,,,,,,,1,0,1,0,0,0,0,0,,,,,,amaze,w,g,lower,,,,,,,1,w,HiDemTar,g,1,0.756270654470427,,,,,,,,,,,,,,,,,,381,2023-11-16_10h00.49.531,leap3,2022.2.5,60.02065318891152,
,,,,,,,,,,,,,,,,,,,,1,0,1,0,1,0,1,0,,,,,,smabled,nw,h,lower,,,,,,,1,nw,HiDemTar,h,1,1.1584707294387044,,,,,,,,,,,,,,,,,,381,2023-11-16_10h00.49.531,leap3,2022.2.5,60.02065318891152,
,,,,,,,,,,,,,,,,,,,,1,0,1,0,2,0,2,0,,,,,,remover,w,g,lower,,,,,,,1,w,HiDemTar,g,1,0.9192140848026611,,,,,,,,,,,,,,,,,,381,2023-11-16_10h00.49.531,leap3,2022.2.5,60.02065318891152,
,,,,,,,,,,,,,,,,,,,,1,0,1,0,3,0,3,0,,,,,,scrobby,nw,h,lower,,,,,,,1,nw,HiDemTar,g,0,1.0971226009714883,,,,,,,,,,,,,,,,,,381,2023-11-16_10h00.49.531,leap3,2022.2.5,60.02065318891152,
,,,,,,,,,,,,,,,,,,,,1,0,1,0,4,0,4,0,,,,,,arrested,w,g,lower,,,,,,,1,w,HiDemTar,g,1,0.7803957769356202,,,,,,,,,,,,,,,,,,381,2023-11-16_10h00.49.531,leap3,2022.2.5,60.02065318891152,
,,,,,,,,,,,,,,,,,,,,1,0,1,0,5,0,5,0,,,,,,blipover,nw,h,lower,,,,,,,1,nw,HiDemTar,h,1,1.0755223971646046,,,,,,,,,,,,,,,,,,381,2023-11-16_10h00.49.531,leap3,2022.2.5,60.02065318891152,
,,,,,,,,,,,,,,,,,,,,1,0,1,0,6,0,6,0,,,,,,satisfies,w,g,lower,,,,,,,1,w,HiDemTar,g,1,0.7843879555730382,,,,,,,,,,,,,,,,,,381,2023-11-16_10h00.49.531,leap3,2022.2.5,60.02065318891152,
,,,,,,,,,,,,,,,,,,,,1,0,1,0,7,0,7,0,,,,,,hatred,w,g,lower,,,,,,,1,w,HiDemTar,g,1,0.8226438691344811,,,,,,,,,,,,,,,,,,381,2023-11-16_10h00.49.531,leap3,2022.2.5,60.02065318891152,
,,,,,,,,,,,,,,,,,,,,1,0,1,0,8,0,8,0,,,,,,rumblos,nw,h,lower,,,,,,,1,nw,HiDemTar,h,1,0.7806547584332293,,,,,,,,,,,,,,,,,,381,2023-11-16_10h00.49.531,leap3,2022.2.5,60.02065318891152,
,,,,,,,,,,,,,,,,,,,,1,0,1,0,9,0,9,0,,,,,,tycoon,w,g,lower,,,,,,,1,w,HiDemTar,g,1,0.884614398368285,,,,,,,,,,,,,,,,,,381,2023-11-16_10h00.49.531,leap3,2022.2.5,60.02065318891152,
,,,,,,,,,,,,,,,,,,,,1,0,1,0,10,0,10,0,,,,,,arcients,nw,h,lower,,,,,,,1,nw,HiDemTar,h,1,1.0959200575161958,,,,,,,,,,,,,,,,,,381,2023-11-16_10h00.49.531,leap3,2022.2.5,60.02065318891152,
,,,,,,,,,,,,,,,,,,,,1,0,1,0,11,0,11,0,,,,,,partner,w,g,lower,,,,,,,1,w,HiDemTar,g,1,0.6832909968798049,,,,,,,,,,,,,,,,,,381,2023-11-16_10h00.49.531,leap3,2022.2.5,60.02065318891152,
,,,,,,,,,,,,,,,,,,,,1,0,1,0,12,0,12,0,,,,,,churnad,nw,h,lower,,,,,,,1,nw,HiDemTar,h,1,0.7671958703722339,,,,,,,,,,,,,,,,,,381,2023-11-16_10h00.49.531,leap3,2022.2.5,60.02065318891152,
,,,,,,,,,,,,,,,,,,,,1,0,1,0,13,0,13,0,,,,,,splum,nw,h,lower,,,,,,,1,nw,HiDemTar,h,1,1.1912388311320683,,,,,,,,,,,,,,,,,,381,2023-11-16_10h00.49.531,leap3,2022.2.5,60.02065318891152,
,,,,,,,,,,,,,,,,,,,,1,0,1,0,14,0,14,0,,,,,,rasuals,nw,h,lower,,,,,,,1,nw,HiDemTar,h,1,1.8216894408251392,,,,,,,,,,,,,,,,,,381,2023-11-16_10h00.49.531,leap3,2022.2.5,60.02065318891152,
,,,,,,,,,,,,,,,,,,,,1,0,1,0,15,0,15,0,,,,,,nopping,nw,h,lower,,,,,,,1,nw,HiDemTar,h,1,1.0102841130428715,,,,,,,,,,,,,,,,,,381,2023-11-16_10h00.49.531,leap3,2022.2.5,60.02065318891152,
,,,,,,,,,,,,,,,,,,,,1,0,1,0,16,0,16,0,,,,,,doxing,nw,h,lower,,,,,,,1,nw,HiDemTar,g,0,0.9525046771450434,,,,,,,,,,,,,,,,,,381,2023-11-16_10h00.49.531,leap3,2022.2.5,60.02065318891152,
,,,,,,,,,,,,,,,,,,,,1,0,1,0,17,0,17,0,,,,,,pressing,w,g,lower,,,,,,,1,w,HiDemTar,g,1,0.7787588810606394,,,,,,,,,,,,,,,,,,381,2023-11-16_10h00.49.531,leap3,2022.2.5,60.02065318891152,
,,,,,,,,,,,,,,,,,,,,1,0,1,0,18,0,18,0,,,,,,loneliest,w,g,lower,,,,,,,1,w,HiDemTar,g,1,1.0667073672957486,,,,,,,,,,,,,,,,,,381,2023-11-16_10h00.49.531,leap3,2022.2.5,60.02065318891152,
,,,,,,,,,,,,,,,,,,,,1,0,1,0,19,0,19,0,,,,,,compose,w,g,lower,,,,,,,1,w,HiDemTar,g,1,0.7993210459826514,,,,,,,,,,,,,,,,,,381,2023-11-16_10h00.49.531,leap3,2022.2.5,60.02065318891152,
,,,,,,,,,,,,,,,,,,,,1,0,1,0,20,0,20,0,,,,,,miurnal,nw,h,lower,,,,,,,1,nw,HiDemTar,h,1,1.2545939152769279,,,,,,,,,,,,,,,,,,381,2023-11-16_10h00.49.531,leap3,2022.2.5,60.02065318891152,
,,,,,,,,,,,,,,,,,,,,1,0,1,0,21,0,21,0,,,,,,glocked,nw,h,lower,,,,,,,1,nw,HiDemTar,g,0,2.018261527919094,,,,,,,,,,,,,,,,,,381,2023-11-16_10h00.49.531,leap3,2022.2.5,60.02065318891152,
,,,,,,,,,,,,,,,,,,,,1,0,1,0,22,0,22,0,,,,,,prame,nw,h,lower,,,,,,,1,nw,HiDemTar,h,1,1.0081543071719352,,,,,,,,,,,,,,,,,,381,2023-11-16_10h00.49.531,leap3,2022.2.5,60.02065318891152,
,,,,,,,,,,,,,,,,,,,,1,0,1,0,23,0,23,0,,,,,,dingly,nw,h,lower,,,,,,,1,nw,HiDemTar,h,1,1.0227514460566454,,,,,,,,,,,,,,,,,,381,2023-11-16_10h00.49.531,leap3,2022.2.5,60.02065318891152,
,,,,,,,,,,,,,,,,,,,,1,0,1,0,24,0,24,0,,,,,,apology,w,g,lower,,,,,,,1,w,HiDemTar,g,1,0.7487390620372025,,,,,,,,,,,,,,,,,,381,2023-11-16_10h00.49.531,leap3,2022.2.5,60.02065318891152,
,,,,,,,,,,,,,,,,,,,,1,0,1,0,25,0,25,0,,,,,,punctual,w,g,lower,,,,,,,1,w,HiDemTar,g,1,0.6780989913968369,,,,,,,,,,,,,,,,,,381,2023-11-16_10h00.49.531,leap3,2022.2.5,60.02065318891152,
,,,,,,,,,,,,,,,,,,,,1,0,1,0,26,0,26,0,,,,,,gorilla,target,q,lower,,,,,,,1,target,HiDemTar,q,1,0.8100407066667685,,1,,,,,,,,,,,,,,,,381,2023-11-16_10h00.49.531,leap3,2022.2.5,60.02065318891152,
,,,,,,,,,,,,,,,,,,,,1,0,1,0,27,0,27,0,,,,,,formation,w,g,lower,,,,,,,1,aftertar1,HiDemTar,g,1,0.7206872609094717,,,,,,,,,,,,,,,,,,381,2023-11-16_10h00.49.531,leap3,2022.2.5,60.02065318891152,
,,,,,,,,,,,,,,,,,,,,1,0,1,0,28,0,28,0,,,,,,culinary,w,g,lower,,,,,,,1,aftertar2,HiDemTar,g,1,0.9066181665839395,,,,,,,,,,,,,,,,,,381,2023-11-16_10h00.49.531,leap3,2022.2.5,60.02065318891152,
,,,,,,,,,,,,,,,,,,,,1,0,1,0,29,0,29,0,,,,,,gunrunker,nw,h,lower,,,,,,,1,aftertar3,HiDemTar,h,1,0.8133624914771644,,,,,,,,,,,,,,,,,,381,2023-11-16_10h00.49.531,leap3,2022.2.5,60.02065318891152,
,,,,,,,,,,,,,,,,,,,,1,0,1,0,,,,,,,,,,,,,,,,,,,,,,,,,,1,,,,,,,,,,,,,,,,,381,2023-11-16_10h00.49.531,leap3,2022.2.5,60.02065318891152,
,,,,,,,,,,,,,,,,,,,,2,0,2,0,0,0,0,0,,,,,,painter,w,g,upper,,,,,,,4,w,LoDemTar,g,1,0.8108828492840985,,,,,,,,,,,,,,,,,,381,2023-11-16_10h00.49.531,leap3,2022.2.5,60.02065318891152,
,,,,,,,,,,,,,,,,,,,,2,0,2,0,1,0,1,0,,,,,,postal,w,g,upper,,,,,,,4,w,LoDemTar,g,1,0.5855043529736577,,,,,,,,,,,,,,,,,,381,2023-11-16_10h00.49.531,leap3,2022.2.5,60.02065318891152,
,,,,,,,,,,,,,,,,,,,,2,0,2,0,2,0,2,0,,,,,,ausht,nw,h,upper,,,,,,,4,nw,LoDemTar,h,1,0.799588479087106,,,,,,,,,,,,,,,,,,381,2023-11-16_10h00.49.531,leap3,2022.2.5,60.02065318891152,
,,,,,,,,,,,,,,,,,,,,2,0,2,0,3,0,3,0,,,,,,scrib,nw,h,upper,,,,,,,4,nw,LoDemTar,g,0,1.0459912623337004,,,,,,,,,,,,,,,,,,381,2023-11-16_10h00.49.531,leap3,2022.2.5,60.02065318891152,
,,,,,,,,,,,,,,,,,,,,2,0,2,0,4,0,4,0,,,,,,wienegs,nw,h,upper,,,,,,,4,nw,LoDemTar,h,1,0.821155480138259,,,,,,,,,,,,,,,,,,381,2023-11-16_10h00.49.531,leap3,2022.2.5,60.02065318891152,
,,,,,,,,,,,,,,,,,,,,2,0,2,0,5,0,5,0,,,,,,repayment,w,g,upper,,,,,,,4,w,LoDemTar,g,1,1.27434442374215,,,,,,,,,,,,,,,,,,381,2023-11-16_10h00.49.531,leap3,2022.2.5,60.02065318891152,
,,,,,,,,,,,,,,,,,,,,2,0,2,0,6,0,6,0,,,,,,walsams,nw,h,upper,,,,,,,4,nw,LoDemTar,h,1,0.94245722136111,,,,,,,,,,,,,,,,,,381,2023-11-16_10h00.49.531,leap3,2022.2.5,60.02065318891152,
,,,,,,,,,,,,,,,,,,,,2,0,2,0,7,0,7,0,,,,,,amidst,w,g,upper,,,,,,,4,w,LoDemTar,g,1,0.775697285134811,,,,,,,,,,,,,,,,,,381,2023-11-16_10h00.49.531,leap3,2022.2.5,60.02065318891152,
,,,,,,,,,,,,,,,,,,,,2,0,2,0,8,0,8,0,,,,,,schinter,nw,h,upper,,,,,,,4,nw,LoDemTar,h,1,0.8076386381871998,,,,,,,,,,,,,,,,,,381,2023-11-16_10h00.49.531,leap3,2022.2.5,60.02065318891152,
,,,,,,,,,,,,,,,,,,,,2,0,2,0,9,0,9,0,,,,,,endgume,nw,h,upper,,,,,,,4,nw,LoDemTar,h,1,1.1421814573695883,,,,,,,,,,,,,,,,,,381,2023-11-16_10h00.49.531,leap3,2022.2.5,60.02065318891152,
,,,,,,,,,,,,,,,,,,,,2,0,2,0,10,0,10,0,,,,,,observer,w,g,upper,,,,,,,4,w,LoDemTar,g,1,0.8556202426552773,,,,,,,,,,,,,,,,,,381,2023-11-16_10h00.49.531,leap3,2022.2.5,60.02065318891152,
,,,,,,,,,,,,,,,,,,,,2,0,2,0,11,0,11,0,,,,,,system,w,g,upper,,,,,,,4,w,LoDemTar,g,1,0.579255292454036,,,,,,,,,,,,,,,,,,381,2023-11-16_10h00.49.531,leap3,2022.2.5,60.02065318891152,
,,,,,,,,,,,,,,,,,,,,2,0,2,0,12,0,12,0,,,,,,expected,w,g,upper,,,,,,,4,w,LoDemTar,g,1,0.7241231424704893,,,,,,,,,,,,,,,,,,381,2023-11-16_10h00.49.531,leap3,2022.2.5,60.02065318891152,
,,,,,,,,,,,,,,,,,,,,2,0,2,0,13,0,13,0,,,,,,octopus,target,q,upper,,,,,,,4,target,LoDemTar,g,0,0.9570540583954426,,,,,,,,,,,,,,,,,,381,2023-11-16_10h00.49.531,leap3,2022.2.5,60.02065318891152,
,,,,,,,,,,,,,,,,,,,,2,0,2,0,14,0,14,0,,,,,,deceit,w,g,upper,,,,,,,4,aftertar1,LoDemTar,g,1,1.0856842515349854,,,,,,,,,,,,,,,,,,381,2023-11-16_10h00.49.531,leap3,2022.2.5,60.02065318891152,
,,,,,,,,,,,,,,,,,,,,2,0,2,0,15,0,15,0,,,,,,arrive,w,g,upper,,,,,,,4,aftertar2,LoDemTar,g,1,0.6009611413901439,,,,,,,,,,,,,,,,,,381,2023-11-16_10h00.49.531,leap3,2022.2.5,60.02065318891152,
,,,,,,,,,,,,,,,,,,,,2,0,2,0,16,0,16,0,,,,,,insole,w,g,upper,,,,,,,4,aftertar3,LoDemTar,g,1,0.8316297422716161,,,,,,,,,,,,,,,,,,381,2023-11-16_10h00.49.531,leap3,2022.2.5,60.02065318891152,
,,,,,,,,,,,,,,,,,,,,2,0,2,0,17,0,17,0,,,,,,filny,nw,h,upper,,,,,,,4,w,LoDemTar,h,1,0.9416356040601386,,,,,,,,,,,,,,,,,,381,2023-11-16_10h00.49.531,leap3,2022.2.5,60.02065318891152,
,,,,,,,,,,,,,,,,,,,,2,0,2,0,18,0,18,0,,,,,,kraums,nw,h,upper,,,,,,,4,nw,LoDemTar,h,1,0.7989262350311037,,,,,,,,,,,,,,,,,,381,2023-11-16_10h00.49.531,leap3,2022.2.5,60.02065318891152,
,,,,,,,,,,,,,,,,,,,,2,0,2,0,19,0,19,0,,,,,,inversion,w,g,upper,,,,,,,4,nw,LoDemTar,g,1,0.6302969836542616,,,,,,,,,,,,,,,,,,381,2023-11-16_10h00.49.531,leap3,2022.2.5,60.02065318891152,
,,,,,,,,,,,,,,,,,,,,2,0,2,0,20,0,20,0,,,,,,infusion,w,g,upper,,,,,,,4,w,LoDemTar,g,1,0.5392818908876507,,,,,,,,,,,,,,,,,,381,2023-11-16_10h00.49.531,leap3,2022.2.5,60.02065318891152,
,,,,,,,,,,,,,,,,,,,,2,0,2,0,21,0,21,0,,,,,,hodels,nw,h,upper,,,,,,,4,w,LoDemTar,h,1,0.7006116673001088,,,,,,,,,,,,,,,,,,381,2023-11-16_10h00.49.531,leap3,2022.2.5,60.02065318891152,
,,,,,,,,,,,,,,,,,,,,2,0,2,0,22,0,22,0,,,,,,podes,nw,h,upper,,,,,,,4,nw,LoDemTar,h,1,0.7351150657486869,,,,,,,,,,,,,,,,,,381,2023-11-16_10h00.49.531,leap3,2022.2.5,60.02065318891152,
,,,,,,,,,,,,,,,,,,,,2,0,2,0,23,0,23,0,,,,,,shockwave,w,g,upper,,,,,,,4,nw,LoDemTar,g,1,0.8324220807553502,,,,,,,,,,,,,,,,,,381,2023-11-16_10h00.49.531,leap3,2022.2.5,60.02065318891152,
,,,,,,,,,,,,,,,,,,,,2,0,2,0,24,0,24,0,,,,,,ciping,nw,h,upper,,,,,,,4,w,LoDemTar,h,1,0.9092414861370344,,,,,,,,,,,,,,,,,,381,2023-11-16_10h00.49.531,leap3,2022.2.5,60.02065318891152,
,,,,,,,,,,,,,,,,,,,,2,0,2,0,25,0,25,0,,,,,,doads,nw,h,upper,,,,,,,4,nw,LoDemTar,h,1,1.5521518827590626,,,,,,,,,,,,,,,,,,381,2023-11-16_10h00.49.531,leap3,2022.2.5,60.02065318891152,
,,,,,,,,,,,,,,,,,,,,2,0,2,0,26,0,26,0,,,,,,infested,w,g,upper,,,,,,,4,nw,LoDemTar,g,1,1.0497286852623802,,,,,,,,,,,,,,,,,,381,2023-11-16_10h00.49.531,leap3,2022.2.5,60.02065318891152,
,,,,,,,,,,,,,,,,,,,,2,0,2,0,27,0,27,0,,,,,,peadgear,nw,h,upper,,,,,,,4,w,LoDemTar,h,1,0.814905815946986,,,,,,,,,,,,,,,,,,381,2023-11-16_10h00.49.531,leap3,2022.2.5,60.02065318891152,
,,,,,,,,,,,,,,,,,,,,2,0,2,0,28,0,28,0,,,,,,lasprey,nw,h,upper,,,,,,,4,nw,LoDemTar,h,1,0.8295705677155638,,,,,,,,,,,,,,,,,,381,2023-11-16_10h00.49.531,leap3,2022.2.5,60.02065318891152,
,,,,,,,,,,,,,,,,,,,,2,0,2,0,29,0,29,0,,,,,,mandlers,nw,h,upper,,,,,,,4,nw,LoDemTar,h,1,1.802621399925556,,,,,,,,,,,,,,,,,,381,2023-11-16_10h00.49.531,leap3,2022.2.5,60.02065318891152,
,,,,,,,,,,,,,,,,,,,,2,0,2,0,,,,,,,,,,,,,,,,,,,,,,,,,,0,,,,,,,,,,,,,,,,,381,2023-11-16_10h00.49.531,leap3,2022.2.5,60.02065318891152,
,,,,,,,,,,,,,,,,,,,,3,0,3,0,0,0,0,0,,,,,,casino,w,g,lower,,,,,,,1,w,HiDemTar,g,1,1.0091141686571063,,,,,,,,,,,,,,,,,,381,2023-11-16_10h00.49.531,leap3,2022.2.5,60.02065318891152,
,,,,,,,,,,,,,,,,,,,,3,0,3,0,1,0,1,0,,,,,,regiment,w,g,lower,,,,,,,1,w,HiDemTar,g,1,1.0236464112676913,,,,,,,,,,,,,,,,,,381,2023-11-16_10h00.49.531,leap3,2022.2.5,60.02065318891152,
,,,,,,,,,,,,,,,,,,,,3,0,3,0,2,0,2,0,,,,,,saucer,w,g,lower,,,,,,,1,w,HiDemTar,g,1,0.6776673555577872,,,,,,,,,,,,,,,,,,381,2023-11-16_10h00.49.531,leap3,2022.2.5,60.02065318891152,
,,,,,,,,,,,,,,,,,,,,3,0,3,0,3,0,3,0,,,,,,resume,w,g,lower,,,,,,,1,w,HiDemTar,g,1,0.6966034909710288,,,,,,,,,,,,,,,,,,381,2023-11-16_10h00.49.531,leap3,2022.2.5,60.02065318891152,
,,,,,,,,,,,,,,,,,,,,3,0,3,0,4,0,4,0,,,,,,rarren,nw,h,lower,,,,,,,1,nw,HiDemTar,h,1,1.475857986457413,,,,,,,,,,,,,,,,,,381,2023-11-16_10h00.49.531,leap3,2022.2.5,60.02065318891152,
,,,,,,,,,,,,,,,,,,,,3,0,3,0,5,0,5,0,,,,,,brimitive,nw,h,lower,,,,,,,1,nw,HiDemTar,h,1,0.8078372510499321,,,,,,,,,,,,,,,,,,381,2023-11-16_10h00.49.531,leap3,2022.2.5,60.02065318891152,
,,,,,,,,,,,,,,,,,,,,3,0,3,0,6,0,6,0,,,,,,egcused,nw,h,lower,,,,,,,1,nw,HiDemTar,h,1,0.7664657116110902,,,,,,,,,,,,,,,,,,381,2023-11-16_10h00.49.531,leap3,2022.2.5,60.02065318891152,
,,,,,,,,,,,,,,,,,,,,3,0,3,0,7,0,7,0,,,,,,inducing,w,g,lower,,,,,,,1,w,HiDemTar,g,1,0.7111782934516668,,,,,,,,,,,,,,,,,,381,2023-11-16_10h00.49.531,leap3,2022.2.5,60.02065318891152,
,,,,,,,,,,,,,,,,,,,,3,0,3,0,8,0,8,0,,,,,,asclibed,nw,h,lower,,,,,,,1,nw,HiDemTar,h,1,1.1697605719964486,,,,,,,,,,,,,,,,,,381,2023-11-16_10h00.49.531,leap3,2022.2.5,60.02065318891152,
,,,,,,,,,,,,,,,,,,,,3,0,3,0,9,0,9,0,,,,,,maunches,nw,h,lower,,,,,,,1,nw,HiDemTar,h,1,1.3457246140023926,,,,,,,,,,,,,,,,,,381,2023-11-16_10h00.49.531,leap3,2022.2.5,60.02065318891152,
,,,,,,,,,,,,,,,,,,,,3,0,3,0,10,0,10,0,,,,,,paying,w,g,lower,,,,,,,1,w,HiDemTar,g,1,0.8177917391149094,,,,,,,,,,,,,,,,,,381,2023-11-16_10h00.49.531,leap3,2022.2.5,60.02065318891152,
,,,,,,,,,,,,,,,,,,,,3,0,3,0,11,0,11,0,,,,,,clarms,nw,h,lower,,,,,,,1,nw,HiDemTar,h,1,1.0228338492597686,,,,,,,,,,,,,,,,,,381,2023-11-16_10h00.49.531,leap3,2022.2.5,60.02065318891152,
,,,,,,,,,,,,,,,,,,,,3,0,3,0,12,0,12,0,,,,,,trewl,nw,h,lower,,,,,,,1,nw,HiDemTar,h,1,0.7415844718198059,,,,,,,,,,,,,,,,,,381,2023-11-16_10h00.49.531,leap3,2022.2.5,60.02065318891152,
,,,,,,,,,,,,,,,,,,,,3,0,3,0,13,0,13,0,,,,,,earnest,w,g,lower,,,,,,,1,w,HiDemTar,g,1,1.45529974551755,,,,,,,,,,,,,,,,,,381,2023-11-16_10h00.49.531,leap3,2022.2.5,60.02065318891152,
,,,,,,,,,,,,,,,,,,,,3,0,3,0,14,0,14,0,,,,,,lanthers,nw,h,lower,,,,,,,1,nw,HiDemTar,h,1,1.0278957603295567,,,,,,,,,,,,,,,,,,381,2023-11-16_10h00.49.531,leap3,2022.2.5,60.02065318891152,
,,,,,,,,,,,,,,,,,,,,3,0,3,0,15,0,15,0,,,,,,relaying,w,g,lower,,,,,,,1,w,HiDemTar,g,1,0.7056138133921195,,,,,,,,,,,,,,,,,,381,2023-11-16_10h00.49.531,leap3,2022.2.5,60.02065318891152,
,,,,,,,,,,,,,,,,,,,,3,0,3,0,16,0,16,0,,,,,,reddar,nw,h,lower,,,,,,,1,nw,HiDemTar,h,1,1.4364716699783457,,,,,,,,,,,,,,,,,,381,2023-11-16_10h00.49.531,leap3,2022.2.5,60.02065318891152,
,,,,,,,,,,,,,,,,,,,,3,0,3,0,17,0,17,0,,,,,,dounger,nw,h,lower,,,,,,,1,nw,HiDemTar,h,1,0.9048886048403801,,,,,,,,,,,,,,,,,,381,2023-11-16_10h00.49.531,leap3,2022.2.5,60.02065318891152,
,,,,,,,,,,,,,,,,,,,,3,0,3,0,18,0,18,0,,,,,,chonemic,nw,h,lower,,,,,,,1,nw,HiDemTar,h,1,1.7474344955699053,,,,,,,,,,,,,,,,,,381,2023-11-16_10h00.49.531,leap3,2022.2.5,60.02065318891152,
,,,,,,,,,,,,,,,,,,,,3,0,3,0,19,0,19,0,,,,,,deakers,nw,h,lower,,,,,,,1,nw,HiDemTar,h,1,1.0127317598526133,,,,,,,,,,,,,,,,,,381,2023-11-16_10h00.49.531,leap3,2022.2.5,60.02065318891152,
,,,,,,,,,,,,,,,,,,,,3,0,3,0,20,0,20,0,,,,,,lovud,nw,h,lower,,,,,,,1,nw,HiDemTar,h,1,0.9073121041874401,,,,,,,,,,,,,,,,,,381,2023-11-16_10h00.49.531,leap3,2022.2.5,60.02065318891152,
,,,,,,,,,,,,,,,,,,,,3,0,3,0,21,0,21,0,,,,,,analysis,w,g,lower,,,,,,,1,w,HiDemTar,g,1,1.3179456791694975,,,,,,,,,,,,,,,,,,381,2023-11-16_10h00.49.531,leap3,2022.2.5,60.02065318891152,
,,,,,,,,,,,,,,,,,,,,3,0,3,0,22,0,22,0,,,,,,sweeping,w,g,lower,,,,,,,1,w,HiDemTar,h,0,0.8078924883593572,,,,,,,,,,,,,,,,,,381,2023-11-16_10h00.49.531,leap3,2022.2.5,60.02065318891152,
,,,,,,,,,,,,,,,,,,,,3,0,3,0,23,0,23,0,,,,,,prominent,w,g,lower,,,,,,,1,w,HiDemTar,g,1,0.7505480085528689,,,,,,,,,,,,,,,,,,381,2023-11-16_10h00.49.531,leap3,2022.2.5,60.02065318891152,
,,,,,,,,,,,,,,,,,,,,3,0,3,0,24,0,24,0,,,,,,asthmatic,w,g,lower,,,,,,,1,w,HiDemTar,g,1,0.9592529863730306,,,,,,,,,,,,,,,,,,381,2023-11-16_10h00.49.531,leap3,2022.2.5,60.02065318891152,
,,,,,,,,,,,,,,,,,,,,3,0,3,0,25,0,25,0,,,,,,emergence,w,g,lower,,,,,,,1,w,HiDemTar,g,1,0.7199172588152578,,,,,,,,,,,,,,,,,,381,2023-11-16_10h00.49.531,leap3,2022.2.5,60.02065318891152,
,,,,,,,,,,,,,,,,,,,,3,0,3,0,26,0,26,0,,,,,,grefab,nw,h,lower,,,,,,,1,nw,HiDemTar,h,1,0.9287942872906569,,,,,,,,,,,,,,,,,,381,2023-11-16_10h00.49.531,leap3,2022.2.5,60.02065318891152,
,,,,,,,,,,,,,,,,,,,,3,0,3,0,27,0,27,0,,,,,,stuggard,nw,h,lower,,,,,,,1,nw,HiDemTar,h,1,0.9867650917876745,,,,,,,,,,,,,,,,,,381,2023-11-16_10h00.49.531,leap3,2022.2.5,60.02065318891152,
,,,,,,,,,,,,,,,,,,,,3,0,3,0,28,0,28,0,,,,,,monkey,target,q,lower,,,,,,,1,target,HiDemTar,q,1,0.8500509331206558,,1,,,,,,,,,,,,,,,,381,2023-11-16_10h00.49.531,leap3,2022.2.5,60.02065318891152,
,,,,,,,,,,,,,,,,,,,,3,0,3,0,29,0,29,0,,,,,,cervical,w,g,lower,,,,,,,1,aftertar1,HiDemTar,g,1,0.7673253611283144,,,,,,,,,,,,,,,,,,381,2023-11-16_10h00.49.531,leap3,2022.2.5,60.02065318891152,
,,,,,,,,,,,,,,,,,,,,3,0,3,0,,,,,,,,,,,,,,,,,,,,,,,,,,1,,,,,,,,,,,,,,,,,381,2023-11-16_10h00.49.531,leap3,2022.2.5,60.02065318891152,
,,,,,,,,,,,,,,,,,,,,4,0,4,0,0,0,0,0,,,,,,allained,nw,h,upper,,,,,,,3,nw,LoDemNoTar,h,1,1.8623142200958682,,,,,,,,,,,,,,,,,,381,2023-11-16_10h00.49.531,leap3,2022.2.5,60.02065318891152,
,,,,,,,,,,,,,,,,,,,,4,0,4,0,1,0,1,0,,,,,,vergas,nw,h,upper,,,,,,,3,nw,LoDemNoTar,h,1,0.7628752862947294,,,,,,,,,,,,,,,,,,381,2023-11-16_10h00.49.531,leap3,2022.2.5,60.02065318891152,
,,,,,,,,,,,,,,,,,,,,4,0,4,0,2,0,2,0,,,,,,disuse,w,g,upper,,,,,,,3,w,LoDemNoTar,g,1,0.795523254389991,,,,,,,,,,,,,,,,,,381,2023-11-16_10h00.49.531,leap3,2022.2.5,60.02065318891152,
,,,,,,,,,,,,,,,,,,,,4,0,4,0,3,0,3,0,,,,,,servant,w,g,upper,,,,,,,3,w,LoDemNoTar,g,1,0.810836667282274,,,,,,,,,,,,,,,,,,381,2023-11-16_10h00.49.531,leap3,2022.2.5,60.02065318891152,
,,,,,,,,,,,,,,,,,,,,4,0,4,0,4,0,4,0,,,,,,catgup,nw,h,upper,,,,,,,3,nw,LoDemNoTar,h,1,1.3134796066442505,,,,,,,,,,,,,,,,,,381,2023-11-16_10h00.49.531,leap3,2022.2.5,60.02065318891152,
,,,,,,,,,,,,,,,,,,,,4,0,4,0,5,0,5,0,,,,,,plartly,nw,h,upper,,,,,,,3,nw,LoDemNoTar,g,0,0.7160826423350954,,,,,,,,,,,,,,,,,,381,2023-11-16_10h00.49.531,leap3,2022.2.5,60.02065318891152,
,,,,,,,,,,,,,,,,,,,,4,0,4,0,6,0,6,0,,,,,,fallacy,w,g,upper,,,,,,,3,w,LoDemNoTar,g,1,0.7427209115994629,,,,,,,,,,,,,,,,,,381,2023-11-16_10h00.49.531,leap3,2022.2.5,60.02065318891152,
,,,,,,,,,,,,,,,,,,,,4,0,4,0,7,0,7,0,,,,,,senior,w,g,upper,,,,,,,3,w,LoDemNoTar,g,1,0.6550894815009087,,,,,,,,,,,,,,,,,,381,2023-11-16_10h00.49.531,leap3,2022.2.5,60.02065318891152,
,,,,,,,,,,,,,,,,,,,,4,0,4,0,8,0,8,0,,,,,,intrude,w,g,upper,,,,,,,3,w,LoDemNoTar,g,1,0.5966511218284722,,,,,,,,,,,,,,,,,,381,2023-11-16_10h00.49.531,leap3,2022.2.5,60.02065318891152,
,,,,,,,,,,,,,,,,,,,,4,0,4,0,9,0,9,0,,,,,,mabit,nw,h,upper,,,,,,,3,nw,LoDemNoTar,h,1,0.8589052025927231,,,,,,,,,,,,,,,,,,381,2023-11-16_10h00.49.531,leap3,2022.2.5,60.02065318891152,
,,,,,,,,,,,,,,,,,,,,4,0,4,0,10,0,10,0,,,,,,nostril,w,g,upper,,,,,,,3,w,LoDemNoTar,g,1,0.8875863468565512,,,,,,,,,,,,,,,,,,381,2023-11-16_10h00.49.531,leap3,2022.2.5,60.02065318891152,
,,,,,,,,,,,,,,,,,,,,4,0,4,0,11,0,11,0,,,,,,affluent,w,g,upper,,,,,,,3,w,LoDemNoTar,g,1,0.7228970552532701,,,,,,,,,,,,,,,,,,381,2023-11-16_10h00.49.531,leap3,2022.2.5,60.02065318891152,
,,,,,,,,,,,,,,,,,,,,4,0,4,0,12,0,12,0,,,,,,menarthe,nw,h,upper,,,,,,,3,nw,LoDemNoTar,g,0,2.084856899222359,,,,,,,,,,,,,,,,,,381,2023-11-16_10h00.49.531,leap3,2022.2.5,60.02065318891152,
,,,,,,,,,,,,,,,,,,,,4,0,4,0,13,0,13,0,,,,,,poyride,nw,h,upper,,,,,,,3,nw,LoDemNoTar,h,1,1.3840958316868637,,,,,,,,,,,,,,,,,,381,2023-11-16_10h00.49.531,leap3,2022.2.5,60.02065318891152,
,,,,,,,,,,,,,,,,,,,,4,0,4,0,14,0,14,0,,,,,,rapport,w,g,upper,,,,,,,3,w,LoDemNoTar,g,1,0.7833954950037878,,,,,,,,,,,,,,,,,,381,2023-11-16_10h00.49.531,leap3,2022.2.5,60.02065318891152,
,,,,,,,,,,,,,,,,,,,,4,0,4,0,15,0,15,0,,,,,,lenie,nw,h,upper,,,,,,,3,nw,LoDemNoTar,h,1,0.7824655160075054,,,,,,,,,,,,,,,,,,381,2023-11-16_10h00.49.531,leap3,2022.2.5,60.02065318891152,
,,,,,,,,,,,,,,,,,,,,4,0,4,0,16,0,16,0,,,,,,ergonomic,w,g,upper,,,,,,,3,w,LoDemNoTar,g,1,1.1823492459807312,,,,,,,,,,,,,,,,,,381,2023-11-16_10h00.49.531,leap3,2022.2.5,60.02065318891152,
,,,,,,,,,,,,,,,,,,,,4,0,4,0,17,0,17,0,,,,,,poars,nw,h,upper,,,,,,,3,nw,LoDemNoTar,h,1,1.269143664787407,,,,,,,,,,,,,,,,,,381,2023-11-16_10h00.49.531,leap3,2022.2.5,60.02065318891152,
,,,,,,,,,,,,,,,,,,,,4,0,4,0,18,0,18,0,,,,,,cutout,w,g,upper,,,,,,,3,w,LoDemNoTar,g,1,0.8494946360151516,,,,,,,,,,,,,,,,,,381,2023-11-16_10h00.49.531,leap3,2022.2.5,60.02065318891152,
,,,,,,,,,,,,,,,,,,,,4,0,4,0,19,0,19,0,,,,,,grummer,nw,h,upper,,,,,,,3,nw,LoDemNoTar,h,1,1.0076161206816323,,,,,,,,,,,,,,,,,,381,2023-11-16_10h00.49.531,leap3,2022.2.5,60.02065318891152,
,,,,,,,,,,,,,,,,,,,,4,0,4,0,20,0,20,0,,,,,,ulcer,w,g,upper,,,,,,,3,w,LoDemNoTar,g,1,0.7262218584801303,,,,,,,,,,,,,,,,,,381,2023-11-16_10h00.49.531,leap3,2022.2.5,60.02065318891152,
,,,,,,,,,,,,,,,,,,,,4,0,4,0,21,0,21,0,,,,,,nature,w,g,upper,,,,,,,3,w,LoDemNoTar,g,1,0.8401021800673334,,,,,,,,,,,,,,,,,,381,2023-11-16_10h00.49.531,leap3,2022.2.5,60.02065318891152,
,,,,,,,,,,,,,,,,,,,,4,0,4,0,22,0,22,0,,,,,,quickel,nw,h,upper,,,,,,,3,nw,LoDemNoTar,h,1,0.8184485499950824,,,,,,,,,,,,,,,,,,381,2023-11-16_10h00.49.531,leap3,2022.2.5,60.02065318891152,
,,,,,,,,,,,,,,,,,,,,4,0,4,0,23,0,23,0,,,,,,butled,nw,h,upper,,,,,,,3,nw,LoDemNoTar,h,1,1.4505614103836706,,,,,,,,,,,,,,,,,,381,2023-11-16_10h00.49.531,leap3,2022.2.5,60.02065318891152,
,,,,,,,,,,,,,,,,,,,,4,0,4,0,24,0,24,0,,,,,,fashing,nw,h,upper,,,,,,,3,nw,LoDemNoTar,g,0,1.3590787624561926,,,,,,,,,,,,,,,,,,381,2023-11-16_10h00.49.531,leap3,2022.2.5,60.02065318891152,
,,,,,,,,,,,,,,,,,,,,4,0,4,0,25,0,25,0,,,,,,fracture,w,g,upper,,,,,,,3,w,LoDemNoTar,g,1,0.7596407341916347,,,,,,,,,,,,,,,,,,381,2023-11-16_10h00.49.531,leap3,2022.2.5,60.02065318891152,
,,,,,,,,,,,,,,,,,,,,4,0,4,0,26,0,26,0,,,,,,newstrint,nw,h,upper,,,,,,,3,nw,LoDemNoTar,g,0,0.7522781739826314,,,,,,,,,,,,,,,,,,381,2023-11-16_10h00.49.531,leap3,2022.2.5,60.02065318891152,
,,,,,,,,,,,,,,,,,,,,4,0,4,0,27,0,27,0,,,,,,diatonic,w,g,upper,,,,,,,3,w,LoDemNoTar,g,1,0.7769601972249802,,,,,,,,,,,,,,,,,,381,2023-11-16_10h00.49.531,leap3,2022.2.5,60.02065318891152,
,,,,,,,,,,,,,,,,,,,,4,0,4,0,28,0,28,0,,,,,,etber,nw,h,upper,,,,,,,3,nw,LoDemNoTar,h,1,0.7209199820499634,,,,,,,,,,,,,,,,,,381,2023-11-16_10h00.49.531,leap3,2022.2.5,60.02065318891152,
,,,,,,,,,,,,,,,,,,,,4,0,4,0,29,0,29,0,,,,,,butler,w,g,upper,,,,,,,3,w,LoDemNoTar,g,1,0.8508837185945595,,,,,,,,,,,,,,,,,,381,2023-11-16_10h00.49.531,leap3,2022.2.5,60.02065318891152,
,,,,,,,,,,,,,,,,,,,,4,0,4,0,,,,,,,,,,,,,,,,,,,,,,,,,,NA,,,,,,,,,,,,,,,,,381,2023-11-16_10h00.49.531,leap3,2022.2.5,60.02065318891152,
,,,,,,,,,,,,,,,,,,,,5,0,5,0,0,0,0,0,,,,,,ordinary,w,g,lower,,,,,,,1,w,HiDemTar,g,1,0.7984203457599506,,,,,,,,,,,,,,,,,,381,2023-11-16_10h00.49.531,leap3,2022.2.5,60.02065318891152,
,,,,,,,,,,,,,,,,,,,,5,0,5,0,1,0,1,0,,,,,,bailmenz,nw,h,lower,,,,,,,1,nw,HiDemTar,h,1,0.9977730127720861,,,,,,,,,,,,,,,,,,381,2023-11-16_10h00.49.531,leap3,2022.2.5,60.02065318891152,
,,,,,,,,,,,,,,,,,,,,5,0,5,0,2,0,2,0,,,,,,visible,w,g,lower,,,,,,,1,w,HiDemTar,g,1,0.8210679456096841,,,,,,,,,,,,,,,,,,381,2023-11-16_10h00.49.531,leap3,2022.2.5,60.02065318891152,
,,,,,,,,,,,,,,,,,,,,5,0,5,0,3,0,3,0,,,,,,bumbo,nw,h,lower,,,,,,,1,nw,HiDemTar,h,1,2.0590713371202582,,,,,,,,,,,,,,,,,,381,2023-11-16_10h00.49.531,leap3,2022.2.5,60.02065318891152,
,,,,,,,,,,,,,,,,,,,,5,0,5,0,4,0,4,0,,,,,,pocket,w,g,lower,,,,,,,1,w,HiDemTar,g,1,0.8456126301753102,,,,,,,,,,,,,,,,,,381,2023-11-16_10h00.49.531,leap3,2022.2.5,60.02065318891152,
,,,,,,,,,,,,,,,,,,,,5,0,5,0,5,0,5,0,,,,,,urique,nw,h,lower,,,,,,,1,nw,HiDemTar,h,1,0.9313367128488608,,,,,,,,,,,,,,,,,,381,2023-11-16_10h00.49.531,leap3,2022.2.5,60.02065318891152,
,,,,,,,,,,,,,,,,,,,,5,0,5,0,6,0,6,0,,,,,,talate,nw,h,lower,,,,,,,1,nw,HiDemTar,h,1,0.9180230113997823,,,,,,,,,,,,,,,,,,381,2023-11-16_10h00.49.531,leap3,2022.2.5,60.02065318891152,
,,,,,,,,,,,,,,,,,,,,5,0,5,0,7,0,7,0,,,,,,traze,nw,h,lower,,,,,,,1,nw,HiDemTar,h,1,1.4478955309314188,,,,,,,,,,,,,,,,,,381,2023-11-16_10h00.49.531,leap3,2022.2.5,60.02065318891152,
,,,,,,,,,,,,,,,,,,,,5,0,5,0,8,0,8,0,,,,,,figure,w,g,lower,,,,,,,1,w,HiDemTar,g,1,0.7891341386275599,,,,,,,,,,,,,,,,,,381,2023-11-16_10h00.49.531,leap3,2022.2.5,60.02065318891152,
,,,,,,,,,,,,,,,,,,,,5,0,5,0,9,0,9,0,,,,,,kiner,nw,h,lower,,,,,,,1,nw,HiDemTar,h,1,0.7964619868434966,,,,,,,,,,,,,,,,,,381,2023-11-16_10h00.49.531,leap3,2022.2.5,60.02065318891152,
,,,,,,,,,,,,,,,,,,,,5,0,5,0,10,0,10,0,,,,,,caterpillar,target,q,lower,,,,,,,1,target,HiDemTar,q,1,0.9877835108782165,,1,,,,,,,,,,,,,,,,381,2023-11-16_10h00.49.531,leap3,2022.2.5,60.02065318891152,
,,,,,,,,,,,,,,,,,,,,5,0,5,0,11,0,11,0,,,,,,pammed,nw,h,lower,,,,,,,1,aftertar1,HiDemTar,h,1,1.4190444489213405,,,,,,,,,,,,,,,,,,381,2023-11-16_10h00.49.531,leap3,2022.2.5,60.02065318891152,
,,,,,,,,,,,,,,,,,,,,5,0,5,0,12,0,12,0,,,,,,trake,nw,h,lower,,,,,,,1,aftertar2,HiDemTar,h,1,0.9130733860365581,,,,,,,,,,,,,,,,,,381,2023-11-16_10h00.49.531,leap3,2022.2.5,60.02065318891152,
,,,,,,,,,,,,,,,,,,,,5,0,5,0,13,0,13,0,,,,,,frowsed,nw,h,lower,,,,,,,1,aftertar3,HiDemTar,h,1,1.1467075966938864,,,,,,,,,,,,,,,,,,381,2023-11-16_10h00.49.531,leap3,2022.2.5,60.02065318891152,
,,,,,,,,,,,,,,,,,,,,5,0,5,0,14,0,14,0,,,,,,rivet,w,g,lower,,,,,,,1,nw,HiDemTar,g,1,1.0760216458584182,,,,,,,,,,,,,,,,,,381,2023-11-16_10h00.49.531,leap3,2022.2.5,60.02065318891152,
,,,,,,,,,,,,,,,,,,,,5,0,5,0,15,0,15,0,,,,,,slightly,w,g,lower,,,,,,,1,w,HiDemTar,g,1,0.7759991283528507,,,,,,,,,,,,,,,,,,381,2023-11-16_10h00.49.531,leap3,2022.2.5,60.02065318891152,
,,,,,,,,,,,,,,,,,,,,5,0,5,0,16,0,16,0,,,,,,breiled,nw,h,lower,,,,,,,1,w,HiDemTar,h,1,1.5759965928882593,,,,,,,,,,,,,,,,,,381,2023-11-16_10h00.49.531,leap3,2022.2.5,60.02065318891152,
,,,,,,,,,,,,,,,,,,,,5,0,5,0,17,0,17,0,,,,,,gradielts,nw,h,lower,,,,,,,1,nw,HiDemTar,g,0,0.8078411750029773,,,,,,,,,,,,,,,,,,381,2023-11-16_10h00.49.531,leap3,2022.2.5,60.02065318891152,
,,,,,,,,,,,,,,,,,,,,5,0,5,0,18,0,18,0,,,,,,expounded,w,g,lower,,,,,,,1,nw,HiDemTar,g,1,0.8304667402844643,,,,,,,,,,,,,,,,,,381,2023-11-16_10h00.49.531,leap3,2022.2.5,60.02065318891152,
,,,,,,,,,,,,,,,,,,,,5,0,5,0,19,0,19,0,,,,,,superstar,w,g,lower,,,,,,,1,w,HiDemTar,g,1,0.6925307201745454,,,,,,,,,,,,,,,,,,381,2023-11-16_10h00.49.531,leap3,2022.2.5,60.02065318891152,
,,,,,,,,,,,,,,,,,,,,5,0,5,0,20,0,20,0,,,,,,micron,w,g,lower,,,,,,,1,w,HiDemTar,h,0,1.1117469057353446,,,,,,,,,,,,,,,,,,381,2023-11-16_10h00.49.531,leap3,2022.2.5,60.02065318891152,
,,,,,,,,,,,,,,,,,,,,5,0,5,0,21,0,21,0,,,,,,flooted,nw,h,lower,,,,,,,1,w,HiDemTar,h,1,1.0334146620589308,,,,,,,,,,,,,,,,,,381,2023-11-16_10h00.49.531,leap3,2022.2.5,60.02065318891152,
,,,,,,,,,,,,,,,,,,,,5,0,5,0,22,0,22,0,,,,,,causality,w,g,lower,,,,,,,1,nw,HiDemTar,g,1,0.6953665373875992,,,,,,,,,,,,,,,,,,381,2023-11-16_10h00.49.531,leap3,2022.2.5,60.02065318891152,
,,,,,,,,,,,,,,,,,,,,5,0,5,0,23,0,23,0,,,,,,flieves,nw,h,lower,,,,,,,1,w,HiDemTar,h,1,1.0106882811378455,,,,,,,,,,,,,,,,,,381,2023-11-16_10h00.49.531,leap3,2022.2.5,60.02065318891152,
,,,,,,,,,,,,,,,,,,,,5,0,5,0,24,0,24,0,,,,,,icepick,w,g,lower,,,,,,,1,nw,HiDemTar,g,1,1.3115218514139997,,,,,,,,,,,,,,,,,,381,2023-11-16_10h00.49.531,leap3,2022.2.5,60.02065318891152,
,,,,,,,,,,,,,,,,,,,,5,0,5,0,25,0,25,0,,,,,,geissue,nw,h,lower,,,,,,,1,w,HiDemTar,h,1,0.9379823953786399,,,,,,,,,,,,,,,,,,381,2023-11-16_10h00.49.531,leap3,2022.2.5,60.02065318891152,
,,,,,,,,,,,,,,,,,,,,5,0,5,0,26,0,26,0,,,,,,condensed,w,g,lower,,,,,,,1,nw,HiDemTar,g,1,0.8833934424765175,,,,,,,,,,,,,,,,,,381,2023-11-16_10h00.49.531,leap3,2022.2.5,60.02065318891152,
,,,,,,,,,,,,,,,,,,,,5,0,5,0,27,0,27,0,,,,,,drobate,nw,h,lower,,,,,,,1,w,HiDemTar,h,1,0.9345591912424425,,,,,,,,,,,,,,,,,,381,2023-11-16_10h00.49.531,leap3,2022.2.5,60.02065318891152,
,,,,,,,,,,,,,,,,,,,,5,0,5,0,28,0,28,0,,,,,,mandate,w,g,lower,,,,,,,1,nw,HiDemTar,g,1,0.7678246098512318,,,,,,,,,,,,,,,,,,381,2023-11-16_10h00.49.531,leap3,2022.2.5,60.02065318891152,
,,,,,,,,,,,,,,,,,,,,5,0,5,0,29,0,29,0,,,,,,outrank,w,g,lower,,,,,,,1,w,HiDemTar,g,1,0.742817803286016,,,,,,,,,,,,,,,,,,381,2023-11-16_10h00.49.531,leap3,2022.2.5,60.02065318891152,
,,,,,,,,,,,,,,,,,,,,5,0,5,0,,,,,,,,,,,,,,,,,,,,,,,,,,1,,,,,,,,,,,,,,,,,381,2023-11-16_10h00.49.531,leap3,2022.2.5,60.02065318891152,
,,,,,,,,,,,,,,,,,,,,6,0,6,0,0,0,0,0,,,,,,duplex,w,g,upper,,,,,,,3,w,LoDemNoTar,g,1,0.8799608811968938,,,,,,,,,,,,,,,,,,381,2023-11-16_10h00.49.531,leap3,2022.2.5,60.02065318891152,
,,,,,,,,,,,,,,,,,,,,6,0,6,0,1,0,1,0,,,,,,innocent,w,g,upper,,,,,,,3,w,LoDemNoTar,g,1,0.6119793250254588,,,,,,,,,,,,,,,,,,381,2023-11-16_10h00.49.531,leap3,2022.2.5,60.02065318891152,
,,,,,,,,,,,,,,,,,,,,6,0,6,0,2,0,2,0,,,,,,gremieres,nw,h,upper,,,,,,,3,nw,LoDemNoTar,h,1,0.913719934222172,,,,,,,,,,,,,,,,,,381,2023-11-16_10h00.49.531,leap3,2022.2.5,60.02065318891152,
,,,,,,,,,,,,,,,,,,,,6,0,6,0,3,0,3,0,,,,,,roughly,w,g,upper,,,,,,,3,w,LoDemNoTar,g,1,0.6282873113814276,,,,,,,,,,,,,,,,,,381,2023-11-16_10h00.49.531,leap3,2022.2.5,60.02065318891152,
,,,,,,,,,,,,,,,,,,,,6,0,6,0,4,0,4,0,,,,,,corduroy,w,g,upper,,,,,,,3,w,LoDemNoTar,g,1,0.7383728597778827,,,,,,,,,,,,,,,,,,381,2023-11-16_10h00.49.531,leap3,2022.2.5,60.02065318891152,
,,,,,,,,,,,,,,,,,,,,6,0,6,0,5,0,5,0,,,,,,earterner,nw,h,upper,,,,,,,3,nw,LoDemNoTar,h,1,1.2354978029616177,,,,,,,,,,,,,,,,,,381,2023-11-16_10h00.49.531,leap3,2022.2.5,60.02065318891152,
,,,,,,,,,,,,,,,,,,,,6,0,6,0,6,0,6,0,,,,,,yearnungs,nw,h,upper,,,,,,,3,nw,LoDemNoTar,h,1,1.104854617296951,,,,,,,,,,,,,,,,,,381,2023-11-16_10h00.49.531,leap3,2022.2.5,60.02065318891152,
,,,,,,,,,,,,,,,,,,,,6,0,6,0,7,0,7,0,,,,,,become,w,g,upper,,,,,,,3,w,LoDemNoTar,g,1,0.7314847971574636,,,,,,,,,,,,,,,,,,381,2023-11-16_10h00.49.531,leap3,2022.2.5,60.02065318891152,
,,,,,,,,,,,,,,,,,,,,6,0,6,0,8,0,8,0,,,,,,surdens,nw,h,upper,,,,,,,3,nw,LoDemNoTar,h,1,1.581460559144034,,,,,,,,,,,,,,,,,,381,2023-11-16_10h00.49.531,leap3,2022.2.5,60.02065318891152,
,,,,,,,,,,,,,,,,,,,,6,0,6,0,9,0,9,0,,,,,,chemical,w,g,upper,,,,,,,3,w,LoDemNoTar,g,1,0.9005743594752857,,,,,,,,,,,,,,,,,,381,2023-11-16_10h00.49.531,leap3,2022.2.5,60.02065318891152,
,,,,,,,,,,,,,,,,,,,,6,0,6,0,10,0,10,0,,,,,,finstrel,nw,h,upper,,,,,,,3,nw,LoDemNoTar,h,1,0.7670926400023745,,,,,,,,,,,,,,,,,,381,2023-11-16_10h00.49.531,leap3,2022.2.5,60.02065318891152,
,,,,,,,,,,,,,,,,,,,,6,0,6,0,11,0,11,0,,,,,,brother,w,g,upper,,,,,,,3,w,LoDemNoTar,g,1,0.781987094465876,,,,,,,,,,,,,,,,,,381,2023-11-16_10h00.49.531,leap3,2022.2.5,60.02065318891152,
,,,,,,,,,,,,,,,,,,,,6,0,6,0,12,0,12,0,,,,,,grenavier,nw,h,upper,,,,,,,3,nw,LoDemNoTar,h,1,1.0852046226355014,,,,,,,,,,,,,,,,,,381,2023-11-16_10h00.49.531,leap3,2022.2.5,60.02065318891152,
,,,,,,,,,,,,,,,,,,,,6,0,6,0,13,0,13,0,,,,,,elpousal,nw,h,upper,,,,,,,3,nw,LoDemNoTar,h,1,0.8094095524575096,,,,,,,,,,,,,,,,,,381,2023-11-16_10h00.49.531,leap3,2022.2.5,60.02065318891152,
,,,,,,,,,,,,,,,,,,,,6,0,6,0,14,0,14,0,,,,,,mixture,w,g,upper,,,,,,,3,w,LoDemNoTar,g,1,0.7835735825210577,,,,,,,,,,,,,,,,,,381,2023-11-16_10h00.49.531,leap3,2022.2.5,60.02065318891152,
,,,,,,,,,,,,,,,,,,,,6,0,6,0,15,0,15,0,,,,,,student,w,g,upper,,,,,,,3,w,LoDemNoTar,g,1,0.6468905137007823,,,,,,,,,,,,,,,,,,381,2023-11-16_10h00.49.531,leap3,2022.2.5,60.02065318891152,
,,,,,,,,,,,,,,,,,,,,6,0,6,0,16,0,16,0,,,,,,ofsters,nw,h,upper,,,,,,,3,nw,LoDemNoTar,h,1,0.8115001187106827,,,,,,,,,,,,,,,,,,381,2023-11-16_10h00.49.531,leap3,2022.2.5,60.02065318891152,
,,,,,,,,,,,,,,,,,,,,6,0,6,0,17,0,17,0,,,,,,thacked,nw,h,upper,,,,,,,3,nw,LoDemNoTar,h,1,0.7295116479072021,,,,,,,,,,,,,,,,,,381,2023-11-16_10h00.49.531,leap3,2022.2.5,60.02065318891152,
,,,,,,,,,,,,,,,,,,,,6,0,6,0,18,0,18,0,,,,,,splinging,nw,h,upper,,,,,,,3,nw,LoDemNoTar,g,0,1.0105877673340729,,,,,,,,,,,,,,,,,,381,2023-11-16_10h00.49.531,leap3,2022.2.5,60.02065318891152,
,,,,,,,,,,,,,,,,,,,,6,0,6,0,19,0,19,0,,,,,,booster,w,g,upper,,,,,,,3,w,LoDemNoTar,g,1,0.7685417893808335,,,,,,,,,,,,,,,,,,381,2023-11-16_10h00.49.531,leap3,2022.2.5,60.02065318891152,
,,,,,,,,,,,,,,,,,,,,6,0,6,0,20,0,20,0,,,,,,eggays,nw,h,upper,,,,,,,3,nw,LoDemNoTar,h,1,1.1444205305015203,,,,,,,,,,,,,,,,,,381,2023-11-16_10h00.49.531,leap3,2022.2.5,60.02065318891152,
,,,,,,,,,,,,,,,,,,,,6,0,6,0,21,0,21,0,,,,,,sefraud,nw,h,upper,,,,,,,3,nw,LoDemNoTar,h,1,0.9537054095417261,,,,,,,,,,,,,,,,,,381,2023-11-16_10h00.49.531,leap3,2022.2.5,60.02065318891152,
,,,,,,,,,,,,,,,,,,,,6,0,6,0,22,0,22,0,,,,,,sooled,nw,h,upper,,,,,,,3,nw,LoDemNoTar,h,1,1.1943469109246507,,,,,,,,,,,,,,,,,,381,2023-11-16_10h00.49.531,leap3,2022.2.5,60.02065318891152,
,,,,,,,,,,,,,,,,,,,,6,0,6,0,23,0,23,0,,,,,,runabouk,nw,h,upper,,,,,,,3,nw,LoDemNoTar,h,1,0.8416515413846355,,,,,,,,,,,,,,,,,,381,2023-11-16_10h00.49.531,leap3,2022.2.5,60.02065318891152,
,,,,,,,,,,,,,,,,,,,,6,0,6,0,24,0,24,0,,,,,,mullet,w,g,upper,,,,,,,3,w,LoDemNoTar,g,1,1.0229228930111276,,,,,,,,,,,,,,,,,,381,2023-11-16_10h00.49.531,leap3,2022.2.5,60.02065318891152,
,,,,,,,,,,,,,,,,,,,,6,0,6,0,25,0,25,0,,,,,,presently,w,g,upper,,,,,,,3,w,LoDemNoTar,g,1,0.6602688095881604,,,,,,,,,,,,,,,,,,381,2023-11-16_10h00.49.531,leap3,2022.2.5,60.02065318891152,
,,,,,,,,,,,,,,,,,,,,6,0,6,0,26,0,26,0,,,,,,riosk,nw,h,upper,,,,,,,3,nw,LoDemNoTar,h,1,0.7520813721930608,,,,,,,,,,,,,,,,,,381,2023-11-16_10h00.49.531,leap3,2022.2.5,60.02065318891152,
,,,,,,,,,,,,,,,,,,,,6,0,6,0,27,0,27,0,,,,,,massacre,w,g,upper,,,,,,,3,w,LoDemNoTar,g,1,0.8484255072835367,,,,,,,,,,,,,,,,,,381,2023-11-16_10h00.49.531,leap3,2022.2.5,60.02065318891152,
,,,,,,,,,,,,,,,,,,,,6,0,6,0,28,0,28,0,,,,,,glassware,w,g,upper,,,,,,,3,w,LoDemNoTar,g,1,0.7497514442511601,,,,,,,,,,,,,,,,,,381,2023-11-16_10h00.49.531,leap3,2022.2.5,60.02065318891152,
,,,,,,,,,,,,,,,,,,,,6,0,6,0,29,0,29,0,,,,,,shamrock,w,g,upper,,,,,,,3,w,LoDemNoTar,g,1,0.7264406948379474,,,,,,,,,,,,,,,,,,381,2023-11-16_10h00.49.531,leap3,2022.2.5,60.02065318891152,
,,,,,,,,,,,,,,,,,,,,6,0,6,0,,,,,,,,,,,,,,,,,,,,,,,,,,NA,,,,,,,,,,,,,,,,,381,2023-11-16_10h00.49.531,leap3,2022.2.5,60.02065318891152,
,,,,,,,,,,,,,,,,,,,,7,0,7,0,0,0,0,0,,,,,,persona,w,g,lower,,,,,,,1,w,HiDemTar,g,1,0.8154681498854188,,,,,,,,,,,,,,,,,,381,2023-11-16_10h00.49.531,leap3,2022.2.5,60.02065318891152,
,,,,,,,,,,,,,,,,,,,,7,0,7,0,1,0,1,0,,,,,,mubby,nw,h,lower,,,,,,,1,nw,HiDemTar,h,1,0.9331915395305259,,,,,,,,,,,,,,,,,,381,2023-11-16_10h00.49.531,leap3,2022.2.5,60.02065318891152,
,,,,,,,,,,,,,,,,,,,,7,0,7,0,2,0,2,0,,,,,,miability,nw,h,lower,,,,,,,1,nw,HiDemTar,h,1,1.094615189198521,,,,,,,,,,,,,,,,,,381,2023-11-16_10h00.49.531,leap3,2022.2.5,60.02065318891152,
,,,,,,,,,,,,,,,,,,,,7,0,7,0,3,0,3,0,,,,,,failure,w,g,lower,,,,,,,1,w,HiDemTar,g,1,1.241233126289444,,,,,,,,,,,,,,,,,,381,2023-11-16_10h00.49.531,leap3,2022.2.5,60.02065318891152,
,,,,,,,,,,,,,,,,,,,,7,0,7,0,4,0,4,0,,,,,,tibs,nw,h,lower,,,,,,,1,nw,HiDemTar,h,1,0.7737618663086323,,,,,,,,,,,,,,,,,,381,2023-11-16_10h00.49.531,leap3,2022.2.5,60.02065318891152,
,,,,,,,,,,,,,,,,,,,,7,0,7,0,5,0,5,0,,,,,,thamp,nw,h,lower,,,,,,,1,nw,HiDemTar,h,1,0.7570789906458231,,,,,,,,,,,,,,,,,,381,2023-11-16_10h00.49.531,leap3,2022.2.5,60.02065318891152,
,,,,,,,,,,,,,,,,,,,,7,0,7,0,6,0,6,0,,,,,,crazy,w,g,lower,,,,,,,1,w,HiDemTar,g,1,0.6450664750300348,,,,,,,,,,,,,,,,,,381,2023-11-16_10h00.49.531,leap3,2022.2.5,60.02065318891152,
,,,,,,,,,,,,,,,,,,,,7,0,7,0,7,0,7,0,,,,,,arranged,w,g,lower,,,,,,,1,w,HiDemTar,g,1,0.6497447433357593,,,,,,,,,,,,,,,,,,381,2023-11-16_10h00.49.531,leap3,2022.2.5,60.02065318891152,
,,,,,,,,,,,,,,,,,,,,7,0,7,0,8,0,8,0,,,,,,lofty,w,g,lower,,,,,,,1,w,HiDemTar,g,1,1.0864222582458751,,,,,,,,,,,,,,,,,,381,2023-11-16_10h00.49.531,leap3,2022.2.5,60.02065318891152,
,,,,,,,,,,,,,,,,,,,,7,0,7,0,9,0,9,0,,,,,,tapling,nw,h,lower,,,,,,,1,nw,HiDemTar,h,1,1.352057285097544,,,,,,,,,,,,,,,,,,381,2023-11-16_10h00.49.531,leap3,2022.2.5,60.02065318891152,
,,,,,,,,,,,,,,,,,,,,7,0,7,0,10,0,10,0,,,,,,coyote,target,q,lower,,,,,,,1,target,HiDemTar,q,1,0.6246588538342621,,1,,,,,,,,,,,,,,,,381,2023-11-16_10h00.49.531,leap3,2022.2.5,60.02065318891152,
,,,,,,,,,,,,,,,,,,,,7,0,7,0,11,0,11,0,,,,,,fomes,nw,h,lower,,,,,,,1,aftertar1,HiDemTar,h,1,0.7019832429505186,,,,,,,,,,,,,,,,,,381,2023-11-16_10h00.49.531,leap3,2022.2.5,60.02065318891152,
,,,,,,,,,,,,,,,,,,,,7,0,7,0,12,0,12,0,,,,,,equitable,w,g,lower,,,,,,,1,aftertar2,HiDemTar,g,1,0.7686779206851497,,,,,,,,,,,,,,,,,,381,2023-11-16_10h00.49.531,leap3,2022.2.5,60.02065318891152,
,,,,,,,,,,,,,,,,,,,,7,0,7,0,13,0,13,0,,,,,,carnival,w,g,lower,,,,,,,1,aftertar3,HiDemTar,g,1,1.3445754968124675,,,,,,,,,,,,,,,,,,381,2023-11-16_10h00.49.531,leap3,2022.2.5,60.02065318891152,
,,,,,,,,,,,,,,,,,,,,7,0,7,0,14,0,14,0,,,,,,undimmec,nw,h,lower,,,,,,,1,w,HiDemTar,h,1,0.7292079936160007,,,,,,,,,,,,,,,,,,381,2023-11-16_10h00.49.531,leap3,2022.2.5,60.02065318891152,
,,,,,,,,,,,,,,,,,,,,7,0,7,0,15,0,15,0,,,,,,veclors,nw,h,lower,,,,,,,1,nw,HiDemTar,h,1,0.8184853748680325,,,,,,,,,,,,,,,,,,381,2023-11-16_10h00.49.531,leap3,2022.2.5,60.02065318891152,
,,,,,,,,,,,,,,,,,,,,7,0,7,0,16,0,16,0,,,,,,mestowal,nw,h,lower,,,,,,,1,nw,HiDemTar,h,1,0.7924652805668302,,,,,,,,,,,,,,,,,,381,2023-11-16_10h00.49.531,leap3,2022.2.5,60.02065318891152,
,,,,,,,,,,,,,,,,,,,,7,0,7,0,17,0,17,0,,,,,,arrival,w,g,lower,,,,,,,1,nw,HiDemTar,g,1,0.6381633202108787,,,,,,,,,,,,,,,,,,381,2023-11-16_10h00.49.531,leap3,2022.2.5,60.02065318891152,
,,,,,,,,,,,,,,,,,,,,7,0,7,0,18,0,18,0,,,,,,terming,w,g,lower,,,,,,,1,w,HiDemTar,h,0,0.6839146050042473,,,,,,,,,,,,,,,,,,381,2023-11-16_10h00.49.531,leap3,2022.2.5,60.02065318891152,
,,,,,,,,,,,,,,,,,,,,7,0,7,0,19,0,19,0,,,,,,irregular,w,g,lower,,,,,,,1,w,HiDemTar,g,1,0.6780494890990667,,,,,,,,,,,,,,,,,,381,2023-11-16_10h00.49.531,leap3,2022.2.5,60.02065318891152,
,,,,,,,,,,,,,,,,,,,,7,0,7,0,20,0,20,0,,,,,,computer,w,g,lower,,,,,,,1,w,HiDemTar,g,1,0.728311217360897,,,,,,,,,,,,,,,,,,381,2023-11-16_10h00.49.531,leap3,2022.2.5,60.02065318891152,
,,,,,,,,,,,,,,,,,,,,7,0,7,0,21,0,21,0,,,,,,otoist,nw,h,lower,,,,,,,1,w,HiDemTar,h,1,0.8494892028538743,,,,,,,,,,,,,,,,,,381,2023-11-16_10h00.49.531,leap3,2022.2.5,60.02065318891152,
,,,,,,,,,,,,,,,,,,,,7,0,7,0,22,0,22,0,,,,,,sengry,nw,h,lower,,,,,,,1,nw,HiDemTar,h,1,1.6547260622610338,,,,,,,,,,,,,,,,,,381,2023-11-16_10h00.49.531,leap3,2022.2.5,60.02065318891152,
,,,,,,,,,,,,,,,,,,,,7,0,7,0,23,0,23,0,,,,,,serving,w,g,lower,,,,,,,1,nw,HiDemTar,g,1,0.6512421876250301,,,,,,,,,,,,,,,,,,381,2023-11-16_10h00.49.531,leap3,2022.2.5,60.02065318891152,
,,,,,,,,,,,,,,,,,,,,7,0,7,0,24,0,24,0,,,,,,ecistle,nw,h,lower,,,,,,,1,w,HiDemTar,h,1,0.7358250010292977,,,,,,,,,,,,,,,,,,381,2023-11-16_10h00.49.531,leap3,2022.2.5,60.02065318891152,
,,,,,,,,,,,,,,,,,,,,7,0,7,0,25,0,25,0,,,,,,detrabe,nw,h,lower,,,,,,,1,nw,HiDemTar,h,1,1.1276235581026413,,,,,,,,,,,,,,,,,,381,2023-11-16_10h00.49.531,leap3,2022.2.5,60.02065318891152,
,,,,,,,,,,,,,,,,,,,,7,0,7,0,26,0,26,0,,,,,,nogwhell,nw,h,lower,,,,,,,1,nw,HiDemTar,h,1,0.6728094905265607,,,,,,,,,,,,,,,,,,381,2023-11-16_10h00.49.531,leap3,2022.2.5,60.02065318891152,
,,,,,,,,,,,,,,,,,,,,7,0,7,0,27,0,27,0,,,,,,quittint,nw,h,lower,,,,,,,1,nw,HiDemTar,h,1,0.5795100481482223,,,,,,,,,,,,,,,,,,381,2023-11-16_10h00.49.531,leap3,2022.2.5,60.02065318891152,
,,,,,,,,,,,,,,,,,,,,7,0,7,0,28,0,28,0,,,,,,bickering,w,g,lower,,,,,,,1,nw,HiDemTar,g,1,0.7872458073397866,,,,,,,,,,,,,,,,,,381,2023-11-16_10h00.49.531,leap3,2022.2.5,60.02065318891152,
,,,,,,,,,,,,,,,,,,,,7,0,7,0,29,0,29,0,,,,,,handcuff,w,g,lower,,,,,,,1,w,HiDemTar,g,1,0.7300564749602927,,,,,,,,,,,,,,,,,,381,2023-11-16_10h00.49.531,leap3,2022.2.5,60.02065318891152,
,,,,,,,,,,,,,,,,,,,,7,0,7,0,,,,,,,,,,,,,,,,,,,,,,,,,,1,,,,,,,,,,,,,,,,,381,2023-11-16_10h00.49.531,leap3,2022.2.5,60.02065318891152,
,,,,,,,,,,,,,,,,,,,,8,0,8,0,0,0,0,0,,,,,,company,w,g,upper,,,,,,,3,w,LoDemNoTar,g,1,1.30697609228082,,,,,,,,,,,,,,,,,,381,2023-11-16_10h00.49.531,leap3,2022.2.5,60.02065318891152,
,,,,,,,,,,,,,,,,,,,,8,0,8,0,1,0,1,0,,,,,,coverall,w,g,upper,,,,,,,3,w,LoDemNoTar,g,1,0.6688118786987616,,,,,,,,,,,,,,,,,,381,2023-11-16_10h00.49.531,leap3,2022.2.5,60.02065318891152,
,,,,,,,,,,,,,,,,,,,,8,0,8,0,2,0,2,0,,,,,,peems,nw,h,upper,,,,,,,3,nw,LoDemNoTar,h,1,0.856752758481889,,,,,,,,,,,,,,,,,,381,2023-11-16_10h00.49.531,leap3,2022.2.5,60.02065318891152,
,,,,,,,,,,,,,,,,,,,,8,0,8,0,3,0,3,0,,,,,,pester,w,g,upper,,,,,,,3,w,LoDemNoTar,g,1,0.9087518964079209,,,,,,,,,,,,,,,,,,381,2023-11-16_10h00.49.531,leap3,2022.2.5,60.02065318891152,
,,,,,,,,,,,,,,,,,,,,8,0,8,0,4,0,4,0,,,,,,stagger,w,g,upper,,,,,,,3,w,LoDemNoTar,g,1,0.6707675210345769,,,,,,,,,,,,,,,,,,381,2023-11-16_10h00.49.531,leap3,2022.2.5,60.02065318891152,
,,,,,,,,,,,,,,,,,,,,8,0,8,0,5,0,5,0,,,,,,suspect,w,g,upper,,,,,,,3,w,LoDemNoTar,g,1,0.642136784575996,,,,,,,,,,,,,,,,,,381,2023-11-16_10h00.49.531,leap3,2022.2.5,60.02065318891152,
,,,,,,,,,,,,,,,,,,,,8,0,8,0,6,0,6,0,,,,,,culer,nw,h,upper,,,,,,,3,nw,LoDemNoTar,h,1,0.9666738023224752,,,,,,,,,,,,,,,,,,381,2023-11-16_10h00.49.531,leap3,2022.2.5,60.02065318891152,
,,,,,,,,,,,,,,,,,,,,8,0,8,0,7,0,7,0,,,,,,tracing,w,g,upper,,,,,,,3,w,LoDemNoTar,g,1,0.5186979932623217,,,,,,,,,,,,,,,,,,381,2023-11-16_10h00.49.531,leap3,2022.2.5,60.02065318891152,
,,,,,,,,,,,,,,,,,,,,8,0,8,0,8,0,8,0,,,,,,fomrade,nw,h,upper,,,,,,,3,nw,LoDemNoTar,h,1,0.8155236890452215,,,,,,,,,,,,,,,,,,381,2023-11-16_10h00.49.531,leap3,2022.2.5,60.02065318891152,
,,,,,,,,,,,,,,,,,,,,8,0,8,0,9,0,9,0,,,,,,splatter,w,g,upper,,,,,,,3,w,LoDemNoTar,g,1,0.9734848949447041,,,,,,,,,,,,,,,,,,381,2023-11-16_10h00.49.531,leap3,2022.2.5,60.02065318891152,
,,,,,,,,,,,,,,,,,,,,8,0,8,0,10,0,10,0,,,,,,mebase,nw,h,upper,,,,,,,3,nw,LoDemNoTar,h,1,0.6445246664079605,,,,,,,,,,,,,,,,,,381,2023-11-16_10h00.49.531,leap3,2022.2.5,60.02065318891152,
,,,,,,,,,,,,,,,,,,,,8,0,8,0,11,0,11,0,,,,,,entitle,w,g,upper,,,,,,,3,w,LoDemNoTar,g,1,0.8575897697737673,,,,,,,,,,,,,,,,,,381,2023-11-16_10h00.49.531,leap3,2022.2.5,60.02065318891152,
,,,,,,,,,,,,,,,,,,,,8,0,8,0,12,0,12,0,,,,,,thorifies,nw,h,upper,,,,,,,3,nw,LoDemNoTar,h,1,1.885490951128304,,,,,,,,,,,,,,,,,,381,2023-11-16_10h00.49.531,leap3,2022.2.5,60.02065318891152,
,,,,,,,,,,,,,,,,,,,,8,0,8,0,13,0,13,0,,,,,,acidic,w,g,upper,,,,,,,3,w,LoDemNoTar,g,1,0.9128403630456887,,,,,,,,,,,,,,,,,,381,2023-11-16_10h00.49.531,leap3,2022.2.5,60.02065318891152,
,,,,,,,,,,,,,,,,,,,,8,0,8,0,14,0,14,0,,,,,,flougy,nw,h,upper,,,,,,,3,nw,LoDemNoTar,h,1,0.6828020108368946,,,,,,,,,,,,,,,,,,381,2023-11-16_10h00.49.531,leap3,2022.2.5,60.02065318891152,
,,,,,,,,,,,,,,,,,,,,8,0,8,0,15,0,15,0,,,,,,committed,w,g,upper,,,,,,,3,w,LoDemNoTar,g,1,0.6141381078487029,,,,,,,,,,,,,,,,,,381,2023-11-16_10h00.49.531,leap3,2022.2.5,60.02065318891152,
,,,,,,,,,,,,,,,,,,,,8,0,8,0,16,0,16,0,,,,,,addma,nw,h,upper,,,,,,,3,nw,LoDemNoTar,h,1,1.0520414081547642,,,,,,,,,,,,,,,,,,381,2023-11-16_10h00.49.531,leap3,2022.2.5,60.02065318891152,
,,,,,,,,,,,,,,,,,,,,8,0,8,0,17,0,17,0,,,,,,latpin,nw,h,upper,,,,,,,3,nw,LoDemNoTar,h,1,0.8316831685224315,,,,,,,,,,,,,,,,,,381,2023-11-16_10h00.49.531,leap3,2022.2.5,60.02065318891152,
,,,,,,,,,,,,,,,,,,,,8,0,8,0,18,0,18,0,,,,,,halms,nw,h,upper,,,,,,,3,nw,LoDemNoTar,h,1,1.2370667841023533,,,,,,,,,,,,,,,,,,381,2023-11-16_10h00.49.531,leap3,2022.2.5,60.02065318891152,
,,,,,,,,,,,,,,,,,,,,8,0,8,0,19,0,19,0,,,,,,brials,nw,h,upper,,,,,,,3,nw,LoDemNoTar,g,0,0.8416204515378922,,,,,,,,,,,,,,,,,,381,2023-11-16_10h00.49.531,leap3,2022.2.5,60.02065318891152,
,,,,,,,,,,,,,,,,,,,,8,0,8,0,20,0,20,0,,,,,,hustle,w,g,upper,,,,,,,3,w,LoDemNoTar,g,1,1.0222730245441198,,,,,,,,,,,,,,,,,,381,2023-11-16_10h00.49.531,leap3,2022.2.5,60.02065318891152,
,,,,,,,,,,,,,,,,,,,,8,0,8,0,21,0,21,0,,,,,,image,w,g,upper,,,,,,,3,w,LoDemNoTar,g,1,0.5715890779392794,,,,,,,,,,,,,,,,,,381,2023-11-16_10h00.49.531,leap3,2022.2.5,60.02065318891152,
,,,,,,,,,,,,,,,,,,,,8,0,8,0,22,0,22,0,,,,,,populace,w,g,upper,,,,,,,3,w,LoDemNoTar,g,1,0.9708501053391956,,,,,,,,,,,,,,,,,,381,2023-11-16_10h00.49.531,leap3,2022.2.5,60.02065318891152,
,,,,,,,,,,,,,,,,,,,,8,0,8,0,23,0,23,0,,,,,,louches,nw,h,upper,,,,,,,3,nw,LoDemNoTar,h,1,0.922158867426333,,,,,,,,,,,,,,,,,,381,2023-11-16_10h00.49.531,leap3,2022.2.5,60.02065318891152,
,,,,,,,,,,,,,,,,,,,,8,0,8,0,24,0,24,0,,,,,,passet,nw,h,upper,,,,,,,3,nw,LoDemNoTar,h,1,0.6425563466618769,,,,,,,,,,,,,,,,,,381,2023-11-16_10h00.49.531,leap3,2022.2.5,60.02065318891152,
,,,,,,,,,,,,,,,,,,,,8,0,8,0,25,0,25,0,,,,,,martial,w,g,upper,,,,,,,3,w,LoDemNoTar,g,1,0.7840680017543491,,,,,,,,,,,,,,,,,,381,2023-11-16_10h00.49.531,leap3,2022.2.5,60.02065318891152,
,,,,,,,,,,,,,,,,,,,,8,0,8,0,26,0,26,0,,,,,,dehydrate,w,g,upper,,,,,,,3,w,LoDemNoTar,g,1,0.6384108316706261,,,,,,,,,,,,,,,,,,381,2023-11-16_10h00.49.531,leap3,2022.2.5,60.02065318891152,
,,,,,,,,,,,,,,,,,,,,8,0,8,0,27,0,27,0,,,,,,sponto,nw,h,upper,,,,,,,3,nw,LoDemNoTar,h,1,0.7710344108199934,,,,,,,,,,,,,,,,,,381,2023-11-16_10h00.49.531,leap3,2022.2.5,60.02065318891152,
,,,,,,,,,,,,,,,,,,,,8,0,8,0,28,0,28,0,,,,,,ilterfere,nw,h,upper,,,,,,,3,nw,LoDemNoTar,h,1,0.9063555629691109,,,,,,,,,,,,,,,,,,381,2023-11-16_10h00.49.531,leap3,2022.2.5,60.02065318891152,
,,,,,,,,,,,,,,,,,,,,8,0,8,0,29,0,29,0,,,,,,geadpan,nw,h,upper,,,,,,,3,nw,LoDemNoTar,h,1,0.7312508686445653,,,,,,,,,,,,,,,,,,381,2023-11-16_10h00.49.531,leap3,2022.2.5,60.02065318891152,
,,,,,,,,,,,,,,,,,,,,8,0,8,0,,,,,,,,,,,,,,,,,,,,,,,,,,NA,,,,,,,,,,,,,,,,,381,2023-11-16_10h00.49.531,leap3,2022.2.5,60.02065318891152,
,,,,,,,,,,,,,,,,,,,,9,0,9,0,0,0,0,0,,,,,,chight,nw,h,lower,,,,,,,2,nw,HiDemNoTar,h,1,0.9254731061519124,,,,,,,,,,,,,,,,,,381,2023-11-16_10h00.49.531,leap3,2022.2.5,60.02065318891152,
,,,,,,,,,,,,,,,,,,,,9,0,9,0,1,0,1,0,,,,,,chrayed,nw,h,lower,,,,,,,2,nw,HiDemNoTar,h,1,0.7257410222082399,,,,,,,,,,,,,,,,,,381,2023-11-16_10h00.49.531,leap3,2022.2.5,60.02065318891152,
,,,,,,,,,,,,,,,,,,,,9,0,9,0,2,0,2,0,,,,,,unburnid,nw,h,lower,,,,,,,2,nw,HiDemNoTar,h,1,1.0469954947766382,,,,,,,,,,,,,,,,,,381,2023-11-16_10h00.49.531,leap3,2022.2.5,60.02065318891152,
,,,,,,,,,,,,,,,,,,,,9,0,9,0,3,0,3,0,,,,,,plapping,nw,h,lower,,,,,,,2,nw,HiDemNoTar,h,1,0.7957167358981678,,,,,,,,,,,,,,,,,,381,2023-11-16_10h00.49.531,leap3,2022.2.5,60.02065318891152,
,,,,,,,,,,,,,,,,,,,,9,0,9,0,4,0,4,0,,,,,,digest,w,g,lower,,,,,,,2,w,HiDemNoTar,g,1,0.778322113896138,,,,,,,,,,,,,,,,,,381,2023-11-16_10h00.49.531,leap3,2022.2.5,60.02065318891152,
,,,,,,,,,,,,,,,,,,,,9,0,9,0,5,0,5,0,,,,,,uncle,w,g,lower,,,,,,,2,w,HiDemNoTar,g,1,0.5616098387254169,,,,,,,,,,,,,,,,,,381,2023-11-16_10h00.49.531,leap3,2022.2.5,60.02065318891152,
,,,,,,,,,,,,,,,,,,,,9,0,9,0,6,0,6,0,,,,,,protest,w,g,lower,,,,,,,2,w,HiDemNoTar,g,1,0.9536377966433065,,,,,,,,,,,,,,,,,,381,2023-11-16_10h00.49.531,leap3,2022.2.5,60.02065318891152,
,,,,,,,,,,,,,,,,,,,,9,0,9,0,7,0,7,0,,,,,,meteoroid,w,g,lower,,,,,,,2,w,HiDemNoTar,g,1,1.0575696670130128,,,,,,,,,,,,,,,,,,381,2023-11-16_10h00.49.531,leap3,2022.2.5,60.02065318891152,
,,,,,,,,,,,,,,,,,,,,9,0,9,0,8,0,8,0,,,,,,daining,nw,h,lower,,,,,,,2,nw,HiDemNoTar,h,1,1.1575347135658376,,,,,,,,,,,,,,,,,,381,2023-11-16_10h00.49.531,leap3,2022.2.5,60.02065318891152,
,,,,,,,,,,,,,,,,,,,,9,0,9,0,9,0,9,0,,,,,,imprives,nw,h,lower,,,,,,,2,nw,HiDemNoTar,h,1,0.9564914226066321,,,,,,,,,,,,,,,,,,381,2023-11-16_10h00.49.531,leap3,2022.2.5,60.02065318891152,
,,,,,,,,,,,,,,,,,,,,9,0,9,0,10,0,10,0,,,,,,sequence,w,g,lower,,,,,,,2,w,HiDemNoTar,g,1,0.7164502874074969,,,,,,,,,,,,,,,,,,381,2023-11-16_10h00.49.531,leap3,2022.2.5,60.02065318891152,
,,,,,,,,,,,,,,,,,,,,9,0,9,0,11,0,11,0,,,,,,fictional,w,g,lower,,,,,,,2,w,HiDemNoTar,g,1,0.6544199932104675,,,,,,,,,,,,,,,,,,381,2023-11-16_10h00.49.531,leap3,2022.2.5,60.02065318891152,
,,,,,,,,,,,,,,,,,,,,9,0,9,0,12,0,12,0,,,,,,govern,w,g,lower,,,,,,,2,w,HiDemNoTar,g,1,1.1944226735795382,,,,,,,,,,,,,,,,,,381,2023-11-16_10h00.49.531,leap3,2022.2.5,60.02065318891152,
,,,,,,,,,,,,,,,,,,,,9,0,9,0,13,0,13,0,,,,,,theery,nw,h,lower,,,,,,,2,nw,HiDemNoTar,h,1,0.752965772873722,,,,,,,,,,,,,,,,,,381,2023-11-16_10h00.49.531,leap3,2022.2.5,60.02065318891152,
,,,,,,,,,,,,,,,,,,,,9,0,9,0,14,0,14,0,,,,,,summon,w,g,lower,,,,,,,2,w,HiDemNoTar,g,1,0.7530128604121273,,,,,,,,,,,,,,,,,,381,2023-11-16_10h00.49.531,leap3,2022.2.5,60.02065318891152,
,,,,,,,,,,,,,,,,,,,,9,0,9,0,15,0,15,0,,,,,,trises,nw,h,lower,,,,,,,2,nw,HiDemNoTar,h,1,1.2961797634197865,,,,,,,,,,,,,,,,,,381,2023-11-16_10h00.49.531,leap3,2022.2.5,60.02065318891152,
,,,,,,,,,,,,,,,,,,,,9,0,9,0,16,0,16,0,,,,,,remade,w,g,lower,,,,,,,2,w,HiDemNoTar,g,1,0.9865927392966114,,,,,,,,,,,,,,,,,,381,2023-11-16_10h00.49.531,leap3,2022.2.5,60.02065318891152,
,,,,,,,,,,,,,,,,,,,,9,0,9,0,17,0,17,0,,,,,,plashed,nw,h,lower,,,,,,,2,nw,HiDemNoTar,h,1,0.77679840924975,,,,,,,,,,,,,,,,,,381,2023-11-16_10h00.49.531,leap3,2022.2.5,60.02065318891152,
,,,,,,,,,,,,,,,,,,,,9,0,9,0,18,0,18,0,,,,,,acroad,nw,h,lower,,,,,,,2,nw,HiDemNoTar,h,1,0.7763764324190561,,,,,,,,,,,,,,,,,,381,2023-11-16_10h00.49.531,leap3,2022.2.5,60.02065318891152,
,,,,,,,,,,,,,,,,,,,,9,0,9,0,19,0,19,0,,,,,,omners,nw,h,lower,,,,,,,2,nw,HiDemNoTar,h,1,0.7524321140372194,,,,,,,,,,,,,,,,,,381,2023-11-16_10h00.49.531,leap3,2022.2.5,60.02065318891152,
,,,,,,,,,,,,,,,,,,,,9,0,9,0,20,0,20,0,,,,,,maiden,w,g,lower,,,,,,,2,w,HiDemNoTar,g,1,0.7365403695002897,,,,,,,,,,,,,,,,,,381,2023-11-16_10h00.49.531,leap3,2022.2.5,60.02065318891152,
,,,,,,,,,,,,,,,,,,,,9,0,9,0,21,0,21,0,,,,,,mounting,w,g,lower,,,,,,,2,w,HiDemNoTar,g,1,0.7131780048948713,,,,,,,,,,,,,,,,,,381,2023-11-16_10h00.49.531,leap3,2022.2.5,60.02065318891152,
,,,,,,,,,,,,,,,,,,,,9,0,9,0,22,0,22,0,,,,,,gackpedal,nw,h,lower,,,,,,,2,nw,HiDemNoTar,h,1,0.7788074778218288,,,,,,,,,,,,,,,,,,381,2023-11-16_10h00.49.531,leap3,2022.2.5,60.02065318891152,
,,,,,,,,,,,,,,,,,,,,9,0,9,0,23,0,23,0,,,,,,parody,w,g,lower,,,,,,,2,w,HiDemNoTar,g,1,0.6343616046651732,,,,,,,,,,,,,,,,,,381,2023-11-16_10h00.49.531,leap3,2022.2.5,60.02065318891152,
,,,,,,,,,,,,,,,,,,,,9,0,9,0,24,0,24,0,,,,,,armada,w,g,lower,,,,,,,2,w,HiDemNoTar,h,0,0.7838733128592139,,,,,,,,,,,,,,,,,,381,2023-11-16_10h00.49.531,leap3,2022.2.5,60.02065318891152,
,,,,,,,,,,,,,,,,,,,,9,0,9,0,25,0,25,0,,,,,,germeated,nw,h,lower,,,,,,,2,nw,HiDemNoTar,h,1,1.5980465431057382,,,,,,,,,,,,,,,,,,381,2023-11-16_10h00.49.531,leap3,2022.2.5,60.02065318891152,
,,,,,,,,,,,,,,,,,,,,9,0,9,0,26,0,26,0,,,,,,sunshine,w,g,lower,,,,,,,2,w,HiDemNoTar,g,1,0.7486581680568634,,,,,,,,,,,,,,,,,,381,2023-11-16_10h00.49.531,leap3,2022.2.5,60.02065318891152,
,,,,,,,,,,,,,,,,,,,,9,0,9,0,27,0,27,0,,,,,,egpended,nw,h,lower,,,,,,,2,nw,HiDemNoTar,h,1,0.7333459625369869,,,,,,,,,,,,,,,,,,381,2023-11-16_10h00.49.531,leap3,2022.2.5,60.02065318891152,
,,,,,,,,,,,,,,,,,,,,9,0,9,0,28,0,28,0,,,,,,hinsome,nw,h,lower,,,,,,,2,nw,HiDemNoTar,h,1,0.7345901603548555,,,,,,,,,,,,,,,,,,381,2023-11-16_10h00.49.531,leap3,2022.2.5,60.02065318891152,
,,,,,,,,,,,,,,,,,,,,9,0,9,0,29,0,29,0,,,,,,renown,w,g,lower,,,,,,,2,w,HiDemNoTar,g,1,2.071912653904292,,,,,,,,,,,,,,,,,,381,2023-11-16_10h00.49.531,leap3,2022.2.5,60.02065318891152,
,,,,,,,,,,,,,,,,,,,,9,0,9,0,,,,,,,,,,,,,,,,,,,,,,,,,,NA,,,,,,,,,,,,,,,,,381,2023-11-16_10h00.49.531,leap3,2022.2.5,60.02065318891152,
,,,,,,,,,,,,,,,,,,,,10,0,10,0,0,0,0,0,,,,,,sullen,w,g,upper,,,,,,,3,w,LoDemNoTar,g,1,0.7947131071414333,,,,,,,,,,,,,,,,,,381,2023-11-16_10h00.49.531,leap3,2022.2.5,60.02065318891152,
,,,,,,,,,,,,,,,,,,,,10,0,10,0,1,0,1,0,,,,,,frader,nw,h,upper,,,,,,,3,nw,LoDemNoTar,h,1,0.8333722832758212,,,,,,,,,,,,,,,,,,381,2023-11-16_10h00.49.531,leap3,2022.2.5,60.02065318891152,
,,,,,,,,,,,,,,,,,,,,10,0,10,0,2,0,2,0,,,,,,efcorted,nw,h,upper,,,,,,,3,nw,LoDemNoTar,h,1,1.5187574563751696,,,,,,,,,,,,,,,,,,381,2023-11-16_10h00.49.531,leap3,2022.2.5,60.02065318891152,
,,,,,,,,,,,,,,,,,,,,10,0,10,0,3,0,3,0,,,,,,gumdrep,nw,h,upper,,,,,,,3,nw,LoDemNoTar,h,1,0.6246600612212205,,,,,,,,,,,,,,,,,,381,2023-11-16_10h00.49.531,leap3,2022.2.5,60.02065318891152,
,,,,,,,,,,,,,,,,,,,,10,0,10,0,4,0,4,0,,,,,,clypaper,nw,h,upper,,,,,,,3,nw,LoDemNoTar,h,1,0.5088388876320096,,,,,,,,,,,,,,,,,,381,2023-11-16_10h00.49.531,leap3,2022.2.5,60.02065318891152,
,,,,,,,,,,,,,,,,,,,,10,0,10,0,5,0,5,0,,,,,,grolific,nw,h,upper,,,,,,,3,nw,LoDemNoTar,h,1,0.7347688515583286,,,,,,,,,,,,,,,,,,381,2023-11-16_10h00.49.531,leap3,2022.2.5,60.02065318891152,
,,,,,,,,,,,,,,,,,,,,10,0,10,0,6,0,6,0,,,,,,caloric,w,g,upper,,,,,,,3,w,LoDemNoTar,g,1,0.7838536930357805,,,,,,,,,,,,,,,,,,381,2023-11-16_10h00.49.531,leap3,2022.2.5,60.02065318891152,
,,,,,,,,,,,,,,,,,,,,10,0,10,0,7,0,7,0,,,,,,country,w,g,upper,,,,,,,3,w,LoDemNoTar,g,1,0.7446219203120563,,,,,,,,,,,,,,,,,,381,2023-11-16_10h00.49.531,leap3,2022.2.5,60.02065318891152,
,,,,,,,,,,,,,,,,,,,,10,0,10,0,8,0,8,0,,,,,,susher,nw,h,upper,,,,,,,3,nw,LoDemNoTar,g,0,2.0160924824449467,,,,,,,,,,,,,,,,,,381,2023-11-16_10h00.49.531,leap3,2022.2.5,60.02065318891152,
,,,,,,,,,,,,,,,,,,,,10,0,10,0,9,0,9,0,,,,,,roaned,nw,h,upper,,,,,,,3,nw,LoDemNoTar,h,1,0.8860668680281378,,,,,,,,,,,,,,,,,,381,2023-11-16_10h00.49.531,leap3,2022.2.5,60.02065318891152,
,,,,,,,,,,,,,,,,,,,,10,0,10,0,10,0,10,0,,,,,,seeming,w,g,upper,,,,,,,3,w,LoDemNoTar,g,1,0.6806818639597623,,,,,,,,,,,,,,,,,,381,2023-11-16_10h00.49.531,leap3,2022.2.5,60.02065318891152,
,,,,,,,,,,,,,,,,,,,,10,0,10,0,11,0,11,0,,,,,,kickoff,w,g,upper,,,,,,,3,w,LoDemNoTar,g,1,0.7160189534333767,,,,,,,,,,,,,,,,,,381,2023-11-16_10h00.49.531,leap3,2022.2.5,60.02065318891152,
,,,,,,,,,,,,,,,,,,,,10,0,10,0,12,0,12,0,,,,,,zears,nw,h,upper,,,,,,,3,nw,LoDemNoTar,h,1,0.5979819486528868,,,,,,,,,,,,,,,,,,381,2023-11-16_10h00.49.531,leap3,2022.2.5,60.02065318891152,
,,,,,,,,,,,,,,,,,,,,10,0,10,0,13,0,13,0,,,,,,donastic,nw,h,upper,,,,,,,3,nw,LoDemNoTar,h,1,1.011816873011412,,,,,,,,,,,,,,,,,,381,2023-11-16_10h00.49.531,leap3,2022.2.5,60.02065318891152,
,,,,,,,,,,,,,,,,,,,,10,0,10,0,14,0,14,0,,,,,,fetching,w,g,upper,,,,,,,3,w,LoDemNoTar,g,1,0.8825147768220631,,,,,,,,,,,,,,,,,,381,2023-11-16_10h00.49.531,leap3,2022.2.5,60.02065318891152,
,,,,,,,,,,,,,,,,,,,,10,0,10,0,15,0,15,0,,,,,,series,w,g,upper,,,,,,,3,w,LoDemNoTar,g,1,0.6529596756445244,,,,,,,,,,,,,,,,,,381,2023-11-16_10h00.49.531,leap3,2022.2.5,60.02065318891152,
,,,,,,,,,,,,,,,,,,,,10,0,10,0,16,0,16,0,,,,,,purpose,w,g,upper,,,,,,,3,w,LoDemNoTar,g,1,0.5927808878477663,,,,,,,,,,,,,,,,,,381,2023-11-16_10h00.49.531,leap3,2022.2.5,60.02065318891152,
,,,,,,,,,,,,,,,,,,,,10,0,10,0,17,0,17,0,,,,,,amkles,nw,h,upper,,,,,,,3,nw,LoDemNoTar,h,1,0.7114722887636162,,,,,,,,,,,,,,,,,,381,2023-11-16_10h00.49.531,leap3,2022.2.5,60.02065318891152,
,,,,,,,,,,,,,,,,,,,,10,0,10,0,18,0,18,0,,,,,,withep,nw,h,upper,,,,,,,3,nw,LoDemNoTar,h,1,0.8574201338778948,,,,,,,,,,,,,,,,,,381,2023-11-16_10h00.49.531,leap3,2022.2.5,60.02065318891152,
,,,,,,,,,,,,,,,,,,,,10,0,10,0,19,0,19,0,,,,,,bother,w,g,upper,,,,,,,3,w,LoDemNoTar,g,1,0.7331316538475221,,,,,,,,,,,,,,,,,,381,2023-11-16_10h00.49.531,leap3,2022.2.5,60.02065318891152,
,,,,,,,,,,,,,,,,,,,,10,0,10,0,20,0,20,0,,,,,,praiged,nw,h,upper,,,,,,,3,nw,LoDemNoTar,h,1,0.9904493903304683,,,,,,,,,,,,,,,,,,381,2023-11-16_10h00.49.531,leap3,2022.2.5,60.02065318891152,
,,,,,,,,,,,,,,,,,,,,10,0,10,0,21,0,21,0,,,,,,digar,nw,h,upper,,,,,,,3,nw,LoDemNoTar,h,1,1.4291251074755564,,,,,,,,,,,,,,,,,,381,2023-11-16_10h00.49.531,leap3,2022.2.5,60.02065318891152,
,,,,,,,,,,,,,,,,,,,,10,0,10,0,22,0,22,0,,,,,,edasion,nw,h,upper,,,,,,,3,nw,LoDemNoTar,h,1,0.7141716728219762,,,,,,,,,,,,,,,,,,381,2023-11-16_10h00.49.531,leap3,2022.2.5,60.02065318891152,
,,,,,,,,,,,,,,,,,,,,10,0,10,0,23,0,23,0,,,,,,implode,w,g,upper,,,,,,,3,w,LoDemNoTar,g,1,0.860151513305027,,,,,,,,,,,,,,,,,,381,2023-11-16_10h00.49.531,leap3,2022.2.5,60.02065318891152,
,,,,,,,,,,,,,,,,,,,,10,0,10,0,24,0,24,0,,,,,,latirizes,nw,h,upper,,,,,,,3,nw,LoDemNoTar,h,1,0.7750691493420163,,,,,,,,,,,,,,,,,,381,2023-11-16_10h00.49.531,leap3,2022.2.5,60.02065318891152,
,,,,,,,,,,,,,,,,,,,,10,0,10,0,25,0,25,0,,,,,,primal,w,g,upper,,,,,,,3,w,LoDemNoTar,g,1,0.7812928550411016,,,,,,,,,,,,,,,,,,381,2023-11-16_10h00.49.531,leap3,2022.2.5,60.02065318891152,
,,,,,,,,,,,,,,,,,,,,10,0,10,0,26,0,26,0,,,,,,probable,w,g,upper,,,,,,,3,w,LoDemNoTar,g,1,0.8928191012091702,,,,,,,,,,,,,,,,,,381,2023-11-16_10h00.49.531,leap3,2022.2.5,60.02065318891152,
,,,,,,,,,,,,,,,,,,,,10,0,10,0,27,0,27,0,,,,,,module,w,g,upper,,,,,,,3,w,LoDemNoTar,g,1,0.9282189740770264,,,,,,,,,,,,,,,,,,381,2023-11-16_10h00.49.531,leap3,2022.2.5,60.02065318891152,
,,,,,,,,,,,,,,,,,,,,10,0,10,0,28,0,28,0,,,,,,reconcile,w,g,upper,,,,,,,3,w,LoDemNoTar,g,1,0.8416998363099992,,,,,,,,,,,,,,,,,,381,2023-11-16_10h00.49.531,leap3,2022.2.5,60.02065318891152,
,,,,,,,,,,,,,,,,,,,,10,0,10,0,29,0,29,0,,,,,,reason,w,g,upper,,,,,,,3,w,LoDemNoTar,g,1,0.694276883310522,,,,,,,,,,,,,,,,,,381,2023-11-16_10h00.49.531,leap3,2022.2.5,60.02065318891152,
,,,,,,,,,,,,,,,,,,,,10,0,10,0,,,,,,,,,,,,,,,,,,,,,,,,,,NA,,,,,,,,,,,,,,,,,381,2023-11-16_10h00.49.531,leap3,2022.2.5,60.02065318891152,
,,,,,,,,,,,,,,,,,,,,11,0,11,0,0,0,0,0,,,,,,ludictous,nw,h,lower,,,,,,,1,nw,HiDemTar,h,1,1.464484533338691,,,,,,,,,,,,,,,,,,381,2023-11-16_10h00.49.531,leap3,2022.2.5,60.02065318891152,
,,,,,,,,,,,,,,,,,,,,11,0,11,0,1,0,1,0,,,,,,hangar,w,g,lower,,,,,,,1,w,HiDemTar,h,0,0.7404416933277389,,,,,,,,,,,,,,,,,,381,2023-11-16_10h00.49.531,leap3,2022.2.5,60.02065318891152,
,,,,,,,,,,,,,,,,,,,,11,0,11,0,2,0,2,0,,,,,,stelled,nw,h,lower,,,,,,,1,nw,HiDemTar,h,1,1.0927482887927908,,,,,,,,,,,,,,,,,,381,2023-11-16_10h00.49.531,leap3,2022.2.5,60.02065318891152,
,,,,,,,,,,,,,,,,,,,,11,0,11,0,3,0,3,0,,,,,,abraid,nw,h,lower,,,,,,,1,nw,HiDemTar,h,1,0.7670844902313547,,,,,,,,,,,,,,,,,,381,2023-11-16_10h00.49.531,leap3,2022.2.5,60.02065318891152,
,,,,,,,,,,,,,,,,,,,,11,0,11,0,4,0,4,0,,,,,,slooping,nw,h,lower,,,,,,,1,nw,HiDemTar,h,1,1.3591276610532077,,,,,,,,,,,,,,,,,,381,2023-11-16_10h00.49.531,leap3,2022.2.5,60.02065318891152,
,,,,,,,,,,,,,,,,,,,,11,0,11,0,5,0,5,0,,,,,,ethical,w,g,lower,,,,,,,1,w,HiDemTar,g,1,0.9341015968966531,,,,,,,,,,,,,,,,,,381,2023-11-16_10h00.49.531,leap3,2022.2.5,60.02065318891152,
,,,,,,,,,,,,,,,,,,,,11,0,11,0,6,0,6,0,,,,,,alomalous,nw,h,lower,,,,,,,1,nw,HiDemTar,h,1,1.0153870748035843,,,,,,,,,,,,,,,,,,381,2023-11-16_10h00.49.531,leap3,2022.2.5,60.02065318891152,
,,,,,,,,,,,,,,,,,,,,11,0,11,0,7,0,7,0,,,,,,volition,w,g,lower,,,,,,,1,w,HiDemTar,g,1,0.5812758310639765,,,,,,,,,,,,,,,,,,381,2023-11-16_10h00.49.531,leap3,2022.2.5,60.02065318891152,
,,,,,,,,,,,,,,,,,,,,11,0,11,0,8,0,8,0,,,,,,clattest,nw,h,lower,,,,,,,1,nw,HiDemTar,h,1,0.7966120029450394,,,,,,,,,,,,,,,,,,381,2023-11-16_10h00.49.531,leap3,2022.2.5,60.02065318891152,
,,,,,,,,,,,,,,,,,,,,11,0,11,0,9,0,9,0,,,,,,contain,w,g,lower,,,,,,,1,w,HiDemTar,g,1,0.9712437089183368,,,,,,,,,,,,,,,,,,381,2023-11-16_10h00.49.531,leap3,2022.2.5,60.02065318891152,
,,,,,,,,,,,,,,,,,,,,11,0,11,0,10,0,10,0,,,,,,burrowing,w,g,lower,,,,,,,1,w,HiDemTar,g,1,0.8105601788847707,,,,,,,,,,,,,,,,,,381,2023-11-16_10h00.49.531,leap3,2022.2.5,60.02065318891152,
,,,,,,,,,,,,,,,,,,,,11,0,11,0,11,0,11,0,,,,,,rainfall,w,g,lower,,,,,,,1,w,HiDemTar,g,1,0.687415382853942,,,,,,,,,,,,,,,,,,381,2023-11-16_10h00.49.531,leap3,2022.2.5,60.02065318891152,
,,,,,,,,,,,,,,,,,,,,11,0,11,0,12,0,12,0,,,,,,treason,w,g,lower,,,,,,,1,w,HiDemTar,g,1,0.5939037446805742,,,,,,,,,,,,,,,,,,381,2023-11-16_10h00.49.531,leap3,2022.2.5,60.02065318891152,
,,,,,,,,,,,,,,,,,,,,11,0,11,0,13,0,13,0,,,,,,attended,w,g,lower,,,,,,,1,w,HiDemTar,g,1,0.5842396298103267,,,,,,,,,,,,,,,,,,381,2023-11-16_10h00.49.531,leap3,2022.2.5,60.02065318891152,
,,,,,,,,,,,,,,,,,,,,11,0,11,0,14,0,14,0,,,,,,abhorrent,w,g,lower,,,,,,,1,w,HiDemTar,g,1,1.0241516968380893,,,,,,,,,,,,,,,,,,381,2023-11-16_10h00.49.531,leap3,2022.2.5,60.02065318891152,
,,,,,,,,,,,,,,,,,,,,11,0,11,0,15,0,15,0,,,,,,delegate,w,g,lower,,,,,,,1,w,HiDemTar,g,1,0.7733380783902248,,,,,,,,,,,,,,,,,,381,2023-11-16_10h00.49.531,leap3,2022.2.5,60.02065318891152,
,,,,,,,,,,,,,,,,,,,,11,0,11,0,16,0,16,0,,,,,,ufionize,nw,h,lower,,,,,,,1,nw,HiDemTar,h,1,0.8926654630049597,,,,,,,,,,,,,,,,,,381,2023-11-16_10h00.49.531,leap3,2022.2.5,60.02065318891152,
,,,,,,,,,,,,,,,,,,,,11,0,11,0,17,0,17,0,,,,,,dests,nw,h,lower,,,,,,,1,nw,HiDemTar,h,1,1.2152021656220313,,,,,,,,,,,,,,,,,,381,2023-11-16_10h00.49.531,leap3,2022.2.5,60.02065318891152,
,,,,,,,,,,,,,,,,,,,,11,0,11,0,18,0,18,0,,,,,,nollow,nw,h,lower,,,,,,,1,nw,HiDemTar,h,1,0.7572320251638303,,,,,,,,,,,,,,,,,,381,2023-11-16_10h00.49.531,leap3,2022.2.5,60.02065318891152,
,,,,,,,,,,,,,,,,,,,,11,0,11,0,19,0,19,0,,,,,,graveyard,w,g,lower,,,,,,,1,w,HiDemTar,g,1,0.6452394311927492,,,,,,,,,,,,,,,,,,381,2023-11-16_10h00.49.531,leap3,2022.2.5,60.02065318891152,
,,,,,,,,,,,,,,,,,,,,11,0,11,0,20,0,20,0,,,,,,shazer,nw,h,lower,,,,,,,1,nw,HiDemTar,h,1,0.7298663137189578,,,,,,,,,,,,,,,,,,381,2023-11-16_10h00.49.531,leap3,2022.2.5,60.02065318891152,
,,,,,,,,,,,,,,,,,,,,11,0,11,0,21,0,21,0,,,,,,pressures,w,g,lower,,,,,,,1,w,HiDemTar,g,1,0.611138691630913,,,,,,,,,,,,,,,,,,381,2023-11-16_10h00.49.531,leap3,2022.2.5,60.02065318891152,
,,,,,,,,,,,,,,,,,,,,11,0,11,0,22,0,22,0,,,,,,eugenifs,nw,h,lower,,,,,,,1,nw,HiDemTar,h,1,0.9281308358476963,,,,,,,,,,,,,,,,,,381,2023-11-16_10h00.49.531,leap3,2022.2.5,60.02065318891152,
,,,,,,,,,,,,,,,,,,,,11,0,11,0,23,0,23,0,,,,,,cripet,nw,h,lower,,,,,,,1,nw,HiDemTar,h,1,0.9613936585956253,,,,,,,,,,,,,,,,,,381,2023-11-16_10h00.49.531,leap3,2022.2.5,60.02065318891152,
,,,,,,,,,,,,,,,,,,,,11,0,11,0,24,0,24,0,,,,,,budget,w,g,lower,,,,,,,1,w,HiDemTar,g,1,0.7373399522330146,,,,,,,,,,,,,,,,,,381,2023-11-16_10h00.49.531,leap3,2022.2.5,60.02065318891152,
,,,,,,,,,,,,,,,,,,,,11,0,11,0,25,0,25,0,,,,,,migmarole,nw,h,lower,,,,,,,1,nw,HiDemTar,h,1,0.9859959952154895,,,,,,,,,,,,,,,,,,381,2023-11-16_10h00.49.531,leap3,2022.2.5,60.02065318891152,
,,,,,,,,,,,,,,,,,,,,11,0,11,0,26,0,26,0,,,,,,squirrel,target,q,lower,,,,,,,1,target,HiDemTar,q,1,0.9767194470623508,,1,,,,,,,,,,,,,,,,381,2023-11-16_10h00.49.531,leap3,2022.2.5,60.02065318891152,
,,,,,,,,,,,,,,,,,,,,11,0,11,0,27,0,27,0,,,,,,dredigest,nw,h,lower,,,,,,,1,aftertar1,HiDemTar,h,1,0.9279699534090469,,,,,,,,,,,,,,,,,,381,2023-11-16_10h00.49.531,leap3,2022.2.5,60.02065318891152,
,,,,,,,,,,,,,,,,,,,,11,0,11,0,28,0,28,0,,,,,,lifetime,w,g,lower,,,,,,,1,aftertar2,HiDemTar,g,1,0.977225336318952,,,,,,,,,,,,,,,,,,381,2023-11-16_10h00.49.531,leap3,2022.2.5,60.02065318891152,
,,,,,,,,,,,,,,,,,,,,11,0,11,0,29,0,29,0,,,,,,begut,nw,h,lower,,,,,,,1,aftertar3,HiDemTar,h,1,0.7037976226420142,,,,,,,,,,,,,,,,,,381,2023-11-16_10h00.49.531,leap3,2022.2.5,60.02065318891152,
,,,,,,,,,,,,,,,,,,,,11,0,11,0,,,,,,,,,,,,,,,,,,,,,,,,,,1,,,,,,,,,,,,,,,,,381,2023-11-16_10h00.49.531,leap3,2022.2.5,60.02065318891152,
,,,,,,,,,,,,,,,,,,,,12,0,12,0,0,0,0,0,,,,,,subber,nw,h,upper,,,,,,,4,nw,LoDemTar,h,1,0.8649182216904592,,,,,,,,,,,,,,,,,,381,2023-11-16_10h00.49.531,leap3,2022.2.5,60.02065318891152,
,,,,,,,,,,,,,,,,,,,,12,0,12,0,1,0,1,0,,,,,,razelle,nw,h,upper,,,,,,,4,nw,LoDemTar,h,1,0.6456674449000275,,,,,,,,,,,,,,,,,,381,2023-11-16_10h00.49.531,leap3,2022.2.5,60.02065318891152,
,,,,,,,,,,,,,,,,,,,,12,0,12,0,2,0,2,0,,,,,,mystery,w,g,upper,,,,,,,4,w,LoDemTar,g,1,0.6428929018875351,,,,,,,,,,,,,,,,,,381,2023-11-16_10h00.49.531,leap3,2022.2.5,60.02065318891152,
,,,,,,,,,,,,,,,,,,,,12,0,12,0,3,0,3,0,,,,,,expired,w,g,upper,,,,,,,4,w,LoDemTar,g,1,0.6153306904743658,,,,,,,,,,,,,,,,,,381,2023-11-16_10h00.49.531,leap3,2022.2.5,60.02065318891152,
,,,,,,,,,,,,,,,,,,,,12,0,12,0,4,0,4,0,,,,,,sprea,nw,h,upper,,,,,,,4,nw,LoDemTar,h,1,0.621335559815634,,,,,,,,,,,,,,,,,,381,2023-11-16_10h00.49.531,leap3,2022.2.5,60.02065318891152,
,,,,,,,,,,,,,,,,,,,,12,0,12,0,5,0,5,0,,,,,,even,w,g,upper,,,,,,,4,w,LoDemTar,g,1,0.642634825911955,,,,,,,,,,,,,,,,,,381,2023-11-16_10h00.49.531,leap3,2022.2.5,60.02065318891152,
,,,,,,,,,,,,,,,,,,,,12,0,12,0,6,0,6,0,,,,,,marvel,w,g,upper,,,,,,,4,w,LoDemTar,g,1,0.7902497512259288,,,,,,,,,,,,,,,,,,381,2023-11-16_10h00.49.531,leap3,2022.2.5,60.02065318891152,
,,,,,,,,,,,,,,,,,,,,12,0,12,0,7,0,7,0,,,,,,graiking,nw,h,upper,,,,,,,4,nw,LoDemTar,h,1,0.7328971216484206,,,,,,,,,,,,,,,,,,381,2023-11-16_10h00.49.531,leap3,2022.2.5,60.02065318891152,
,,,,,,,,,,,,,,,,,,,,12,0,12,0,8,0,8,0,,,,,,mennel,nw,h,upper,,,,,,,4,nw,LoDemTar,h,1,0.8541526808403432,,,,,,,,,,,,,,,,,,381,2023-11-16_10h00.49.531,leap3,2022.2.5,60.02065318891152,
,,,,,,,,,,,,,,,,,,,,12,0,12,0,9,0,9,0,,,,,,blocking,w,g,upper,,,,,,,4,w,LoDemTar,g,1,0.9541962066432461,,,,,,,,,,,,,,,,,,381,2023-11-16_10h00.49.531,leap3,2022.2.5,60.02065318891152,
,,,,,,,,,,,,,,,,,,,,12,0,12,0,10,0,10,0,,,,,,dazid,nw,h,upper,,,,,,,4,nw,LoDemTar,h,1,0.5941180533991428,,,,,,,,,,,,,,,,,,381,2023-11-16_10h00.49.531,leap3,2022.2.5,60.02065318891152,
,,,,,,,,,,,,,,,,,,,,12,0,12,0,11,0,11,0,,,,,,rabbit,target,q,upper,,,,,,,4,target,LoDemTar,q,1,1.1527399337646784,,1,,,,,,,,,,,,,,,,381,2023-11-16_10h00.49.531,leap3,2022.2.5,60.02065318891152,
,,,,,,,,,,,,,,,,,,,,12,0,12,0,12,0,12,0,,,,,,fuintets,nw,h,upper,,,,,,,4,aftertar1,LoDemTar,h,1,1.1838850243657362,,,,,,,,,,,,,,,,,,381,2023-11-16_10h00.49.531,leap3,2022.2.5,60.02065318891152,
,,,,,,,,,,,,,,,,,,,,12,0,12,0,13,0,13,0,,,,,,thaken,nw,h,upper,,,,,,,4,aftertar2,LoDemTar,h,1,1.094771543997922,,,,,,,,,,,,,,,,,,381,2023-11-16_10h00.49.531,leap3,2022.2.5,60.02065318891152,
,,,,,,,,,,,,,,,,,,,,12,0,12,0,14,0,14,0,,,,,,aviation,w,g,upper,,,,,,,4,aftertar3,LoDemTar,g,1,1.521384398045484,,,,,,,,,,,,,,,,,,381,2023-11-16_10h00.49.531,leap3,2022.2.5,60.02065318891152,
,,,,,,,,,,,,,,,,,,,,12,0,12,0,15,0,15,0,,,,,,retain,w,g,upper,,,,,,,4,w,LoDemTar,g,1,0.8746472328784876,,,,,,,,,,,,,,,,,,381,2023-11-16_10h00.49.531,leap3,2022.2.5,60.02065318891152,
,,,,,,,,,,,,,,,,,,,,12,0,12,0,16,0,16,0,,,,,,natch,nw,h,upper,,,,,,,4,w,LoDemTar,h,1,0.9179738109523896,,,,,,,,,,,,,,,,,,381,2023-11-16_10h00.49.531,leap3,2022.2.5,60.02065318891152,
,,,,,,,,,,,,,,,,,,,,12,0,12,0,17,0,17,0,,,,,,official,w,g,upper,,,,,,,4,nw,LoDemTar,g,1,1.4316207473311806,,,,,,,,,,,,,,,,,,381,2023-11-16_10h00.49.531,leap3,2022.2.5,60.02065318891152,
,,,,,,,,,,,,,,,,,,,,12,0,12,0,18,0,18,0,,,,,,except,w,g,upper,,,,,,,4,w,LoDemTar,g,1,0.6528446733573219,,,,,,,,,,,,,,,,,,381,2023-11-16_10h00.49.531,leap3,2022.2.5,60.02065318891152,
,,,,,,,,,,,,,,,,,,,,12,0,12,0,19,0,19,0,,,,,,unversed,w,g,upper,,,,,,,4,w,LoDemTar,g,1,1.2889189243869623,,,,,,,,,,,,,,,,,,381,2023-11-16_10h00.49.531,leap3,2022.2.5,60.02065318891152,
,,,,,,,,,,,,,,,,,,,,12,0,12,0,20,0,20,0,,,,,,grested,nw,h,upper,,,,,,,4,w,LoDemTar,h,1,1.0104377512616338,,,,,,,,,,,,,,,,,,381,2023-11-16_10h00.49.531,leap3,2022.2.5,60.02065318891152,
,,,,,,,,,,,,,,,,,,,,12,0,12,0,21,0,21,0,,,,,,vented,w,g,upper,,,,,,,4,nw,LoDemTar,g,1,0.9998463739611907,,,,,,,,,,,,,,,,,,381,2023-11-16_10h00.49.531,leap3,2022.2.5,60.02065318891152,
,,,,,,,,,,,,,,,,,,,,12,0,12,0,22,0,22,0,,,,,,schides,nw,h,upper,,,,,,,4,w,LoDemTar,h,1,0.7112712611706229,,,,,,,,,,,,,,,,,,381,2023-11-16_10h00.49.531,leap3,2022.2.5,60.02065318891152,
,,,,,,,,,,,,,,,,,,,,12,0,12,0,23,0,23,0,,,,,,bellicove,nw,h,upper,,,,,,,4,nw,LoDemTar,h,1,0.8172864535445115,,,,,,,,,,,,,,,,,,381,2023-11-16_10h00.49.531,leap3,2022.2.5,60.02065318891152,
,,,,,,,,,,,,,,,,,,,,12,0,12,0,24,0,24,0,,,,,,lavilion,nw,h,upper,,,,,,,4,nw,LoDemTar,h,1,0.8544327913696179,,,,,,,,,,,,,,,,,,381,2023-11-16_10h00.49.531,leap3,2022.2.5,60.02065318891152,
,,,,,,,,,,,,,,,,,,,,12,0,12,0,25,0,25,0,,,,,,rawhide,w,g,upper,,,,,,,4,nw,LoDemTar,h,0,0.61839560669614,,,,,,,,,,,,,,,,,,381,2023-11-16_10h00.49.531,leap3,2022.2.5,60.02065318891152,
,,,,,,,,,,,,,,,,,,,,12,0,12,0,26,0,26,0,,,,,,togglo,nw,h,upper,,,,,,,4,w,LoDemTar,h,1,0.6316742943308782,,,,,,,,,,,,,,,,,,381,2023-11-16_10h00.49.531,leap3,2022.2.5,60.02065318891152,
,,,,,,,,,,,,,,,,,,,,12,0,12,0,27,0,27,0,,,,,,emission,w,g,upper,,,,,,,4,nw,LoDemTar,g,1,0.9170193826575996,,,,,,,,,,,,,,,,,,381,2023-11-16_10h00.49.531,leap3,2022.2.5,60.02065318891152,
,,,,,,,,,,,,,,,,,,,,12,0,12,0,28,0,28,0,,,,,,twarfs,nw,h,upper,,,,,,,4,w,LoDemTar,h,1,0.9180782487237593,,,,,,,,,,,,,,,,,,381,2023-11-16_10h00.49.531,leap3,2022.2.5,60.02065318891152,
,,,,,,,,,,,,,,,,,,,,12,0,12,0,29,0,29,0,,,,,,curricula,w,g,upper,,,,,,,4,nw,LoDemTar,g,1,0.9593281453271629,,,,,,,,,,,,,,,,,,381,2023-11-16_10h00.49.531,leap3,2022.2.5,60.02065318891152,
,,,,,,,,,,,,,,,,,,,,12,0,12,0,,,,,,,,,,,,,,,,,,,,,,,,,,1,,,,,,,,,,,,,,,,,381,2023-11-16_10h00.49.531,leap3,2022.2.5,60.02065318891152,
,,,,,,,,,,,,,,,,,,,,13,0,13,0,0,0,0,0,,,,,,redefloy,nw,h,lower,,,,,,,1,nw,HiDemTar,h,1,0.8077907671831781,,,,,,,,,,,,,,,,,,381,2023-11-16_10h00.49.531,leap3,2022.2.5,60.02065318891152,
,,,,,,,,,,,,,,,,,,,,13,0,13,0,1,0,1,0,,,,,,mogus,nw,h,lower,,,,,,,1,nw,HiDemTar,h,1,0.7497221654630266,,,,,,,,,,,,,,,,,,381,2023-11-16_10h00.49.531,leap3,2022.2.5,60.02065318891152,
,,,,,,,,,,,,,,,,,,,,13,0,13,0,2,0,2,0,,,,,,medium,w,g,lower,,,,,,,1,w,HiDemTar,g,1,0.6944127127499087,,,,,,,,,,,,,,,,,,381,2023-11-16_10h00.49.531,leap3,2022.2.5,60.02065318891152,
,,,,,,,,,,,,,,,,,,,,13,0,13,0,3,0,3,0,,,,,,rocket,w,g,lower,,,,,,,1,w,HiDemTar,g,1,0.8090977483952884,,,,,,,,,,,,,,,,,,381,2023-11-16_10h00.49.531,leap3,2022.2.5,60.02065318891152,
,,,,,,,,,,,,,,,,,,,,13,0,13,0,4,0,4,0,,,,,,uncarled,nw,h,lower,,,,,,,1,nw,HiDemTar,h,1,0.7980104426533217,,,,,,,,,,,,,,,,,,381,2023-11-16_10h00.49.531,leap3,2022.2.5,60.02065318891152,
,,,,,,,,,,,,,,,,,,,,13,0,13,0,5,0,5,0,,,,,,pegend,nw,h,lower,,,,,,,1,nw,HiDemTar,h,1,1.0206744627648732,,,,,,,,,,,,,,,,,,381,2023-11-16_10h00.49.531,leap3,2022.2.5,60.02065318891152,
,,,,,,,,,,,,,,,,,,,,13,0,13,0,6,0,6,0,,,,,,listless,w,g,lower,,,,,,,1,w,HiDemTar,g,1,2.4020461470790906,,,,,,,,,,,,,,,,,,381,2023-11-16_10h00.49.531,leap3,2022.2.5,60.02065318891152,
,,,,,,,,,,,,,,,,,,,,13,0,13,0,7,0,7,0,,,,,,living,w,g,lower,,,,,,,1,w,HiDemTar,g,1,1.3908064105198719,,,,,,,,,,,,,,,,,,381,2023-11-16_10h00.49.531,leap3,2022.2.5,60.02065318891152,
,,,,,,,,,,,,,,,,,,,,13,0,13,0,8,0,8,0,,,,,,favoting,nw,h,lower,,,,,,,1,nw,HiDemTar,h,1,0.9496776134037646,,,,,,,,,,,,,,,,,,381,2023-11-16_10h00.49.531,leap3,2022.2.5,60.02065318891152,
,,,,,,,,,,,,,,,,,,,,13,0,13,0,9,0,9,0,,,,,,companion,w,g,lower,,,,,,,1,w,HiDemTar,g,1,0.9512384447734803,,,,,,,,,,,,,,,,,,381,2023-11-16_10h00.49.531,leap3,2022.2.5,60.02065318891152,
,,,,,,,,,,,,,,,,,,,,13,0,13,0,10,0,10,0,,,,,,teamwork,w,g,lower,,,,,,,1,w,HiDemTar,g,1,0.8791893698798958,,,,,,,,,,,,,,,,,,381,2023-11-16_10h00.49.531,leap3,2022.2.5,60.02065318891152,
,,,,,,,,,,,,,,,,,,,,13,0,13,0,11,0,11,0,,,,,,strenuous,w,g,lower,,,,,,,1,w,HiDemTar,g,1,0.7934607595670968,,,,,,,,,,,,,,,,,,381,2023-11-16_10h00.49.531,leap3,2022.2.5,60.02065318891152,
,,,,,,,,,,,,,,,,,,,,13,0,13,0,12,0,12,0,,,,,,frunted,nw,h,lower,,,,,,,1,nw,HiDemTar,h,1,1.4720991326466901,,,,,,,,,,,,,,,,,,381,2023-11-16_10h00.49.531,leap3,2022.2.5,60.02065318891152,
,,,,,,,,,,,,,,,,,,,,13,0,13,0,13,0,13,0,,,,,,apticle,nw,h,lower,,,,,,,1,nw,HiDemTar,h,1,0.7794872288068291,,,,,,,,,,,,,,,,,,381,2023-11-16_10h00.49.531,leap3,2022.2.5,60.02065318891152,
,,,,,,,,,,,,,,,,,,,,13,0,13,0,14,0,14,0,,,,,,euphoric,w,g,lower,,,,,,,1,w,HiDemTar,g,1,0.946730114199454,,,,,,,,,,,,,,,,,,381,2023-11-16_10h00.49.531,leap3,2022.2.5,60.02065318891152,
,,,,,,,,,,,,,,,,,,,,13,0,13,0,15,0,15,0,,,,,,beartiset,nw,h,lower,,,,,,,1,nw,HiDemTar,h,1,1.3794628398609348,,,,,,,,,,,,,,,,,,381,2023-11-16_10h00.49.531,leap3,2022.2.5,60.02065318891152,
,,,,,,,,,,,,,,,,,,,,13,0,13,0,16,0,16,0,,,,,,hemoter,nw,h,lower,,,,,,,1,nw,HiDemTar,h,1,0.8346152737212833,,,,,,,,,,,,,,,,,,381,2023-11-16_10h00.49.531,leap3,2022.2.5,60.02065318891152,
,,,,,,,,,,,,,,,,,,,,13,0,13,0,17,0,17,0,,,,,,demise,w,g,lower,,,,,,,1,w,HiDemTar,g,1,0.7192876138287829,,,,,,,,,,,,,,,,,,381,2023-11-16_10h00.49.531,leap3,2022.2.5,60.02065318891152,
,,,,,,,,,,,,,,,,,,,,13,0,13,0,18,0,18,0,,,,,,dolphin,target,q,lower,,,,,,,1,target,HiDemTar,q,1,0.7365808164904593,,1,,,,,,,,,,,,,,,,381,2023-11-16_10h00.49.531,leap3,2022.2.5,60.02065318891152,
,,,,,,,,,,,,,,,,,,,,13,0,13,0,19,0,19,0,,,,,,moisture,w,g,lower,,,,,,,1,aftertar1,HiDemTar,g,1,0.7362566368683474,,,,,,,,,,,,,,,,,,381,2023-11-16_10h00.49.531,leap3,2022.2.5,60.02065318891152,
,,,,,,,,,,,,,,,,,,,,13,0,13,0,20,0,20,0,,,,,,unlined,w,g,lower,,,,,,,1,aftertar2,HiDemTar,g,1,1.224895559309516,,,,,,,,,,,,,,,,,,381,2023-11-16_10h00.49.531,leap3,2022.2.5,60.02065318891152,
,,,,,,,,,,,,,,,,,,,,13,0,13,0,21,0,21,0,,,,,,unwose,nw,h,lower,,,,,,,1,aftertar3,HiDemTar,h,1,1.4061400468926877,,,,,,,,,,,,,,,,,,381,2023-11-16_10h00.49.531,leap3,2022.2.5,60.02065318891152,
,,,,,,,,,,,,,,,,,,,,13,0,13,0,22,0,22,0,,,,,,obviously,w,g,lower,,,,,,,1,nw,HiDemTar,g,1,1.0921201529999962,,,,,,,,,,,,,,,,,,381,2023-11-16_10h00.49.531,leap3,2022.2.5,60.02065318891152,
,,,,,,,,,,,,,,,,,,,,13,0,13,0,23,0,23,0,,,,,,ifkling,nw,h,lower,,,,,,,1,w,HiDemTar,h,1,0.7027716574957594,,,,,,,,,,,,,,,,,,381,2023-11-16_10h00.49.531,leap3,2022.2.5,60.02065318891152,
,,,,,,,,,,,,,,,,,,,,13,0,13,0,24,0,24,0,,,,,,dialogues,w,g,lower,,,,,,,1,nw,HiDemTar,g,1,0.7047662375844084,,,,,,,,,,,,,,,,,,381,2023-11-16_10h00.49.531,leap3,2022.2.5,60.02065318891152,
,,,,,,,,,,,,,,,,,,,,13,0,13,0,25,0,25,0,,,,,,issue,w,g,lower,,,,,,,1,w,HiDemTar,g,1,0.5778493066609371,,,,,,,,,,,,,,,,,,381,2023-11-16_10h00.49.531,leap3,2022.2.5,60.02065318891152,
,,,,,,,,,,,,,,,,,,,,13,0,13,0,26,0,26,0,,,,,,misobeyed,nw,h,lower,,,,,,,1,w,HiDemTar,g,0,0.698095803920296,,,,,,,,,,,,,,,,,,381,2023-11-16_10h00.49.531,leap3,2022.2.5,60.02065318891152,
,,,,,,,,,,,,,,,,,,,,13,0,13,0,27,0,27,0,,,,,,marinate,w,g,lower,,,,,,,1,nw,HiDemTar,g,1,0.7545540719729615,,,,,,,,,,,,,,,,,,381,2023-11-16_10h00.49.531,leap3,2022.2.5,60.02065318891152,
,,,,,,,,,,,,,,,,,,,,13,0,13,0,28,0,28,0,,,,,,elormity,nw,h,lower,,,,,,,1,w,HiDemTar,h,1,0.9065079938009148,,,,,,,,,,,,,,,,,,381,2023-11-16_10h00.49.531,leap3,2022.2.5,60.02065318891152,
,,,,,,,,,,,,,,,,,,,,13,0,13,0,29,0,29,0,,,,,,roodies,nw,h,lower,,,,,,,1,nw,HiDemTar,h,1,1.0771767999249278,,,,,,,,,,,,,,,,,,381,2023-11-16_10h00.49.531,leap3,2022.2.5,60.02065318891152,
,,,,,,,,,,,,,,,,,,,,13,0,13,0,,,,,,,,,,,,,,,,,,,,,,,,,,1,,,,,,,,,,,,,,,,,381,2023-11-16_10h00.49.531,leap3,2022.2.5,60.02065318891152,
,,,,,,,,,,,,,,,,,,,,14,0,14,0,0,0,0,0,,,,,,turntable,w,g,upper,,,,,,,3,w,LoDemNoTar,g,1,1.2414691676967777,,,,,,,,,,,,,,,,,,381,2023-11-16_10h00.49.531,leap3,2022.2.5,60.02065318891152,
,,,,,,,,,,,,,,,,,,,,14,0,14,0,1,0,1,0,,,,,,oginous,nw,h,upper,,,,,,,3,nw,LoDemNoTar,h,1,0.7171176628035028,,,,,,,,,,,,,,,,,,381,2023-11-16_10h00.49.531,leap3,2022.2.5,60.02065318891152,
,,,,,,,,,,,,,,,,,,,,14,0,14,0,2,0,2,0,,,,,,virulent,w,g,upper,,,,,,,3,w,LoDemNoTar,g,1,1.1591148628940573,,,,,,,,,,,,,,,,,,381,2023-11-16_10h00.49.531,leap3,2022.2.5,60.02065318891152,
,,,,,,,,,,,,,,,,,,,,14,0,14,0,3,0,3,0,,,,,,dorte,nw,h,upper,,,,,,,3,nw,LoDemNoTar,h,1,0.7350230035517598,,,,,,,,,,,,,,,,,,381,2023-11-16_10h00.49.531,leap3,2022.2.5,60.02065318891152,
,,,,,,,,,,,,,,,,,,,,14,0,14,0,4,0,4,0,,,,,,typical,w,g,upper,,,,,,,3,w,LoDemNoTar,g,1,0.6556418546388159,,,,,,,,,,,,,,,,,,381,2023-11-16_10h00.49.531,leap3,2022.2.5,60.02065318891152,
,,,,,,,,,,,,,,,,,,,,14,0,14,0,5,0,5,0,,,,,,fravity,nw,h,upper,,,,,,,3,nw,LoDemNoTar,h,1,0.7076044695422752,,,,,,,,,,,,,,,,,,381,2023-11-16_10h00.49.531,leap3,2022.2.5,60.02065318891152,
,,,,,,,,,,,,,,,,,,,,14,0,14,0,6,0,6,0,,,,,,absent,w,g,upper,,,,,,,3,w,LoDemNoTar,g,1,0.7416143542941427,,,,,,,,,,,,,,,,,,381,2023-11-16_10h00.49.531,leap3,2022.2.5,60.02065318891152,
,,,,,,,,,,,,,,,,,,,,14,0,14,0,7,0,7,0,,,,,,anonymous,w,g,upper,,,,,,,3,w,LoDemNoTar,g,1,0.7102923835482216,,,,,,,,,,,,,,,,,,381,2023-11-16_10h00.49.531,leap3,2022.2.5,60.02065318891152,
,,,,,,,,,,,,,,,,,,,,14,0,14,0,8,0,8,0,,,,,,shillac,nw,h,upper,,,,,,,3,nw,LoDemNoTar,h,1,0.6882143619150156,,,,,,,,,,,,,,,,,,381,2023-11-16_10h00.49.531,leap3,2022.2.5,60.02065318891152,
,,,,,,,,,,,,,,,,,,,,14,0,14,0,9,0,9,0,,,,,,aqueduct,w,g,upper,,,,,,,3,w,LoDemNoTar,h,0,0.8739379012695281,,,,,,,,,,,,,,,,,,381,2023-11-16_10h00.49.531,leap3,2022.2.5,60.02065318891152,
,,,,,,,,,,,,,,,,,,,,14,0,14,0,10,0,10,0,,,,,,incidonts,nw,h,upper,,,,,,,3,nw,LoDemNoTar,h,1,0.7171774277521763,,,,,,,,,,,,,,,,,,381,2023-11-16_10h00.49.531,leap3,2022.2.5,60.02065318891152,
,,,,,,,,,,,,,,,,,,,,14,0,14,0,11,0,11,0,,,,,,suddenly,w,g,upper,,,,,,,3,w,LoDemNoTar,g,1,0.7905057142779697,,,,,,,,,,,,,,,,,,381,2023-11-16_10h00.49.531,leap3,2022.2.5,60.02065318891152,
,,,,,,,,,,,,,,,,,,,,14,0,14,0,12,0,12,0,,,,,,collision,w,g,upper,,,,,,,3,w,LoDemNoTar,g,1,0.6531631179677788,,,,,,,,,,,,,,,,,,381,2023-11-16_10h00.49.531,leap3,2022.2.5,60.02065318891152,
,,,,,,,,,,,,,,,,,,,,14,0,14,0,13,0,13,0,,,,,,buaint,nw,h,upper,,,,,,,3,nw,LoDemNoTar,h,1,0.5851228231185814,,,,,,,,,,,,,,,,,,381,2023-11-16_10h00.49.531,leap3,2022.2.5,60.02065318891152,
,,,,,,,,,,,,,,,,,,,,14,0,14,0,14,0,14,0,,,,,,fivalve,nw,h,upper,,,,,,,3,nw,LoDemNoTar,h,1,0.7757836122909794,,,,,,,,,,,,,,,,,,381,2023-11-16_10h00.49.531,leap3,2022.2.5,60.02065318891152,
,,,,,,,,,,,,,,,,,,,,14,0,14,0,15,0,15,0,,,,,,snife,nw,h,upper,,,,,,,3,nw,LoDemNoTar,g,0,0.8870593285828363,,,,,,,,,,,,,,,,,,381,2023-11-16_10h00.49.531,leap3,2022.2.5,60.02065318891152,
,,,,,,,,,,,,,,,,,,,,14,0,14,0,16,0,16,0,,,,,,nomma,nw,h,upper,,,,,,,3,nw,LoDemNoTar,h,1,0.672510967560811,,,,,,,,,,,,,,,,,,381,2023-11-16_10h00.49.531,leap3,2022.2.5,60.02065318891152,
,,,,,,,,,,,,,,,,,,,,14,0,14,0,17,0,17,0,,,,,,command,w,g,upper,,,,,,,3,w,LoDemNoTar,g,1,0.7793224223860307,,,,,,,,,,,,,,,,,,381,2023-11-16_10h00.49.531,leap3,2022.2.5,60.02065318891152,
,,,,,,,,,,,,,,,,,,,,14,0,14,0,18,0,18,0,,,,,,contund,nw,h,upper,,,,,,,3,nw,LoDemNoTar,h,1,0.6994251215364784,,,,,,,,,,,,,,,,,,381,2023-11-16_10h00.49.531,leap3,2022.2.5,60.02065318891152,
,,,,,,,,,,,,,,,,,,,,14,0,14,0,19,0,19,0,,,,,,moral,w,g,upper,,,,,,,3,w,LoDemNoTar,g,1,0.8619592524482869,,,,,,,,,,,,,,,,,,381,2023-11-16_10h00.49.531,leap3,2022.2.5,60.02065318891152,
,,,,,,,,,,,,,,,,,,,,14,0,14,0,20,0,20,0,,,,,,surfaced,w,g,upper,,,,,,,3,w,LoDemNoTar,g,1,0.5940102953609312,,,,,,,,,,,,,,,,,,381,2023-11-16_10h00.49.531,leap3,2022.2.5,60.02065318891152,
,,,,,,,,,,,,,,,,,,,,14,0,14,0,21,0,21,0,,,,,,rowel,nw,h,upper,,,,,,,3,nw,LoDemNoTar,h,1,0.8805398165277438,,,,,,,,,,,,,,,,,,381,2023-11-16_10h00.49.531,leap3,2022.2.5,60.02065318891152,
,,,,,,,,,,,,,,,,,,,,14,0,14,0,22,0,22,0,,,,,,elderly,w,g,upper,,,,,,,3,w,LoDemNoTar,g,1,0.7718647815636359,,,,,,,,,,,,,,,,,,381,2023-11-16_10h00.49.531,leap3,2022.2.5,60.02065318891152,
,,,,,,,,,,,,,,,,,,,,14,0,14,0,23,0,23,0,,,,,,gigglod,nw,h,upper,,,,,,,3,nw,LoDemNoTar,h,1,0.7151692647166783,,,,,,,,,,,,,,,,,,381,2023-11-16_10h00.49.531,leap3,2022.2.5,60.02065318891152,
,,,,,,,,,,,,,,,,,,,,14,0,14,0,24,0,24,0,,,,,,gensions,nw,h,upper,,,,,,,3,nw,LoDemNoTar,h,1,1.2931574071117211,,,,,,,,,,,,,,,,,,381,2023-11-16_10h00.49.531,leap3,2022.2.5,60.02065318891152,
,,,,,,,,,,,,,,,,,,,,14,0,14,0,25,0,25,0,,,,,,iolize,nw,h,upper,,,,,,,3,nw,LoDemNoTar,h,1,0.9437150021112757,,,,,,,,,,,,,,,,,,381,2023-11-16_10h00.49.531,leap3,2022.2.5,60.02065318891152,
,,,,,,,,,,,,,,,,,,,,14,0,14,0,26,0,26,0,,,,,,gazes,w,g,upper,,,,,,,3,w,LoDemNoTar,g,1,0.999358595276135,,,,,,,,,,,,,,,,,,381,2023-11-16_10h00.49.531,leap3,2022.2.5,60.02065318891152,
,,,,,,,,,,,,,,,,,,,,14,0,14,0,27,0,27,0,,,,,,chappef,nw,h,upper,,,,,,,3,nw,LoDemNoTar,h,1,0.973958185131778,,,,,,,,,,,,,,,,,,381,2023-11-16_10h00.49.531,leap3,2022.2.5,60.02065318891152,
,,,,,,,,,,,,,,,,,,,,14,0,14,0,28,0,28,0,,,,,,hardest,w,g,upper,,,,,,,3,w,LoDemNoTar,g,1,0.6052883660158841,,,,,,,,,,,,,,,,,,381,2023-11-16_10h00.49.531,leap3,2022.2.5,60.02065318891152,
,,,,,,,,,,,,,,,,,,,,14,0,14,0,29,0,29,0,,,,,,trophy,w,g,upper,,,,,,,3,w,LoDemNoTar,g,1,0.6113059127674205,,,,,,,,,,,,,,,,,,381,2023-11-16_10h00.49.531,leap3,2022.2.5,60.02065318891152,
,,,,,,,,,,,,,,,,,,,,14,0,14,0,,,,,,,,,,,,,,,,,,,,,,,,,,NA,,,,,,,,,,,,,,,,,381,2023-11-16_10h00.49.531,leap3,2022.2.5,60.02065318891152,
,,,,,,,,,,,,,,,,,,,,15,0,15,0,0,0,0,0,,,,,,leather,w,g,lower,,,,,,,1,w,HiDemTar,g,1,0.640963519923389,,,,,,,,,,,,,,,,,,381,2023-11-16_10h00.49.531,leap3,2022.2.5,60.02065318891152,
,,,,,,,,,,,,,,,,,,,,15,0,15,0,1,0,1,0,,,,,,afford,w,g,lower,,,,,,,1,w,HiDemTar,g,1,0.6944902864634059,,,,,,,,,,,,,,,,,,381,2023-11-16_10h00.49.531,leap3,2022.2.5,60.02065318891152,
,,,,,,,,,,,,,,,,,,,,15,0,15,0,2,0,2,0,,,,,,ephically,nw,h,lower,,,,,,,1,nw,HiDemTar,g,0,0.9361118728556903,,,,,,,,,,,,,,,,,,381,2023-11-16_10h00.49.531,leap3,2022.2.5,60.02065318891152,
,,,,,,,,,,,,,,,,,,,,15,0,15,0,3,0,3,0,,,,,,fraft,nw,h,lower,,,,,,,1,nw,HiDemTar,h,1,0.7207575903885299,,,,,,,,,,,,,,,,,,381,2023-11-16_10h00.49.531,leap3,2022.2.5,60.02065318891152,
,,,,,,,,,,,,,,,,,,,,15,0,15,0,4,0,4,0,,,,,,illness,w,g,lower,,,,,,,1,w,HiDemTar,g,1,0.5929073601582786,,,,,,,,,,,,,,,,,,381,2023-11-16_10h00.49.531,leap3,2022.2.5,60.02065318891152,
,,,,,,,,,,,,,,,,,,,,15,0,15,0,5,0,5,0,,,,,,party,w,g,lower,,,,,,,1,w,HiDemTar,g,1,0.5675899569178,,,,,,,,,,,,,,,,,,381,2023-11-16_10h00.49.531,leap3,2022.2.5,60.02065318891152,
,,,,,,,,,,,,,,,,,,,,15,0,15,0,6,0,6,0,,,,,,birn,nw,h,lower,,,,,,,1,nw,HiDemTar,h,1,1.0715619120601332,,,,,,,,,,,,,,,,,,381,2023-11-16_10h00.49.531,leap3,2022.2.5,60.02065318891152,
,,,,,,,,,,,,,,,,,,,,15,0,15,0,7,0,7,0,,,,,,prison,w,g,lower,,,,,,,1,w,HiDemTar,g,1,0.6833631374174729,,,,,,,,,,,,,,,,,,381,2023-11-16_10h00.49.531,leap3,2022.2.5,60.02065318891152,
,,,,,,,,,,,,,,,,,,,,15,0,15,0,8,0,8,0,,,,,,reloant,nw,h,lower,,,,,,,1,nw,HiDemTar,h,1,0.7666166332055582,,,,,,,,,,,,,,,,,,381,2023-11-16_10h00.49.531,leap3,2022.2.5,60.02065318891152,
,,,,,,,,,,,,,,,,,,,,15,0,15,0,9,0,9,0,,,,,,submit,w,g,lower,,,,,,,1,w,HiDemTar,g,1,0.5585974432324292,,,,,,,,,,,,,,,,,,381,2023-11-16_10h00.49.531,leap3,2022.2.5,60.02065318891152,
,,,,,,,,,,,,,,,,,,,,15,0,15,0,10,0,10,0,,,,,,flamingo,target,q,lower,,,,,,,1,target,HiDemTar,q,1,0.9256182927638292,,1,,,,,,,,,,,,,,,,381,2023-11-16_10h00.49.531,leap3,2022.2.5,60.02065318891152,
,,,,,,,,,,,,,,,,,,,,15,0,15,0,11,0,11,0,,,,,,epic,w,g,lower,,,,,,,1,aftertar1,HiDemTar,g,1,0.7748014144017361,,,,,,,,,,,,,,,,,,381,2023-11-16_10h00.49.531,leap3,2022.2.5,60.02065318891152,
,,,,,,,,,,,,,,,,,,,,15,0,15,0,12,0,12,0,,,,,,joses,nw,h,lower,,,,,,,1,aftertar2,HiDemTar,h,1,0.6141326746728737,,,,,,,,,,,,,,,,,,381,2023-11-16_10h00.49.531,leap3,2022.2.5,60.02065318891152,
,,,,,,,,,,,,,,,,,,,,15,0,15,0,13,0,13,0,,,,,,outfit,w,g,lower,,,,,,,1,aftertar3,HiDemTar,g,1,0.6520846320927376,,,,,,,,,,,,,,,,,,381,2023-11-16_10h00.49.531,leap3,2022.2.5,60.02065318891152,
,,,,,,,,,,,,,,,,,,,,15,0,15,0,14,0,14,0,,,,,,chining,nw,h,lower,,,,,,,1,w,HiDemTar,g,0,1.6320932527451077,,,,,,,,,,,,,,,,,,381,2023-11-16_10h00.49.531,leap3,2022.2.5,60.02065318891152,
,,,,,,,,,,,,,,,,,,,,15,0,15,0,15,0,15,0,,,,,,gablus,nw,h,lower,,,,,,,1,nw,HiDemTar,h,1,0.6613989106699592,,,,,,,,,,,,,,,,,,381,2023-11-16_10h00.49.531,leap3,2022.2.5,60.02065318891152,
,,,,,,,,,,,,,,,,,,,,15,0,15,0,16,0,16,0,,,,,,cessation,w,g,lower,,,,,,,1,nw,HiDemTar,h,0,0.9214232754602563,,,,,,,,,,,,,,,,,,381,2023-11-16_10h00.49.531,leap3,2022.2.5,60.02065318891152,
,,,,,,,,,,,,,,,,,,,,15,0,15,0,17,0,17,0,,,,,,supplier,w,g,lower,,,,,,,1,w,HiDemTar,g,1,1.2827356656925986,,,,,,,,,,,,,,,,,,381,2023-11-16_10h00.49.531,leap3,2022.2.5,60.02065318891152,
,,,,,,,,,,,,,,,,,,,,15,0,15,0,18,0,18,0,,,,,,pastnoss,nw,h,lower,,,,,,,1,w,HiDemTar,h,1,0.7089630659320392,,,,,,,,,,,,,,,,,,381,2023-11-16_10h00.49.531,leap3,2022.2.5,60.02065318891152,
,,,,,,,,,,,,,,,,,,,,15,0,15,0,19,0,19,0,,,,,,cogantly,nw,h,lower,,,,,,,1,nw,HiDemTar,g,0,1.0549701930722222,,,,,,,,,,,,,,,,,,381,2023-11-16_10h00.49.531,leap3,2022.2.5,60.02065318891152,
,,,,,,,,,,,,,,,,,,,,15,0,15,0,20,0,20,0,,,,,,deadly,w,g,lower,,,,,,,1,nw,HiDemTar,g,1,0.7949132292123977,,,,,,,,,,,,,,,,,,381,2023-11-16_10h00.49.531,leap3,2022.2.5,60.02065318891152,
,,,,,,,,,,,,,,,,,,,,15,0,15,0,21,0,21,0,,,,,,cabinet,w,g,lower,,,,,,,1,w,HiDemTar,g,1,0.5775821753923083,,,,,,,,,,,,,,,,,,381,2023-11-16_10h00.49.531,leap3,2022.2.5,60.02065318891152,
,,,,,,,,,,,,,,,,,,,,15,0,15,0,22,0,22,0,,,,,,ebciting,nw,h,lower,,,,,,,1,w,HiDemTar,h,1,0.8328534147440223,,,,,,,,,,,,,,,,,,381,2023-11-16_10h00.49.531,leap3,2022.2.5,60.02065318891152,
,,,,,,,,,,,,,,,,,,,,15,0,15,0,23,0,23,0,,,,,,forfeit,w,g,lower,,,,,,,1,nw,HiDemTar,g,1,0.6861814477160806,,,,,,,,,,,,,,,,,,381,2023-11-16_10h00.49.531,leap3,2022.2.5,60.02065318891152,
,,,,,,,,,,,,,,,,,,,,15,0,15,0,24,0,24,0,,,,,,sonnet,w,g,lower,,,,,,,1,w,HiDemTar,g,1,1.0727861882187426,,,,,,,,,,,,,,,,,,381,2023-11-16_10h00.49.531,leap3,2022.2.5,60.02065318891152,
,,,,,,,,,,,,,,,,,,,,15,0,15,0,25,0,25,0,,,,,,jungle,w,g,lower,,,,,,,1,w,HiDemTar,g,1,0.6671861510403687,,,,,,,,,,,,,,,,,,381,2023-11-16_10h00.49.531,leap3,2022.2.5,60.02065318891152,
,,,,,,,,,,,,,,,,,,,,15,0,15,0,26,0,26,0,,,,,,naxis,nw,h,lower,,,,,,,1,w,HiDemTar,h,1,0.6858802081551403,,,,,,,,,,,,,,,,,,381,2023-11-16_10h00.49.531,leap3,2022.2.5,60.02065318891152,
,,,,,,,,,,,,,,,,,,,,15,0,15,0,27,0,27,0,,,,,,eightiech,nw,h,lower,,,,,,,1,nw,HiDemTar,h,1,0.8327960645256098,,,,,,,,,,,,,,,,,,381,2023-11-16_10h00.49.531,leap3,2022.2.5,60.02065318891152,
,,,,,,,,,,,,,,,,,,,,15,0,15,0,28,0,28,0,,,,,,bluads,nw,h,lower,,,,,,,1,nw,HiDemTar,h,1,0.6628076130582485,,,,,,,,,,,,,,,,,,381,2023-11-16_10h00.49.531,leap3,2022.2.5,60.02065318891152,
,,,,,,,,,,,,,,,,,,,,15,0,15,0,29,0,29,0,,,,,,pripend,nw,h,lower,,,,,,,1,nw,HiDemTar,h,1,0.9310366806748789,,,,,,,,,,,,,,,,,,381,2023-11-16_10h00.49.531,leap3,2022.2.5,60.02065318891152,
,,,,,,,,,,,,,,,,,,,,15,0,15,0,,,,,,,,,,,,,,,,,,,,,,,,,,1,,,,,,,,,,,,,,,,,381,2023-11-16_10h00.49.531,leap3,2022.2.5,60.02065318891152,
,,,,,,,,,,,,,,,,,,,,16,0,16,0,0,0,0,0,,,,,,tiery,nw,h,upper,,,,,,,3,nw,LoDemNoTar,g,0,1.6279081962711643,,,,,,,,,,,,,,,,,,381,2023-11-16_10h00.49.531,leap3,2022.2.5,60.02065318891152,
,,,,,,,,,,,,,,,,,,,,16,0,16,0,1,0,1,0,,,,,,vopings,nw,h,upper,,,,,,,3,nw,LoDemNoTar,h,1,0.7532492036698386,,,,,,,,,,,,,,,,,,381,2023-11-16_10h00.49.531,leap3,2022.2.5,60.02065318891152,
,,,,,,,,,,,,,,,,,,,,16,0,16,0,2,0,2,0,,,,,,orange,w,g,upper,,,,,,,3,w,LoDemNoTar,g,1,1.3610950752772624,,,,,,,,,,,,,,,,,,381,2023-11-16_10h00.49.531,leap3,2022.2.5,60.02065318891152,
,,,,,,,,,,,,,,,,,,,,16,0,16,0,3,0,3,0,,,,,,cookbook,w,g,upper,,,,,,,3,w,LoDemNoTar,g,1,0.6091009479278,,,,,,,,,,,,,,,,,,381,2023-11-16_10h00.49.531,leap3,2022.2.5,60.02065318891152,
,,,,,,,,,,,,,,,,,,,,16,0,16,0,4,0,4,0,,,,,,sporidic,nw,h,upper,,,,,,,3,nw,LoDemNoTar,g,0,1.143020581570454,,,,,,,,,,,,,,,,,,381,2023-11-16_10h00.49.531,leap3,2022.2.5,60.02065318891152,
,,,,,,,,,,,,,,,,,,,,16,0,16,0,5,0,5,0,,,,,,rarely,w,g,upper,,,,,,,3,w,LoDemNoTar,g,1,0.7037233692099107,,,,,,,,,,,,,,,,,,381,2023-11-16_10h00.49.531,leap3,2022.2.5,60.02065318891152,
,,,,,,,,,,,,,,,,,,,,16,0,16,0,6,0,6,0,,,,,,jinds,nw,h,upper,,,,,,,3,nw,LoDemNoTar,h,1,0.7136660854012007,,,,,,,,,,,,,,,,,,381,2023-11-16_10h00.49.531,leap3,2022.2.5,60.02065318891152,
,,,,,,,,,,,,,,,,,,,,16,0,16,0,7,0,7,0,,,,,,trembles,w,g,upper,,,,,,,3,w,LoDemNoTar,h,0,0.9788208796671825,,,,,,,,,,,,,,,,,,381,2023-11-16_10h00.49.531,leap3,2022.2.5,60.02065318891152,
,,,,,,,,,,,,,,,,,,,,16,0,16,0,8,0,8,0,,,,,,vintnel,nw,h,upper,,,,,,,3,nw,LoDemNoTar,h,1,1.90598429577949,,,,,,,,,,,,,,,,,,381,2023-11-16_10h00.49.531,leap3,2022.2.5,60.02065318891152,
,,,,,,,,,,,,,,,,,,,,16,0,16,0,9,0,9,0,,,,,,courier,w,g,upper,,,,,,,3,w,LoDemNoTar,g,1,0.8999540716176853,,,,,,,,,,,,,,,,,,381,2023-11-16_10h00.49.531,leap3,2022.2.5,60.02065318891152,
,,,,,,,,,,,,,,,,,,,,16,0,16,0,10,0,10,0,,,,,,felevance,nw,h,upper,,,,,,,3,nw,LoDemNoTar,h,1,1.0625784536678111,,,,,,,,,,,,,,,,,,381,2023-11-16_10h00.49.531,leap3,2022.2.5,60.02065318891152,
