"procedure","block","trial","PMdemand","context","stim","role","word_type","correct_key","response","correct","reaction_time","pressedQ","pressedQ_blank","pressedQ_fix"
"LDTpractice",1,1,NA,"lower","tricycle","","w","g","g",1,0.666025607846677,"","",""
"LDTpractice",2,1,NA,"lower","grutch","","nw","h","g",0,0.860245358198881,"","",""
"LDTpractice",3,1,NA,"lower","julled","","nw","h","h",1,16.4805775054265,"","",""
"LDTpractice",4,1,NA,"lower","grimace","","w","g","g",1,1.33207394974306,"","",""
"LDTpractice",5,1,NA,"lower","infinity","","w","g","g",1,0.731237407075241,"","",""
"LDTpractice",6,1,NA,"lower","revival","","w","g","g",1,0.829435171792284,"","",""
"LDTpractice",7,1,NA,"lower","lumbigo","","nw","h","h",1,0.601802377728745,"","",""
"LDTpractice",8,1,NA,"lower","lurshing","","nw","h","h",1,0.768865277990699,"","",""
"LDTpractice",9,1,NA,"lower","slumber","","w","g","g",1,0.936604880727828,"","",""
"LDTpractice",10,1,NA,"lower","overshoot","","w","g","g",1,0.824290043208748,"","",""
"LDTpractice",11,1,NA,"lower","curlecs","","nw","h","h",1,0.581679068272933,"","",""
"LDTpractice",12,1,NA,"lower","turative","","nw","h","h",1,0.701071147806942,"","",""
"LDTpractice",13,1,NA,"lower","hasking","","nw","h","h",1,0.718643247149885,"","",""
"LDTpractice",14,1,NA,"lower","picture","","w","g","h",0,0.488517510704696,"","",""
"LDTpractice",1,2,NA,"upper","umpire","","w","g","g",1,0.882796058896929,"","",""
"LDTpractice",2,2,NA,"upper","alolition","","nw","h","h",1,0.902432036353275,"","",""
"LDTpractice",3,2,NA,"upper","crinklo","","nw","h","h",1,0.656257113907486,"","",""
"LDTpractice",4,2,NA,"upper","sponsor","","w","g","g",1,0.868407509988174,"","",""
"LDTpractice",5,2,NA,"upper","busted","","w","g","g",1,0.89478072244674,"","",""
"LDTpractice",6,2,NA,"upper","hiring","","w","g","g",1,0.745592517778277,"","",""
"LDTpractice",7,2,NA,"upper","treeps","","nw","h","h",1,0.978318462846801,"","",""
"LDTpractice",8,2,NA,"upper","grocus","","nw","h","h",1,0.793704983079806,"","",""
"LDTpractice",9,2,NA,"upper","unscrew","","w","g","g",1,0.767964110476896,"","",""
"LDTpractice",10,2,NA,"upper","summary","","w","g","g",1,0.678865420166403,"","",""
"LDTpractice",11,2,NA,"upper","trotch","","nw","h","h",1,0.818241429748014,"","",""
"LDTpractice",12,2,NA,"upper","latador","","nw","h","h",1,0.583755527157336,"","",""
"LDTpractice",13,2,NA,"upper","raestro","","nw","h","h",1,0.646368773188442,"","",""
"LDTpractice",14,2,NA,"upper","reputable","","w","g","h",0,0.61899474193342,"","",""
"experimental",1,1,"hd","lower","prama","nw","nw","h","h",1,1.11484530055895,"","None","None"
"experimental",1,2,"hd","lower","publish","w","w","g","g",1,0.885559483896941,"","None","None"
"experimental",1,3,"hd","lower","dialect","w","w","g","h",0,0.649051086511463,"","None","None"
"experimental",1,4,"hd","lower","ignore","w","w","g","g",1,0.606317815138027,"","None","None"
"experimental",1,5,"hd","lower","unlined","w","w","g","g",1,1.14910521591082,"","None","None"
"experimental",1,6,"hd","lower","veranpah","nw","nw","h","h",1,0.878380935173482,"","None","None"
"experimental",1,7,"hd","lower","crundle","nw","nw","h","h",1,0.880756348371506,"","None","None"
"experimental",1,8,"hd","lower","befin","nw","nw","h","h",1,0.97184078511782,"","None","None"
"experimental",1,9,"hd","lower","lanthers","nw","nw","h","h",1,0.973593128379434,"","None","None"
"experimental",1,10,"hd","lower","melodic","w","w","g","g",1,0.861574265407398,"","None","None"
"experimental",1,11,"hd","lower","slooch","nw","nw","h","h",1,0.866404548287392,"","None","None"
"experimental",1,12,"hd","lower","saturate","w","w","g","g",1,0.983117294032127,"","None","None"
"experimental",1,13,"hd","lower","allained","nw","nw","h","h",1,1.00710913399234,"","None","None"
"experimental",1,14,"hd","lower","glapula","nw","nw","h","h",1,0.885843209223822,"","None","None"
"experimental",1,15,"hd","lower","monopoly","w","w","g","g",1,0.760304851224646,"","None","None"
"experimental",1,16,"hd","lower","otoist","nw","nw","h","h",1,0.824916754849255,"","None","None"
"experimental",1,17,"hd","lower","troven","nw","nw","h","h",1,0.983124246587977,"","None","None"
"experimental",1,18,"hd","lower","design","w","w","g","g",1,0.82306740898639,"","None","None"
"experimental",1,19,"hd","lower","bloodless","w","w","g","g",1,1.05314712668769,"","None","None"
"experimental",1,20,"hd","lower","afford","w","w","g","g",1,1.02578402077779,"","None","None"
"experimental",1,21,"hd","lower","borrent","nw","nw","h","h",1,0.807806826662272,"","None","None"
"experimental",1,22,"hd","lower","armada","w","w","g","g",1,1.61456836201251,"","None","None"
"experimental",1,23,"hd","lower","valif","nw","nw","h","h",1,0.716459522256628,"","None","None"
"experimental",1,24,"hd","lower","mennel","nw","nw","h","h",1,0.878996059531346,"","None","None"
"experimental",1,25,"hd","lower","golemic","nw","nw","h","h",1,0.6029309888836,"","None","None"
"experimental",1,26,"hd","lower","gaining","w","w","g","g",1,0.913583732675761,"","None","None"
"experimental",1,27,"hd","lower","calcify","w","w","g","g",1,1.1083686160855,"","None","None"
"experimental",1,28,"hd","lower","slightly","w","w","g","g",1,0.742948939558119,"","None","None"
"experimental",1,29,"hd","lower","bingu","nw","nw","h","h",1,1.89641719171777,"","None","None"
"experimental",1,30,"hd","lower","module","w","w","g","g",1,0.77803917368874,"","None","None"
"experimental",1,NA,NA,"","","","","","",NA,NA,"","",""
"experimental",2,1,"hd","lower","favoting","nw","nw","h","h",1,0.8910714359954,"","None","None"
"experimental",2,2,"hd","lower","yearnungs","nw","nw","h","h",1,1.50251208851114,"","None","None"
"experimental",2,3,"hd","lower","arranged","w","w","g","g",1,0.769218858564273,"","None","None"
"experimental",2,4,"hd","lower","sporidic","nw","nw","h","h",1,1.43323609791696,"","None","None"
"experimental",2,5,"hd","lower","capobly","nw","nw","h","h",1,1.01439130702056,"","None","None"
"experimental",2,6,"hd","lower","surround","w","w","g","g",1,0.941011396702379,"","None","None"
"experimental",2,7,"hd","lower","terrify","w","w","g","g",1,0.73439380992204,"","None","None"
"experimental",2,8,"hd","lower","sonnet","w","w","g","g",1,0.943756944034249,"","None","None"
"experimental",2,9,"hd","lower","pammed","nw","nw","h","h",1,1.1531680834014,"","None","None"
"experimental",2,10,"hd","lower","tining","nw","nw","h","h",1,1.03382632602006,"","None","None"
"experimental",2,11,"hd","lower","slutches","nw","nw","h","h",1,0.815223744371906,"","None","None"
"experimental",2,12,"hd","lower","protest","w","w","g","g",1,0.965873945504427,"","None","None"
"experimental",2,13,"hd","lower","massacre","w","w","g","g",1,0.853686900110915,"","None","None"
"experimental",2,14,"hd","lower","shamrock","w","w","g","g",1,1.32232234021649,"","None","None"
"experimental",2,15,"hd","lower","tipoff","w","w","g","g",1,1.0844565636944,"","None","None"
"experimental",2,16,"hd","lower","meteoroid","w","w","g","g",1,1.19175638258457,"","None","None"
"experimental",2,17,"hd","lower","ensues","w","w","g","g",1,1.58325462113135,"","None","None"
"experimental",2,18,"hd","lower","levels","w","w","g","g",1,0.607233549235389,"","None","None"
"experimental",2,19,"hd","lower","blocking","w","w","g","g",1,0.677298475289717,"","None","None"
"experimental",2,20,"hd","lower","neally","nw","nw","h","h",1,0.818066294770688,"","None","None"
"experimental",2,21,"hd","lower","cutout","w","w","g","g",1,0.935673917410895,"","None","None"
"experimental",2,22,"hd","lower","nauling","nw","nw","h","h",1,0.889111844124272,"","None","None"
"experimental",2,23,"hd","lower","chonemic","nw","nw","h","h",1,2.22853638837114,"","None","None"
"experimental",2,24,"hd","lower","coyote","target","target","q","g",0,0.842618632828817,"","None","None"
"experimental",2,25,"hd","lower","leuter","aftertar1","nw","h","h",1,0.879966751206666,"","None","None"
"experimental",2,26,"hd","lower","brongs","aftertar2","nw","h","h",1,0.916158448904753,"","None","None"
"experimental",2,27,"hd","lower","havel","aftertar3","nw","h","h",1,0.926685088779777,"","None","None"
"experimental",2,28,"hd","lower","sength","nw","nw","h","h",1,0.919791920809075,"","None","None"
"experimental",2,29,"hd","lower","latter","nw","w","g","g",1,1.21778958826326,"","None","None"
"experimental",2,30,"hd","lower","charcoal","w","w","g","g",1,0.607806297251955,"","None","None"
"experimental",2,NA,NA,"","","","","","",NA,NA,"","",""
"experimental",3,1,"hd","lower","epic","w","w","g","g",1,0.742264621658251,"","None","None"
"experimental",3,2,"hd","lower","fracture","w","w","g","g",1,0.696079634828493,"","None","None"
"experimental",3,3,"hd","lower","anemic","w","w","g","g",1,0.914457752369344,"","None","None"
"experimental",3,4,"hd","lower","ugifies","nw","nw","h","h",1,0.829012066824362,"","None","None"
"experimental",3,5,"hd","lower","lightels","nw","nw","h","h",1,1.10718405456282,"","None","None"
"experimental",3,6,"hd","lower","ganter","nw","nw","h","h",1,0.933564682956785,"","None","None"
"experimental",3,7,"hd","lower","tapling","nw","nw","h","h",1,0.815173091134056,"","None","None"
"experimental",3,8,"hd","lower","selongs","nw","nw","h","h",1,0.909943970385939,"","None","None"
"experimental",3,9,"hd","lower","retona","nw","nw","h","h",1,1.16066412627697,"","None","None"
"experimental",3,10,"hd","lower","repayment","w","w","g","g",1,0.817391247022897,"","None","None"
"experimental",3,11,"hd","lower","fudden","nw","nw","h","h",1,0.815138991223648,"","None","None"
"experimental",3,12,"hd","lower","rapport","w","w","g","h",0,0.693788643926382,"","None","None"
"experimental",3,13,"hd","lower","gymnasium","w","w","g","g",1,0.745271381922066,"","None","None"
"experimental",3,14,"hd","lower","railroad","w","w","g","g",1,0.674677409464493,"","None","None"
"experimental",3,15,"hd","lower","outflow","w","w","g","g",1,0.846896363189444,"","None","None"
"experimental",3,16,"hd","lower","amms","nw","nw","h","h",1,0.884148471755907,"","None","None"
"experimental",3,17,"hd","lower","padicals","nw","nw","h","h",1,0.959409179864451,"","None","None"
"experimental",3,18,"hd","lower","expected","w","w","g","g",1,1.02378304558806,"","None","None"
"experimental",3,19,"hd","lower","ragtam","nw","nw","h","h",1,1.29333633859642,"","None","None"
"experimental",3,20,"hd","lower","amaze","w","w","g","g",1,1.10422496846877,"","None","None"
"experimental",3,21,"hd","lower","chrik","nw","nw","h","h",1,0.747300497954711,"","None","None"
"experimental",3,22,"hd","lower","metrol","nw","nw","h","h",1,1.66871321829967,"","None","None"
"experimental",3,23,"hd","lower","balign","nw","nw","h","h",1,0.849026785930619,"","None","None"
"experimental",3,24,"hd","lower","lovud","nw","nw","h","h",1,0.838114451849833,"","None","None"
"experimental",3,25,"hd","lower","remover","w","w","g","g",1,0.811480689095333,"","None","None"
"experimental",3,26,"hd","lower","insertion","w","w","g","g",1,0.978237682022154,"","None","None"
"experimental",3,27,"hd","lower","submit","w","w","g","g",1,0.881280098110437,"","None","None"
"experimental",3,28,"hd","lower","couple","w","w","g","g",1,0.773252922808751,"","None","None"
"experimental",3,29,"hd","lower","defensa","nw","nw","h","h",1,0.845353917218745,"","None","None"
"experimental",3,30,"hd","lower","ladybug","target","target","q","g",0,0.890656938776374,"","None","None"
"experimental",3,NA,NA,"","","","","","",NA,NA,"","",""
"experimental",4,1,"ld","upper","oalis","nw","nw","h","h",1,0.862191376276314,"","None","None"
"experimental",4,2,"ld","upper","naxis","nw","nw","h","h",1,0.826818078756332,"","None","None"
"experimental",4,3,"ld","upper","glating","nw","nw","h","h",1,1.08806189498864,"","None","None"
"experimental",4,4,"ld","upper","heaviest","w","w","g","g",1,0.763326509390026,"","None","None"
"experimental",4,5,"ld","upper","beggarlan","nw","nw","h","h",1,0.948099232744426,"","None","None"
"experimental",4,6,"ld","upper","miability","nw","nw","h","h",1,3.32563533820212,"","None","None"
"experimental",4,7,"ld","upper","unversed","w","w","g","h",0,0.719598378520459,"","None","None"
"experimental",4,8,"ld","upper","ronic","nw","nw","h","h",1,0.681654999731109,"","None","None"
"experimental",4,9,"ld","upper","rawhide","w","w","g","q",0,1.25270700501278,"q","None","None"
"experimental",4,10,"ld","upper","visible","w","w","g","g",1,3.32879836251959,"","None","None"
"experimental",4,11,"ld","upper","corg","nw","nw","h","h",1,1.77953063533641,"","None","None"
"experimental",4,12,"ld","upper","disperse","w","w","g","g",1,0.747568663209677,"","None","None"
"experimental",4,13,"ld","upper","catacomb","w","w","g","g",1,1.0610394582618,"","None","None"
"experimental",4,14,"ld","upper","passet","nw","nw","h","h",1,0.89758519991301,"","None","None"
"experimental",4,15,"ld","upper","infusion","w","w","g","g",1,0.748014942742884,"","None","None"
"experimental",4,16,"ld","upper","ready","w","w","g","g",1,1.5254428551998,"","None","None"
"experimental",4,17,"ld","upper","antwers","nw","nw","h","h",1,0.991463188547641,"","None","None"
"experimental",4,18,"ld","upper","release","w","w","g","g",1,1.35884874756448,"","None","None"
"experimental",4,19,"ld","upper","uncle","w","w","g","g",1,0.67157265311107,"","None","None"
"experimental",4,20,"ld","upper","iolize","nw","nw","h","h",1,0.803586371475831,"","None","None"
"experimental",4,21,"ld","upper","spigat","nw","nw","h","h",1,0.682263171765953,"","None","None"
"experimental",4,22,"ld","upper","atch","nw","nw","h","h",1,0.774372594896704,"","None","None"
"experimental",4,23,"ld","upper","alticles","nw","nw","h","h",1,1.11746868374757,"","None","None"
"experimental",4,24,"ld","upper","rander","nw","nw","h","h",1,0.631470379652455,"","None","None"
"experimental",4,25,"ld","upper","addition","w","w","g","g",1,0.781679597916082,"","None","None"
"experimental",4,26,"ld","upper","tiger","w","w","g","g",1,0.877562534995377,"","None","None"
"experimental",4,27,"ld","upper","usage","w","w","g","g",1,0.865769559750333,"","None","None"
"experimental",4,28,"ld","upper","committed","w","w","g","g",1,0.950583898462355,"","None","None"
"experimental",4,29,"ld","upper","slimped","nw","nw","h","h",1,0.759040171280503,"","None","None"
"experimental",4,30,"ld","upper","patio","w","w","g","g",1,0.767916105687618,"","None","None"
"experimental",4,NA,NA,"","","","","","",NA,NA,"","",""
"experimental",5,1,"ld","upper","galashes","nw","nw","h","h",1,1.05475777271204,"","None","None"
"experimental",5,2,"ld","upper","digar","nw","nw","h","h",1,0.611458308761939,"","None","None"
"experimental",5,3,"ld","upper","quittint","nw","nw","h","h",1,0.65838621254079,"","None","None"
"experimental",5,4,"ld","upper","plogging","nw","nw","h","h",1,0.742895637406036,"","None","None"
"experimental",5,5,"ld","upper","halents","nw","nw","h","h",1,0.784199025947601,"","None","None"
"experimental",5,6,"ld","upper","hardest","w","w","g","g",1,0.911762527190149,"","None","None"
"experimental",5,7,"ld","upper","misest","nw","nw","h","h",1,1.30527399061248,"","None","None"
"experimental",5,8,"ld","upper","humanize","w","w","g","g",1,0.868136034347117,"","None","None"
"experimental",5,9,"ld","upper","cayward","nw","nw","h","h",1,1.89600368775427,"","None","None"
"experimental",5,10,"ld","upper","single","w","w","g","g",1,0.771406556246802,"","None","None"
"experimental",5,11,"ld","upper","numbled","nw","nw","h","h",1,1.73147478280589,"","None","None"
"experimental",5,12,"ld","upper","presently","w","w","g","g",1,0.733485359232873,"","None","None"
"experimental",5,13,"ld","upper","stooping","w","w","g","h",0,4.11875289678574,"","None","None"
"experimental",5,14,"ld","upper","intended","w","w","g","g",1,0.9847878634464,"","None","None"
"experimental",5,15,"ld","upper","mosary","nw","nw","h","h",1,0.728162446757779,"","None","None"
"experimental",5,16,"ld","upper","coster","nw","nw","h","h",1,0.818217593012378,"","None","None"
"experimental",5,17,"ld","upper","serving","w","w","g","g",1,1.16023737937212,"","None","None"
"experimental",5,18,"ld","upper","computer","w","w","g","g",1,0.95300367497839,"","None","None"
"experimental",5,19,"ld","upper","mandate","w","w","g","g",1,0.761627799132839,"","None","None"
"experimental",5,20,"ld","upper","facienda","nw","nw","h","h",1,1.10541151626967,"","None","None"
"experimental",5,21,"ld","upper","paying","w","w","g","g",1,1.27610060456209,"","None","None"
"experimental",5,22,"ld","upper","etuip","nw","nw","h","h",1,1.46439225040376,"","None","None"
"experimental",5,23,"ld","upper","causality","w","w","g","g",1,0.948825596133247,"","None","None"
"experimental",5,24,"ld","upper","bengths","nw","nw","h","h",1,0.974226130405441,"","None","None"
"experimental",5,25,"ld","upper","eggays","nw","nw","h","h",1,0.862517147092149,"","None","None"
"experimental",5,26,"ld","upper","mining","w","w","g","g",1,0.794492593966424,"","None","None"
"experimental",5,27,"ld","upper","infancy","w","w","g","g",1,0.898337386548519,"","None","None"
"experimental",5,28,"ld","upper","poyride","nw","nw","h","g",0,0.692599447444081,"","None","None"
"experimental",5,29,"ld","upper","overcoat","w","w","g","g",1,1.04004014236853,"","None","None"
"experimental",5,30,"ld","upper","deficit","w","w","g","g",1,0.797113659791648,"","None","None"
"experimental",5,NA,NA,"","","","","","",NA,NA,"","",""
"experimental",6,1,"hd","lower","unwose","nw","nw","h","h",1,2.05301006441005,"","None","None"
"experimental",6,2,"hd","lower","gremieres","nw","nw","h","h",1,0.625697876792401,"","None","None"
"experimental",6,3,"hd","lower","pester","w","w","g","h",0,0.574624670203775,"","None","None"
"experimental",6,4,"hd","lower","caloric","w","w","g","g",1,0.6146534467116,"","None","None"
"experimental",6,5,"hd","lower","unstatle","nw","nw","h","h",1,1.00532401492819,"","None","None"
"experimental",6,6,"hd","lower","ireology","nw","nw","h","h",1,0.843991903122514,"","None","None"
"experimental",6,7,"hd","lower","satisfies","w","w","g","g",1,0.873587069800124,"","None","None"
"experimental",6,8,"hd","lower","alarm","w","w","g","g",1,0.549423438729718,"","None","None"
"experimental",6,9,"hd","lower","landing","w","w","g","g",1,0.598665177123621,"","None","None"
"experimental",6,10,"hd","lower","inducing","w","w","g","g",1,0.574006235226989,"","None","None"
"experimental",6,11,"hd","lower","lignpost","nw","nw","h","h",1,0.742004402214661,"","None","None"
"experimental",6,12,"hd","lower","iflaid","nw","nw","h","h",1,0.542359108570963,"","None","None"
"experimental",6,13,"hd","lower","oginous","nw","nw","h","h",1,0.839760191272944,"","None","None"
"experimental",6,14,"hd","lower","elbalm","nw","nw","h","h",1,0.589127106359228,"","None","None"
"experimental",6,15,"hd","lower","sequence","w","w","g","g",1,0.860431749606505,"","None","None"
"experimental",6,16,"hd","lower","airmen","w","w","g","g",1,1.00117937405594,"","None","None"
"experimental",6,17,"hd","lower","previous","w","w","g","g",1,0.616011156700552,"","None","None"
"experimental",6,18,"hd","lower","ufionize","nw","nw","h","h",1,1.47059878334403,"","None","None"
"experimental",6,19,"hd","lower","regiment","w","w","g","g",1,2.56965037272312,"","None","None"
"experimental",6,20,"hd","lower","porcupine","target","target","q","g",0,0.745700115105137,"","None","None"
"experimental",6,21,"hd","lower","aefated","aftertar1","nw","h","h",1,1.06718540540896,"","None","None"
"experimental",6,22,"hd","lower","mystery","aftertar2","w","g","q",0,1.51989117497578,"q","None","None"
"experimental",6,23,"hd","lower","duries","aftertar3","nw","h","h",1,1.44200741499662,"","None","None"
"experimental",6,24,"hd","lower","collute","nw","nw","h","h",1,0.711338892579079,"","None","None"
"experimental",6,25,"hd","lower","hivinity","nw","nw","h","h",1,0.738023639889434,"","None","None"
"experimental",6,26,"hd","lower","elpousal","nw","nw","h","h",1,0.707421033177525,"","None","None"
"experimental",6,27,"hd","lower","apology","nw","w","g","g",1,0.89310717349872,"","None","None"
"experimental",6,28,"hd","lower","equitable","w","w","g","g",1,0.776491430588067,"","None","None"
"experimental",6,29,"hd","lower","arcients","w","nw","h","h",1,5.04073406103998,"","None","None"
"experimental",6,30,"hd","lower","vinegar","nw","w","g","g",1,0.846073989989236,"","None","None"
"experimental",6,NA,NA,"","","","","","",NA,NA,"","",""
"experimental",7,1,"ld","upper","legalize","w","w","g","g",1,1.14653083099984,"","None","None"
"experimental",7,2,"ld","upper","welayed","nw","nw","h","h",1,0.979850976727903,"","None","None"
"experimental",7,3,"ld","upper","shurk","nw","nw","h","h",1,0.739890863886103,"","None","None"
"experimental",7,4,"ld","upper","admire","w","w","g","g",1,0.749425292713568,"","None","None"
"experimental",7,5,"ld","upper","clooped","nw","nw","h","h",1,1.8706766506657,"","None","None"
"experimental",7,6,"ld","upper","epthuse","nw","nw","h","h",1,0.722693864721805,"","None","None"
"experimental",7,7,"ld","upper","reborn","w","w","g","g",1,0.851894497638568,"","None","None"
"experimental",7,8,"ld","upper","forecast","w","w","g","g",1,0.751687811687589,"","None","None"
"experimental",7,9,"ld","upper","cassette","w","w","g","g",1,0.889834234723821,"","None","None"
"experimental",7,10,"ld","upper","listless","w","w","g","g",1,0.85322936414741,"","None","None"
"experimental",7,11,"ld","upper","baults","nw","nw","h","h",1,0.906022469280288,"","None","None"
"experimental",7,12,"ld","upper","entropy","w","w","g","g",1,0.756731633795425,"","None","None"
"experimental",7,13,"ld","upper","finish","w","w","g","g",1,0.66028455668129,"","None","None"
"experimental",7,14,"ld","upper","series","w","w","g","g",1,0.449321039486676,"","None","None"
"experimental",7,15,"ld","upper","unbridled","w","w","g","g",1,0.742181854555383,"","None","None"
"experimental",7,16,"ld","upper","buttress","w","w","g","g",1,1.2950459739659,"","None","None"
"experimental",7,17,"ld","upper","arrive","w","w","g","g",1,0.714339362457395,"","None","None"
"experimental",7,18,"ld","upper","ringlat","nw","nw","h","h",1,0.797072938177735,"","None","None"
"experimental",7,19,"ld","upper","sweeping","w","w","g","g",1,0.828464480116963,"","None","None"
"experimental",7,20,"ld","upper","ottans","nw","nw","h","h",1,0.746522818924859,"","None","None"
"experimental",7,21,"ld","upper","befriend","w","w","g","g",1,0.699896518373862,"","None","None"
"experimental",7,22,"ld","upper","pleamed","nw","nw","h","h",1,1.11927201156504,"","None","None"
"experimental",7,23,"ld","upper","trises","nw","nw","h","h",1,0.913316229823977,"","None","None"
"experimental",7,24,"ld","upper","agony","w","w","g","h",0,0.46709773875773,"","None","None"
"experimental",7,25,"ld","upper","fravity","nw","nw","h","h",1,1.07099997159094,"","None","None"
"experimental",7,26,"ld","upper","miurnal","nw","nw","h","h",1,0.699149297783151,"","None","None"
"experimental",7,27,"ld","upper","rarren","nw","nw","h","h",1,0.6942203566432,"","None","None"
"experimental",7,28,"ld","upper","podes","nw","nw","h","h",1,0.665882917586714,"","None","None"
"experimental",7,29,"ld","upper","buaint","nw","nw","h","h",1,0.725774452788755,"","None","None"
"experimental",7,30,"ld","upper","harfing","nw","nw","h","h",1,1.00780503894202,"","None","None"
"experimental",7,NA,NA,"","","","","","",NA,NA,"","",""
"experimental",8,1,"ld","upper","practice","w","w","g","g",1,1.10166183952242,"","None","None"
"experimental",8,2,"ld","upper","soluced","nw","nw","h","h",1,0.704383483855054,"","None","None"
"experimental",8,3,"ld","upper","summon","w","w","g","g",1,0.835195093881339,"","None","None"
"experimental",8,4,"ld","upper","audience","w","w","g","g",1,0.832572703715414,"","None","None"
"experimental",8,5,"ld","upper","cemoir","nw","nw","h","h",1,0.758530326420441,"","None","None"
"experimental",8,6,"ld","upper","binder","w","w","g","g",1,0.727444691350684,"","None","None"
"experimental",8,7,"ld","upper","fuintets","nw","nw","h","h",1,0.849370434880257,"","None","None"
"experimental",8,8,"ld","upper","fisco","nw","nw","h","h",1,1.40571573469788,"","None","None"
"experimental",8,9,"ld","upper","offonents","nw","nw","h","h",1,0.804429270559922,"","None","None"
"experimental",8,10,"ld","upper","cripet","nw","nw","h","h",1,0.843215217348188,"","None","None"
"experimental",8,11,"ld","upper","permute","w","w","g","h",0,0.679869549814612,"","None","None"
"experimental",8,12,"ld","upper","derisury","nw","nw","h","h",1,0.79532688530162,"","None","None"
"experimental",8,13,"ld","upper","tinker","w","w","g","g",1,0.907252056058496,"","None","None"
"experimental",8,14,"ld","upper","become","w","w","g","g",1,0.71004408528097,"","None","None"
"experimental",8,15,"ld","upper","ausht","nw","nw","h","h",1,0.743997763143852,"","None","None"
"experimental",8,16,"ld","upper","doxing","nw","nw","h","g",0,2.28774857218377,"","None","None"
"experimental",8,17,"ld","upper","ifkling","nw","nw","h","h",1,0.818398687057197,"","None","None"
"experimental",8,18,"ld","upper","populace","w","w","g","h",0,2.80050942464732,"","None","None"
"experimental",8,19,"ld","upper","tenpince","nw","nw","h","h",1,0.927179704420268,"","None","None"
"experimental",8,20,"ld","upper","kangaroo","target","target","q","q",1,1.25669405749068,"q","None","None"
"experimental",8,21,"ld","upper","brighten","aftertar1","w","g","g",1,1.07705520628951,"","None","None"
"experimental",8,22,"ld","upper","mineluyer","aftertar2","nw","h","h",1,0.799869139213115,"","None","None"
"experimental",8,23,"ld","upper","staircase","aftertar3","w","g","g",1,0.726439237594604,"","None","None"
"experimental",8,24,"ld","upper","metebing","w","nw","h","h",1,0.84787632455118,"","None","None"
"experimental",8,25,"ld","upper","obtuse","nw","w","g","g",1,1.05263364035636,"","None","None"
"experimental",8,26,"ld","upper","stranded","w","w","g","g",1,0.729278477374464,"","None","None"
"experimental",8,27,"ld","upper","incidonts","w","nw","h","h",1,0.698625879129395,"","None","None"
"experimental",8,28,"ld","upper","amplifier","nw","w","g","g",1,0.829341148491949,"","None","None"
"experimental",8,29,"ld","upper","number","w","w","g","g",1,0.778714552521706,"","None","None"
"experimental",8,30,"ld","upper","compose","w","w","g","g",1,0.602098021656275,"","None","None"
"experimental",8,NA,NA,"","","","","","",NA,NA,"","",""
"experimental",9,1,"ld","upper","drine","nw","nw","h","h",1,0.823953015729785,"","None","None"
"experimental",9,2,"ld","upper","ilcurring","nw","nw","h","h",1,0.613309641368687,"","None","None"
"experimental",9,3,"ld","upper","unrealon","nw","nw","h","g",0,1.02735824952833,"","None","None"
"experimental",9,4,"ld","upper","describe","w","w","g","g",1,0.816950595472008,"","None","None"
"experimental",9,5,"ld","upper","sonkers","nw","nw","h","h",1,0.710787002230063,"","None","None"
"experimental",9,6,"ld","upper","dileting","nw","nw","h","h",1,0.759780770400539,"","None","None"
"experimental",9,7,"ld","upper","earmaff","nw","nw","h","h",1,1.44786334666423,"","None","None"
"experimental",9,8,"ld","upper","rational","w","w","g","g",1,0.845255258725956,"","None","None"
"experimental",9,9,"ld","upper","surdens","nw","nw","h","h",1,0.897911633132026,"","None","None"
"experimental",9,10,"ld","upper","uncorked","w","w","g","g",1,1.15656749019399,"","None","None"
"experimental",9,11,"ld","upper","drauns","nw","nw","h","h",1,0.69251767359674,"","None","None"
"experimental",9,12,"ld","upper","maiden","w","w","g","g",1,0.735350265400484,"","None","None"
"experimental",9,13,"ld","upper","undertake","w","w","g","g",1,1.0881529385224,"","None","None"
"experimental",9,14,"ld","upper","rebool","nw","nw","h","h",1,0.74656718224287,"","None","None"
"experimental",9,15,"ld","upper","failure","w","w","g","g",1,0.731223171111196,"","None","None"
"experimental",9,16,"ld","upper","mortgage","w","w","g","g",1,0.89265824505128,"","None","None"
"experimental",9,17,"ld","upper","fidelity","w","w","g","g",1,0.75132628553547,"","None","None"
"experimental",9,18,"ld","upper","lenie","nw","nw","h","h",1,0.631997770862654,"","None","None"
"experimental",9,19,"ld","upper","graiking","nw","nw","h","h",1,0.765402637189254,"","None","None"
"experimental",9,20,"ld","upper","terming","w","w","g","h",0,1.39769859076478,"","None","None"
"experimental",9,21,"ld","upper","embrace","w","w","g","g",1,0.85219477629289,"","None","None"
"experimental",9,22,"ld","upper","prison","w","w","g","g",1,0.799977398244664,"","None","None"
"experimental",9,23,"ld","upper","exploit","w","w","g","g",1,0.854580121580511,"","None","None"
"experimental",9,24,"ld","upper","warmer","w","w","g","g",1,0.986630257219076,"","None","None"
"experimental",9,25,"ld","upper","except","w","w","g","g",1,0.802095902850851,"","None","None"
"experimental",9,26,"ld","upper","rudder","w","w","g","g",1,1.11268574371934,"","None","None"
"experimental",9,27,"ld","upper","schides","nw","nw","h","h",1,0.690741162514314,"","None","None"
"experimental",9,28,"ld","upper","nimono","nw","nw","h","h",1,1.0054471725598,"","None","None"
"experimental",9,29,"ld","upper","withep","nw","nw","h","h",1,0.907446392811835,"","None","None"
"experimental",9,30,"ld","upper","fraft","nw","nw","h","h",1,0.828538639470935,"","None","None"
"experimental",9,NA,NA,"","","","","","",NA,NA,"","",""
"experimental",10,1,"hd","lower","planofoad","nw","nw","h","h",1,1.06548106716946,"","None","None"
"experimental",10,2,"hd","lower","overflow","w","w","g","g",1,0.806445143884048,"","None","None"
"experimental",10,3,"hd","lower","snays","nw","nw","h","h",1,1.03651724709198,"","None","None"
"experimental",10,4,"hd","lower","innocent","w","w","g","g",1,0.753228271612898,"","None","None"
"experimental",10,5,"hd","lower","erlighten","nw","nw","h","h",1,0.896396996686235,"","None","None"
"experimental",10,6,"hd","lower","suspect","w","w","g","g",1,1.43509703152813,"","None","None"
"experimental",10,7,"hd","lower","labitable","nw","nw","h","h",1,1.24844185495749,"","None","None"
"experimental",10,8,"hd","lower","martial","w","w","g","g",1,0.789185241796076,"","None","None"
"experimental",10,9,"hd","lower","tritical","nw","nw","h","h",1,1.70786929945461,"","None","None"
"experimental",10,10,"hd","lower","intercede","w","w","g","g",1,0.87790783890523,"","None","None"
"experimental",10,11,"hd","lower","region","w","w","g","g",1,0.833287479588762,"","None","None"
"experimental",10,12,"hd","lower","rearrange","w","w","g","g",1,0.646659781923518,"","None","None"
"experimental",10,13,"hd","lower","teliever","nw","nw","h","h",1,0.962268283357844,"","None","None"
"experimental",10,14,"hd","lower","removable","w","w","g","g",1,0.994382546981797,"","None","None"
"experimental",10,15,"hd","lower","crimb","nw","nw","h","h",1,0.689099727198482,"","None","None"
"experimental",10,16,"hd","lower","treenery","nw","nw","h","h",1,1.32385021913797,"","None","None"
"experimental",10,17,"hd","lower","gackpedal","nw","nw","h","h",1,0.86930006952025,"","None","None"
"experimental",10,18,"hd","lower","overwork","w","w","g","g",1,0.7443566408474,"","None","None"
"experimental",10,19,"hd","lower","tuckel","nw","nw","h","h",1,0.673059148481116,"","None","None"
"experimental",10,20,"hd","lower","extend","w","w","g","g",1,0.731439027469605,"","None","None"
"experimental",10,21,"hd","lower","trooper","w","w","g","g",1,0.82138823159039,"","None","None"
"experimental",10,22,"hd","lower","tibs","nw","nw","h","h",1,0.634760202839971,"","None","None"
"experimental",10,23,"hd","lower","urgent","w","w","g","g",1,0.743873281404376,"","None","None"
"experimental",10,24,"hd","lower","sengry","nw","nw","h","h",1,0.816906894324347,"","None","None"
"experimental",10,25,"hd","lower","renown","w","w","g","g",1,1.34305249759927,"","None","None"
"experimental",10,26,"hd","lower","nameplate","w","w","g","g",1,0.751373297069222,"","None","None"
"experimental",10,27,"hd","lower","monkey","target","target","q","g",0,0.736168996663764,"","None","None"
"experimental",10,28,"hd","lower","endgume","aftertar1","nw","h","h",1,0.736830139532685,"","None","None"
"experimental",10,29,"hd","lower","roodies","aftertar2","nw","h","h",1,1.44860030408017,"","None","None"
"experimental",10,30,"hd","lower","mebase","aftertar3","nw","h","h",1,1.03734260005876,"","None","None"
"experimental",10,NA,NA,"","","","","","",NA,NA,"","",""
"experimental",11,1,"hd","lower","mustled","nw","nw","h","h",1,0.914773922413588,"","None","None"
"experimental",11,2,"hd","lower","nearsipe","nw","nw","h","h",1,1.55668707191944,"","None","None"
"experimental",11,3,"hd","lower","antonym","w","w","g","g",1,1.0756799497176,"","None","None"
"experimental",11,4,"hd","lower","unsmilung","nw","nw","h","h",1,1.06302950810641,"","None","None"
"experimental",11,5,"hd","lower","athcan","nw","nw","h","h",1,0.835119610186666,"","None","None"
"experimental",11,6,"hd","lower","forgive","w","w","g","g",1,0.944448545342311,"","None","None"
"experimental",11,7,"hd","lower","splatter","w","w","g","g",1,0.649143454618752,"","None","None"
"experimental",11,8,"hd","lower","comment","w","w","g","g",1,0.605639787856489,"","None","None"
"experimental",11,9,"hd","lower","frowsed","nw","nw","h","h",1,0.676571449730545,"","None","None"
"experimental",11,10,"hd","lower","turntable","w","w","g","h",0,0.695886622183025,"","None","None"
"experimental",11,11,"hd","lower","amidst","w","w","g","g",1,0.746378804557025,"","None","None"
"experimental",11,12,"hd","lower","slowning","nw","nw","h","h",1,1.24865473178215,"","None","None"
"experimental",11,13,"hd","lower","puffin","w","w","g","g",1,0.998731456929818,"","None","None"
"experimental",11,14,"hd","lower","sponto","nw","nw","h","h",1,1.07608153531328,"q","None","q"
"experimental",11,15,"hd","lower","provide","w","w","g","g",1,1.70420867973007,"","None","None"
"experimental",11,16,"hd","lower","plymie","nw","nw","h","h",1,0.71428208751604,"","None","None"
"experimental",11,17,"hd","lower","gettle","nw","nw","h","h",1,0.333322076359764,"","None","None"
"experimental",11,18,"hd","lower","omission","w","w","g","g",1,0.838355138432235,"","None","None"
"experimental",11,19,"hd","lower","odacles","nw","nw","h","h",1,0.818169919075444,"","None","None"
"experimental",11,20,"hd","lower","flooted","nw","nw","h","h",1,0.744092117529362,"","None","None"
"experimental",11,21,"hd","lower","superstar","w","w","g","g",1,0.880836798110977,"","None","None"
"experimental",11,22,"hd","lower","joses","nw","nw","h","h",1,0.892169588711113,"","None","None"
"experimental",11,23,"hd","lower","turning","w","w","g","g",1,1.05493787373416,"","None","None"
"experimental",11,24,"hd","lower","acroad","nw","nw","h","h",1,0.890956555493176,"","None","None"
"experimental",11,25,"hd","lower","minimum","w","w","g","g",1,1.18167635356076,"","None","None"
"experimental",11,26,"hd","lower","professor","w","w","g","g",1,3.88415476214141,"","None","None"
"experimental",11,27,"hd","lower","priant","nw","nw","h","h",1,0.743663053261116,"","None","None"
"experimental",11,28,"hd","lower","outset","w","w","g","g",1,0.87213997123763,"","None","None"
"experimental",11,29,"hd","lower","chesume","nw","nw","h","h",1,0.819481941871345,"","None","None"
"experimental",11,30,"hd","lower","emotion","w","w","g","g",1,0.784922409569845,"","None","None"
"experimental",11,NA,NA,"","","","","","",NA,NA,"","",""
"experimental",12,1,"hd","lower","sorping","nw","nw","h","h",1,0.74284895695746,"","None","None"
"experimental",12,2,"hd","lower","snife","nw","nw","h","h",1,0.67996887001209,"","None","None"
"experimental",12,3,"hd","lower","comply","w","w","g","g",1,0.715321641182527,"","None","None"
"experimental",12,4,"hd","lower","resent","w","w","g","g",1,1.2214813278988,"","None","None"
"experimental",12,5,"hd","lower","glaims","nw","nw","h","h",1,0.867259365972131,"","None","None"
"experimental",12,6,"hd","lower","hutting","nw","nw","h","g",0,0.983827435178682,"","None","None"
"experimental",12,7,"hd","lower","reses","nw","nw","h","h",1,1.27897791704163,"","None","None"
"experimental",12,8,"hd","lower","tycoon","w","w","g","g",1,0.817554794484749,"","None","None"
"experimental",12,9,"hd","lower","prominent","w","w","g","g",1,0.879429758992046,"","None","None"
"experimental",12,10,"hd","lower","lecked","nw","nw","h","h",1,0.81103540235199,"","None","None"
"experimental",12,11,"hd","lower","atabaster","nw","nw","h","h",1,0.808794733835384,"","None","None"
"experimental",12,12,"hd","lower","disease","w","w","g","g",1,0.750797900836915,"","None","None"
"experimental",12,13,"hd","lower","maunches","nw","nw","h","h",1,0.679554703878239,"","None","None"
"experimental",12,14,"hd","lower","tiery","nw","nw","h","g",0,0.954934463836253,"","None","None"
"experimental",12,15,"hd","lower","decant","w","w","g","h",0,0.690974234370515,"","None","None"
"experimental",12,16,"hd","lower","tredits","nw","nw","h","h",1,1.17396842711605,"","None","None"
"experimental",12,17,"hd","lower","roughly","w","w","g","g",1,0.852169614983723,"","None","None"
"experimental",12,18,"hd","lower","consonant","w","w","g","g",1,1.32073056488298,"","None","None"
"experimental",12,19,"hd","lower","ebciting","nw","nw","h","h",1,1.03401900781319,"","None","None"
"experimental",12,20,"hd","lower","standard","w","w","g","g",1,0.799230839824304,"","None","None"
"experimental",12,21,"hd","lower","thacked","nw","nw","h","h",1,0.653846607310697,"","None","None"
"experimental",12,22,"hd","lower","knowledge","w","w","g","g",1,0.793897002469748,"","None","None"
"experimental",12,23,"hd","lower","flamingo","target","target","q","g",0,0.855931872501969,"","None","None"
"experimental",12,24,"hd","lower","achieve","aftertar1","w","g","g",1,0.973047528183088,"","None","None"
"experimental",12,25,"hd","lower","prohibit","aftertar2","w","g","g",1,1.33182002068497,"","None","None"
"experimental",12,26,"hd","lower","undue","aftertar3","w","g","g",1,0.837096417555586,"","None","None"
"experimental",12,27,"hd","lower","fards","w","nw","h","h",1,1.07389814127237,"","None","None"
"experimental",12,28,"hd","lower","handle","nw","w","g","g",1,0.701285680057481,"","None","None"
"experimental",12,29,"hd","lower","trocess","w","nw","h","h",1,1.4240251223091,"","None","None"
"experimental",12,30,"hd","lower","trake","nw","nw","h","h",1,0.765392704866827,"","None","None"
"experimental",12,NA,NA,"","","","","","",NA,NA,"","",""
"experimental",13,1,"hd","lower","whirlpool","w","w","g","g",1,0.901211388409138,"","None","None"
"experimental",13,2,"hd","lower","arrested","w","w","g","g",1,0.672036810545251,"","None","None"
"experimental",13,3,"hd","lower","loneliest","w","w","g","g",1,0.66720983828418,"","None","None"
"experimental",13,4,"hd","lower","fuestion","nw","nw","h","h",1,0.855229014996439,"","None","None"
"experimental",13,5,"hd","lower","bureaug","nw","nw","h","h",1,0.827312363544479,"","None","None"
"experimental",13,6,"hd","lower","gund","nw","nw","h","h",1,0.648641886422411,"","None","None"
"experimental",13,7,"hd","lower","foster","w","w","g","g",1,0.62134201452136,"","None","None"
"experimental",13,8,"hd","lower","gradielts","nw","nw","h","h",1,1.09771021129563,"","None","None"
"experimental",13,9,"hd","lower","strenuous","w","w","g","g",1,0.884389489423484,"","None","None"
"experimental",13,10,"hd","lower","fission","w","w","g","g",1,0.607082582311705,"","None","None"
"experimental",13,11,"hd","lower","carbled","nw","nw","h","h",1,0.74974080058746,"","None","None"
"experimental",13,12,"hd","lower","gerby","nw","nw","h","h",1,0.846491135889664,"","None","None"
"experimental",13,13,"hd","lower","razelle","nw","nw","h","h",1,0.979287167778239,"","None","None"
"experimental",13,14,"hd","lower","explosion","w","w","g","g",1,1.75366925401613,"","None","None"
"experimental",13,15,"hd","lower","upstairs","w","w","g","g",1,0.898734668036923,"","None","None"
"experimental",13,16,"hd","lower","lawsuit","w","w","g","g",1,0.796573687810451,"","None","None"
"experimental",13,17,"hd","lower","clume","nw","nw","h","h",1,0.819204837782308,"","None","None"
"experimental",13,18,"hd","lower","ezulated","nw","nw","h","h",1,0.832638255320489,"","None","None"
"experimental",13,19,"hd","lower","diatonic","w","w","g","h",0,0.629804776282981,"","None","None"
"experimental",13,20,"hd","lower","observer","w","w","g","g",1,0.619350971188396,"","None","None"
"experimental",13,21,"hd","lower","dolphin","target","target","q","g",0,0.760736232856289,"","None","None"
"experimental",13,22,"hd","lower","sustain","aftertar1","w","g","g",1,0.744751936057582,"","None","None"
"experimental",13,23,"hd","lower","pypecast","aftertar2","nw","h","h",1,0.80949858459644,"","None","None"
"experimental",13,24,"hd","lower","chyme","aftertar3","nw","h","h",1,0.695490664802492,"","None","None"
"experimental",13,25,"hd","lower","rillains","nw","nw","h","h",1,0.697161234216765,"","None","None"
"experimental",13,26,"hd","lower","illness","nw","w","g","g",1,0.820169239072129,"","None","None"
"experimental",13,27,"hd","lower","alomalous","w","nw","h","h",1,1.44200013158843,"","None","None"
"experimental",13,28,"hd","lower","frose","nw","nw","h","h",1,1.45471347589046,"","None","None"
"experimental",13,29,"hd","lower","cheathe","nw","nw","h","h",1,0.866921676555648,"","None","None"
"experimental",13,30,"hd","lower","primal","nw","w","g","g",1,1.20665742480196,"","None","None"
"experimental",13,NA,NA,"","","","","","",NA,NA,"","",""
"experimental",14,1,"ld","upper","attended","w","w","g","g",1,1.19640126731247,"","None","None"
"experimental",14,2,"ld","upper","frunted","nw","nw","h","h",1,0.683030256303027,"","None","None"
"experimental",14,3,"ld","upper","curtail","w","w","g","g",1,1.1162718727719,"","None","None"
"experimental",14,4,"ld","upper","babies","w","w","g","g",1,0.9685006395448,"","None","None"
"experimental",14,5,"ld","upper","cabinet","w","w","g","g",1,0.67208613967523,"","None","None"
"experimental",14,6,"ld","upper","giving","w","w","g","g",1,0.659967724699527,"","None","None"
"experimental",14,7,"ld","upper","carony","nw","nw","h","h",1,0.743032037513331,"","None","None"
"experimental",14,8,"ld","upper","fomrade","nw","nw","h","h",1,1.05579964397475,"","None","None"
"experimental",14,9,"ld","upper","result","w","w","g","g",1,0.835816839709878,"","None","None"
"experimental",14,10,"ld","upper","bluads","nw","nw","h","h",1,1.04127403302118,"","None","None"
"experimental",14,11,"ld","upper","buzzer","w","w","g","g",1,0.709947744617239,"","None","None"
"experimental",14,12,"ld","upper","huntry","nw","nw","h","h",1,1.79203275823966,"","None","None"
"experimental",14,13,"ld","upper","praiged","nw","nw","h","h",1,0.862707842607051,"","None","None"
"experimental",14,14,"ld","upper","attrove","nw","nw","h","h",1,0.794714740477502,"","None","None"
"experimental",14,15,"ld","upper","egcused","nw","nw","h","h",1,0.976419125217944,"","None","None"
"experimental",14,16,"ld","upper","migmarole","nw","nw","h","h",1,0.999864371726289,"","None","None"
"experimental",14,17,"ld","upper","blueberry","w","w","g","g",1,1.36659772647545,"","None","None"
"experimental",14,18,"ld","upper","neliefs","nw","nw","h","h",1,1.03863376518711,"","None","None"
"experimental",14,19,"ld","upper","dealer","w","w","g","g",1,1.04333195206709,"","None","None"
"experimental",14,20,"ld","upper","talent","w","w","g","g",1,0.640066892607138,"","None","None"
"experimental",14,21,"ld","upper","cartles","nw","nw","h","h",1,1.58073585550301,"","None","None"
"experimental",14,22,"ld","upper","chemical","w","w","g","g",1,0.795309669803828,"","None","None"
"experimental",14,23,"ld","upper","ronvince","nw","nw","h","h",1,0.770455728750676,"","None","None"
"experimental",14,24,"ld","upper","acorn","w","w","g","g",1,0.785790139110759,"","None","None"
"experimental",14,25,"ld","upper","confined","w","w","g","g",1,1.08084858418442,"","None","None"
"experimental",14,26,"ld","upper","define","w","w","g","g",1,0.971644792705774,"","None","None"
"experimental",14,27,"ld","upper","nogwhell","nw","nw","h","h",1,1.64333354122937,"","None","None"
"experimental",14,28,"ld","upper","affluent","w","w","g","h",0,0.543986639240757,"","None","None"
"experimental",14,29,"ld","upper","erithets","nw","nw","h","h",1,0.848744054092094,"","None","None"
"experimental",14,30,"ld","upper","apop","nw","nw","h","h",1,0.900502902688459,"","None","None"
"experimental",14,NA,NA,"","","","","","",NA,NA,"","",""
"experimental",15,1,"ld","upper","fullity","nw","nw","h","h",1,1.31131863128394,"","None","None"
"experimental",15,2,"ld","upper","maximized","w","w","g","g",1,0.913383105536923,"","None","None"
"experimental",15,3,"ld","upper","redefloy","nw","nw","h","h",1,1.31546360324137,"","None","None"
"experimental",15,4,"ld","upper","desert","w","w","g","g",1,0.773479704512283,"","None","None"
"experimental",15,5,"ld","upper","neuran","nw","nw","h","h",1,0.971875547198579,"","None","None"
"experimental",15,6,"ld","upper","combat","w","w","g","g",1,0.923250257736072,"","None","None"
"experimental",15,7,"ld","upper","chight","nw","nw","h","h",1,1.21261400124058,"","None","None"
"experimental",15,8,"ld","upper","asthmatic","w","w","g","g",1,0.794647202827036,"","None","None"
"experimental",15,9,"ld","upper","seeming","w","w","g","g",1,0.665422401856631,"","None","None"
"experimental",15,10,"ld","upper","penalize","w","w","g","g",1,1.70948424935341,"","None","None"
"experimental",15,11,"ld","upper","sprea","nw","nw","h","h",1,0.887451206566766,"","None","None"
"experimental",15,12,"ld","upper","throttle","w","w","g","g",1,0.937262713210657,"","None","None"
"experimental",15,13,"ld","upper","menarthe","nw","nw","h","h",1,0.881787294521928,"","None","None"
"experimental",15,14,"ld","upper","inversion","w","w","g","g",1,0.973211406962946,"","None","None"
"experimental",15,15,"ld","upper","implode","w","w","g","g",1,0.755894362460822,"","None","None"
"experimental",15,16,"ld","upper","measure","w","w","g","g",1,0.708129187813029,"","None","None"
"experimental",15,17,"ld","upper","chappef","nw","nw","h","h",1,0.759416926652193,"","None","None"
"experimental",15,18,"ld","upper","eaglot","nw","nw","h","h",1,1.22353163245134,"","None","None"
"experimental",15,19,"ld","upper","sefraud","nw","nw","h","h",1,0.700935079017654,"","None","None"
"experimental",15,20,"ld","upper","geborn","nw","nw","h","h",1,0.638857501093298,"","None","None"
"experimental",15,21,"ld","upper","machinery","w","w","g","g",1,0.770534854149446,"","None","None"
"experimental",15,22,"ld","upper","nature","w","w","g","g",1,0.681952629704028,"","None","None"
"experimental",15,23,"ld","upper","pexts","nw","nw","h","h",1,0.76531689055264,"","None","None"
"experimental",15,24,"ld","upper","enacted","w","w","g","g",1,0.973349793348461,"","None","None"
"experimental",15,25,"ld","upper","guitar","w","w","g","g",1,0.892706581158563,"","None","None"
"experimental",15,26,"ld","upper","draze","nw","nw","h","h",1,0.911458937916905,"","None","None"
"experimental",15,27,"ld","upper","lindo","nw","nw","h","h",1,2.55353662814014,"","None","None"
"experimental",15,28,"ld","upper","terrify","w","w","g","g",1,0.545493329875171,"","None","None"
"experimental",15,29,"ld","upper","parlayid","nw","nw","h","h",1,1.16999329300597,"","None","None"
"experimental",15,30,"ld","upper","squadroim","nw","nw","h","h",1,2.06541783316061,"","None","None"
"experimental",15,NA,NA,"","","","","","",NA,NA,"","",""
"experimental",16,1,"hd","lower","thamp","nw","nw","h","h",1,0.950174698373303,"","None","None"
"experimental",16,2,"hd","lower","prawls","nw","nw","h","h",1,0.686855416512117,"","None","None"
"experimental",16,3,"hd","lower","clattest","nw","nw","h","h",1,4.99277918436565,"","None","None"
"experimental",16,4,"hd","lower","gumdrep","nw","nw","h","h",1,1.08738419855945,"","None","None"
"experimental",16,5,"hd","lower","pariah","w","w","g","h",0,0.93816520483233,"","None","None"
"experimental",16,6,"hd","lower","bypassed","w","w","g","g",1,0.762908701552078,"","None","None"
"experimental",16,7,"hd","lower","paterways","nw","nw","h","h",1,1.05095876683481,"","None","None"
"experimental",16,8,"hd","lower","pircus","nw","nw","h","h",1,0.774013055022806,"","None","None"
"experimental",16,9,"hd","lower","rocket","w","w","g","h",0,0.87737018452026,"","None","None"
"experimental",16,10,"hd","lower","thesis","w","w","g","g",1,0.672773105790839,"","None","None"
"experimental",16,11,"hd","lower","thrapping","nw","nw","h","h",1,0.780109673272818,"","None","None"
"experimental",16,12,"hd","lower","runabouk","nw","nw","h","h",1,0.78773417067714,"","None","None"
"experimental",16,13,"hd","lower","caterpillar","target","target","q","g",0,0.818438084097579,"","None","None"
"experimental",16,14,"hd","lower","smolvers","aftertar1","nw","h","h",1,0.935573272872716,"","None","None"
"experimental",16,15,"hd","lower","leather","aftertar2","w","g","g",1,0.808297469746321,"","None","None"
"experimental",16,16,"hd","lower","courier","aftertar3","w","g","g",1,0.910399851156399,"","None","None"
"experimental",16,17,"hd","lower","divider","w","w","g","g",1,0.615365904988721,"","None","None"
"experimental",16,18,"hd","lower","trewl","w","nw","h","h",1,0.685403352137655,"","None","None"
"experimental",16,19,"hd","lower","telecast","nw","w","g","g",1,0.78432748047635,"","None","None"
"experimental",16,20,"hd","lower","poars","w","nw","h","h",1,1.38292169920169,"","None","None"
"experimental",16,21,"hd","lower","grieving","nw","w","g","g",1,0.750135764712468,"","None","None"
"experimental",16,22,"hd","lower","tracing","w","w","g","g",1,0.806831500260159,"","None","None"
"experimental",16,23,"hd","lower","volder","w","nw","h","h",1,0.764928216580302,"","None","None"
"experimental",16,24,"hd","lower","encounter","nw","w","g","g",1,0.676959792617708,"","None","None"
"experimental",16,25,"hd","lower","suburb","w","w","g","g",1,0.711398153798655,"","None","None"
"experimental",16,26,"hd","lower","acting","w","w","g","g",1,0.648851121542975,"","None","None"
"experimental",16,27,"hd","lower","ounwit","w","nw","h","h",1,0.694153480930254,"","None","None"
"experimental",16,28,"hd","lower","stuggard","nw","nw","h","g",0,0.672773105790839,"","None","None"
"experimental",16,29,"hd","lower","purpose","nw","w","g","g",1,1.14021074166521,"","None","None"
"experimental",16,30,"hd","lower","vivid","w","w","g","g",1,0.789019376737997,"","None","None"
"experimental",16,NA,NA,"","","","","","",NA,NA,"","",""
"experimental",17,1,"ld","upper","personify","w","w","g","g",1,0.85946767940186,"","None","None"
"experimental",17,2,"ld","upper","urgency","w","w","g","g",1,1.487551453989,"","None","None"
"experimental",17,3,"ld","upper","frogmy","nw","nw","h","h",1,1.42626678431407,"","None","None"
"experimental",17,4,"ld","upper","manage","w","w","g","g",1,2.59178094798699,"","None","None"
"experimental",17,5,"ld","upper","wienegs","nw","nw","h","h",1,0.678410201566294,"","None","None"
"experimental",17,6,"ld","upper","peadgear","nw","nw","h","h",1,6.0249947544653,"","None","None"
"experimental",17,7,"ld","upper","vented","w","w","g","g",1,0.862159593962133,"","None","None"
"experimental",17,8,"ld","upper","sopes","nw","nw","h","h",1,2.07454769685864,"","None","None"
"experimental",17,9,"ld","upper","topefuls","nw","nw","h","h",1,6.33331379969604,"","None","None"
"experimental",17,10,"ld","upper","guffy","nw","nw","h","h",1,0.862088414141908,"","None","None"
"experimental",17,11,"ld","upper","entitle","w","w","g","g",1,1.17946846061386,"","None","None"
"experimental",17,12,"ld","upper","showdown","w","w","g","g",1,2.10694667883217,"","None","None"
"experimental",17,13,"ld","upper","senalize","nw","nw","h","h",1,1.67708030133508,"","None","None"
"experimental",17,14,"ld","upper","system","w","w","g","g",1,2.00065065827221,"","None","None"
"experimental",17,15,"ld","upper","cogantly","nw","nw","h","h",1,1.20564468763769,"","None","None"
"experimental",17,16,"ld","upper","opert","nw","nw","h","g",0,2.53959800093435,"","None","None"
"experimental",17,17,"ld","upper","classify","w","w","g","g",1,0.67628110293299,"","None","None"
"experimental",17,18,"ld","upper","caution","w","w","g","g",1,0.863648075610399,"","None","None"
"experimental",17,19,"ld","upper","relaying","w","w","g","g",1,1.26771961688064,"","None","None"
"experimental",17,20,"ld","upper","helpful","w","w","g","g",1,1.69515562383458,"","None","None"
"experimental",17,21,"ld","upper","surfaced","w","w","g","g",1,0.737839235225692,"","None","None"
"experimental",17,22,"ld","upper","hustle","w","w","g","g",1,0.80960055347532,"","None","None"
"experimental",17,23,"ld","upper","hecture","nw","nw","h","h",1,0.855602459749207,"","None","None"
"experimental",17,24,"ld","upper","lifetime","w","w","g","g",1,0.651556940749288,"","None","None"
"experimental",17,25,"ld","upper","churnad","nw","nw","h","h",1,0.655547634931281,"","None","None"
"experimental",17,26,"ld","upper","kilotin","nw","nw","h","h",1,0.763656915165484,"","None","None"
"experimental",17,27,"ld","upper","gounts","nw","nw","h","h",1,0.659598252736032,"","None","None"
"experimental",17,28,"ld","upper","thorifies","nw","nw","h","h",1,0.711655724793673,"","None","None"
"experimental",17,29,"ld","upper","mankind","w","w","g","g",1,0.889408812159672,"","None","None"
"experimental",17,30,"ld","upper","grolific","nw","nw","h","h",1,0.963657776126638,"","None","None"
"experimental",17,NA,NA,"","","","","","",NA,NA,"","",""
"experimental",18,1,"ld","upper","gigglod","nw","nw","h","h",1,1.55636295629665,"","None","None"
"experimental",18,2,"ld","upper","decency","w","w","g","g",1,0.75646975892596,"","None","None"
"experimental",18,3,"ld","upper","itfidels","nw","nw","h","h",1,0.756446914980188,"","None","None"
"experimental",18,4,"ld","upper","suddenly","w","w","g","g",1,0.99653184064664,"","None","None"
"experimental",18,5,"ld","upper","forbid","w","w","g","g",1,0.762222728459165,"","None","None"
"experimental",18,6,"ld","upper","wrestle","w","w","g","g",1,0.674218548927456,"","None","None"
"experimental",18,7,"ld","upper","plashed","nw","nw","h","h",1,0.997600528411567,"","None","None"
"experimental",18,8,"ld","upper","ignoble","w","w","g","h",0,1.43629913963377,"","None","None"
"experimental",18,9,"ld","upper","parody","w","w","g","g",1,0.889460127567872,"","None","None"
"experimental",18,10,"ld","upper","erony","nw","nw","h","h",1,0.796408484689891,"","None","None"
"experimental",18,11,"ld","upper","kettle","w","w","g","g",1,0.819103199988604,"","None","None"
"experimental",18,12,"ld","upper","butterfly","target","target","q","g",0,0.76845376030542,"","None","None"
"experimental",18,13,"ld","upper","ludictous","aftertar1","nw","h","h",1,0.726929880445823,"","None","None"
"experimental",18,14,"ld","upper","harmful","aftertar2","w","g","g",1,1.08816353278235,"","None","None"
"experimental",18,15,"ld","upper","hackal","aftertar3","nw","h","h",1,0.770863273646683,"","None","None"
"experimental",18,16,"ld","upper","pastnoss","nw","nw","h","h",1,0.754248623270541,"","None","None"
"experimental",18,17,"ld","upper","tasher","nw","nw","h","h",1,0.666352372150868,"","None","None"
"experimental",18,18,"ld","upper","punctual","nw","w","g","h",0,0.526234439108521,"","None","None"
"experimental",18,19,"ld","upper","rainfall","w","w","g","g",1,0.639674576930702,"","None","None"
"experimental",18,20,"ld","upper","virulent","w","w","g","g",1,0.787280276184902,"","None","None"
"experimental",18,21,"ld","upper","veirs","w","nw","h","h",1,1.163039870793,"","None","None"
"experimental",18,22,"ld","upper","atsless","nw","nw","h","h",1,0.714125823462382,"","None","None"
"experimental",18,23,"ld","upper","lonnote","nw","nw","h","h",1,0.900148659944534,"","None","None"
"experimental",18,24,"ld","upper","whirling","nw","w","g","g",1,1.05498521658592,"","None","None"
"experimental",18,25,"ld","upper","beartiset","w","nw","h","h",1,1.31505738268606,"","None","None"
"experimental",18,26,"ld","upper","roaned","nw","nw","h","h",1,0.973076662281528,"","None","None"
"experimental",18,27,"ld","upper","target","nw","w","g","g",1,1.01249660458416,"","None","None"
"experimental",18,28,"ld","upper","assent","w","w","g","g",1,1.72256541042589,"","None","None"
"experimental",18,29,"ld","upper","misobeyed","w","nw","h","g",0,0.794873984297737,"","None","None"
"experimental",18,30,"ld","upper","other","nw","w","g","g",1,0.698179599596187,"","None","None"
"experimental",18,NA,NA,"","","","","","",NA,NA,"","",""
"experimental",19,1,"ld","upper","shazer","nw","nw","h","h",1,11.3893103194423,"","None","None"
"experimental",19,2,"ld","upper","portify","nw","nw","h","h",1,3.56379311671481,"","None","None"
"experimental",19,3,"ld","upper","irfirm","nw","nw","h","h",1,0.787387873511761,"","None","None"
"experimental",19,4,"ld","upper","gonesty","nw","nw","h","h",1,3.61864480306394,"","None","None"
"experimental",19,5,"ld","upper","efficient","w","w","g","g",1,0.86309088836424,"","None","None"
"experimental",19,6,"ld","upper","worps","nw","nw","h","h",1,0.731096040923148,"","None","None"
"experimental",19,7,"ld","upper","scarlet","w","w","g","g",1,0.588466956745833,"","None","None"
"experimental",19,8,"ld","upper","restock","w","w","g","g",1,0.691106661688536,"","None","None"
"experimental",19,9,"ld","upper","robbery","w","w","g","g",1,0.565921884030104,"","None","None"
"experimental",19,10,"ld","upper","baseline","w","w","g","g",1,0.589914386160672,"","None","None"
"experimental",19,11,"ld","upper","dumult","nw","nw","h","h",1,0.700438476866111,"","None","None"
"experimental",19,12,"ld","upper","optional","w","w","g","g",1,0.605998334474862,"","None","None"
"experimental",19,13,"ld","upper","splum","nw","nw","h","h",1,0.731400623684749,"","None","None"
"experimental",19,14,"ld","upper","dredigest","nw","nw","h","h",1,0.797103065531701,"","None","None"
"experimental",19,15,"ld","upper","funtair","nw","nw","h","h",1,0.643757308134809,"","None","None"
"experimental",19,16,"ld","upper","inverted","w","w","g","h",0,0.448698300402611,"","None","None"
"experimental",19,17,"ld","upper","iguana","w","w","g","g",1,0.693261252483353,"","None","None"
"experimental",19,18,"ld","upper","rualify","nw","nw","h","h",1,1.03998584719375,"","None","None"
"experimental",19,19,"ld","upper","fuhrek","nw","nw","h","h",1,0.628639416536316,"","None","None"
"experimental",19,20,"ld","upper","phambled","nw","nw","h","h",1,0.818030539434403,"","None","None"
"experimental",19,21,"ld","upper","arrigns","nw","nw","h","h",1,0.959254901856184,"","None","None"
"experimental",19,22,"ld","upper","owner","w","w","g","g",1,0.750279779545963,"","None","None"
"experimental",19,23,"ld","upper","clarms","nw","nw","h","h",1,3.14303938718513,"","None","None"
"experimental",19,24,"ld","upper","moisture","w","w","g","g",1,0.695650239707902,"","None","None"
"experimental",19,25,"ld","upper","accessory","w","w","g","g",1,2.61746123479679,"","None","None"
"experimental",19,26,"ld","upper","moral","w","w","g","g",1,2.54388102842495,"","None","None"
"experimental",19,27,"ld","upper","retreat","w","w","g","g",1,5.00768254394643,"","None","None"
"experimental",19,28,"ld","upper","oppose","w","w","g","g",1,2.08581526693888,"","None","None"
"experimental",19,29,"ld","upper","currowing","nw","nw","h","h",1,1.16876105754636,"","None","None"
"experimental",19,30,"ld","upper","colicky","w","w","g","h",0,2.06388200842775,"","None","None"
"experimental",19,NA,NA,"","","","","","",NA,NA,"","",""
"experimental",20,1,"hd","lower","legalosm","nw","nw","h","h",1,0.84376810118556,"","None","None"
"experimental",20,2,"hd","lower","rivet","w","w","g","g",1,1.31251246272586,"","None","None"
"experimental",20,3,"hd","lower","eugenifs","nw","nw","h","h",1,0.842512691160664,"","None","None"
"experimental",20,4,"hd","lower","presence","w","w","g","g",1,0.6152348020114,"","None","None"
"experimental",20,5,"hd","lower","farochial","nw","nw","h","h",1,0.869199093664065,"","None","None"
"experimental",20,6,"hd","lower","twenties","w","w","g","g",1,0.75266611808911,"","None","None"
"experimental",20,7,"hd","lower","tinion","nw","nw","h","h",1,2.38378942850977,"","None","None"
"experimental",20,8,"hd","lower","reforest","w","w","g","g",1,0.678289361763746,"","None","None"
"experimental",20,9,"hd","lower","marinate","w","w","g","g",1,0.641032618237659,"","None","None"
"experimental",20,10,"hd","lower","butler","w","w","g","g",1,0.598124211886898,"","None","None"
"experimental",20,11,"hd","lower","pressures","w","w","g","g",1,0.572859084233642,"","None","None"
"experimental",20,12,"hd","lower","gewer","nw","nw","h","h",1,0.65254550985992,"","None","None"
"experimental",20,13,"hd","lower","brials","nw","nw","h","g",0,0.408621850190684,"","None","None"
"experimental",20,14,"hd","lower","seartfelt","nw","nw","h","h",1,0.846623562974855,"","None","None"
"experimental",20,15,"hd","lower","peems","nw","nw","h","h",1,0.858368202345446,"","None","None"
"experimental",20,16,"hd","lower","pamine","nw","nw","h","h",1,2.21452757460065,"","None","None"
"experimental",20,17,"hd","lower","gepealed","nw","nw","h","h",1,0.772514641052112,"","None","None"
"experimental",20,18,"hd","lower","minister","w","w","g","g",1,1.75599533831701,"","None","None"
"experimental",20,19,"hd","lower","huests","nw","nw","h","h",1,2.19607549649663,"","None","None"
"experimental",20,20,"hd","lower","porghum","nw","nw","h","h",1,0.818669831845909,"","None","None"
"experimental",20,21,"hd","lower","bullet","w","w","g","g",1,0.847057924373075,"","None","None"
"experimental",20,22,"hd","lower","unmarked","w","w","g","g",1,0.835846966831014,"","None","None"
"experimental",20,23,"hd","lower","setwixt","nw","nw","h","h",1,0.848485820926726,"","None","None"
"experimental",20,24,"hd","lower","ordinary","w","w","g","g",1,0.653218240244314,"","None","None"
"experimental",20,25,"hd","lower","giraffe","target","target","q","g",0,0.665498878573999,"","None","None"
"experimental",20,26,"hd","lower","handcuff","aftertar1","w","g","g",1,0.694025026401505,"","None","None"
"experimental",20,27,"hd","lower","emission","aftertar2","w","g","g",1,0.616562054026872,"","None","None"
"experimental",20,28,"hd","lower","pakened","aftertar3","nw","h","h",1,1.46259852382354,"","None","None"
"experimental",20,29,"hd","lower","oldest","nw","w","g","g",1,0.794563111383468,"","None","None"
"experimental",20,30,"hd","lower","painter","w","w","g","g",1,0.856367889326066,"","None","None"
"experimental",20,NA,NA,"","","","","","",NA,NA,"","",""
"experimental",21,1,"hd","lower","miracle","w","w","g","g",1,0.630388780264184,"","None","None"
"experimental",21,2,"hd","lower","slooping","nw","nw","h","h",1,0.707806396530941,"","None","None"
"experimental",21,3,"hd","lower","boulder","w","w","g","h",0,1.24589991453104,"","None","None"
"experimental",21,4,"hd","lower","cegalia","nw","nw","h","h",1,2.44992159679532,"","None","None"
"experimental",21,5,"hd","lower","trallion","nw","nw","h","h",1,3.17441768641584,"","None","None"
"experimental",21,6,"hd","lower","sliding","w","w","g","h",0,4.2939319300931,"","None","None"
"experimental",21,7,"hd","lower","itself","w","w","g","g",1,0.560521502047777,"","None","None"
"experimental",21,8,"hd","lower","typical","w","w","g","g",1,1.28855935786851,"","None","None"
"experimental",21,9,"hd","lower","pegend","nw","nw","h","h",1,0.826425101142377,"","None","None"
"experimental",21,10,"hd","lower","splinging","nw","nw","h","h",1,1.66303076618351,"","None","None"
"experimental",21,11,"hd","lower","reconcile","w","w","g","g",1,0.875689020846039,"","None","None"
"experimental",21,12,"hd","lower","alber","nw","nw","h","h",1,0.623151301406324,"","None","None"
"experimental",21,13,"hd","lower","glamorous","w","w","g","g",1,0.988527277251706,"","None","None"
"experimental",21,14,"hd","lower","pillage","w","w","g","h",0,1.05984099162742,"","None","None"
"experimental",21,15,"hd","lower","grefab","nw","nw","h","h",1,0.855883867712691,"","None","None"
"experimental",21,16,"hd","lower","mitten","w","w","g","g",1,1.0998803623952,"","None","None"
"experimental",21,17,"hd","lower","aviation","w","w","g","g",1,0.989531406667084,"","None","None"
"experimental",21,18,"hd","lower","flacked","nw","nw","h","h",1,0.72284615621902,"","None","None"
"experimental",21,19,"hd","lower","holdup","w","w","g","g",1,0.725670497631654,"","None","None"
"experimental",21,20,"hd","lower","outrank","w","w","g","g",1,1.06299309059978,"","None","None"
"experimental",21,21,"hd","lower","pracking","nw","nw","h","h",1,1.13913642591797,"","None","None"
"experimental",21,22,"hd","lower","expensive","w","w","g","g",1,0.715923191746697,"","None","None"
"experimental",21,23,"hd","lower","pregs","nw","nw","h","h",1,0.693950867280364,"","None","None"
"experimental",21,24,"hd","lower","irregular","w","w","g","g",1,0.60861079255119,"","None","None"
"experimental",21,25,"hd","lower","student","w","w","g","g",1,0.637681547319517,"","None","None"
"experimental",21,26,"hd","lower","lasprey","nw","nw","h","h",1,1.09039360727184,"","None","None"
"experimental",21,27,"hd","lower","birn","nw","nw","h","h",1,0.893119091866538,"","None","None"
"experimental",21,28,"hd","lower","finstrel","nw","nw","h","h",1,0.919813440181315,"","None","None"
"experimental",21,29,"hd","lower","moyeur","nw","nw","h","h",1,0.873206010553986,"","None","None"
"experimental",21,30,"hd","lower","horks","nw","nw","h","h",1,0.660532195586711,"","None","None"
"experimental",21,NA,NA,"","","","","","",NA,NA,"","",""
"experimental",22,1,"hd","lower","trembla","nw","nw","h","h",1,1.57711529522203,"","None","None"
"experimental",22,2,"hd","lower","filter","w","w","g","g",1,2.55255070747808,"","None","None"
"experimental",22,3,"hd","lower","movie","w","w","g","g",1,1.96057056635618,"","None","None"
"experimental",22,4,"hd","lower","ephically","nw","nw","h","h",1,1.72061707475223,"","None","None"
"experimental",22,5,"hd","lower","sarlock","nw","nw","h","h",1,0.79392812284641,"","None","None"
"experimental",22,6,"hd","lower","sullen","w","w","g","g",1,0.807537337532267,"","None","None"
"experimental",22,7,"hd","lower","country","w","w","g","g",1,1.71708193025552,"","None","None"
"experimental",22,8,"hd","lower","downtrund","nw","nw","h","h",1,0.983652299968526,"","None","None"
"experimental",22,9,"hd","lower","rationale","w","w","g","g",1,0.75901467888616,"","None","None"
"experimental",22,10,"hd","lower","oleandur","nw","nw","h","h",1,4.37516477471218,"","None","None"
"experimental",22,11,"hd","lower","tusied","nw","nw","h","h",1,0.670598319731653,"","None","None"
"experimental",22,12,"hd","lower","dreaded","w","w","g","g",1,0.881011932855472,"","None","None"
"experimental",22,13,"hd","lower","pretzel","w","w","g","g",1,1.33244044193998,"","None","None"
"experimental",22,14,"hd","lower","gorilla","target","target","q","g",0,0.773809448350221,"","None","None"
"experimental",22,15,"hd","lower","ofsters","aftertar1","nw","h","h",1,0.717291827313602,"","None","None"
"experimental",22,16,"hd","lower","adok","aftertar2","nw","h","h",1,0.90254757902585,"","None","None"
"experimental",22,17,"hd","lower","potent","aftertar3","w","g","g",1,0.704539747908711,"","None","None"
"experimental",22,18,"hd","lower","record","w","w","g","g",1,0.634589040651917,"","None","None"
"experimental",22,19,"hd","lower","crudios","w","nw","h","h",1,0.759304363513365,"","None","None"
"experimental",22,20,"hd","lower","vorm","nw","nw","h","h",1,1.22236627270468,"","None","None"
"experimental",22,21,"hd","lower","hotplate","nw","w","g","g",1,0.723719844827428,"","None","None"
"experimental",22,22,"hd","lower","fomes","w","nw","h","h",1,1.71731069823727,"","None","None"
"experimental",22,23,"hd","lower","arpired","nw","nw","h","h",1,1.00642084353603,"","None","None"
"experimental",22,24,"hd","lower","eightiech","nw","nw","h","h",1,1.10851726587862,"","None","None"
"experimental",22,25,"hd","lower","potter","nw","w","g","g",1,0.758525691460818,"","None","None"
"experimental",22,26,"hd","lower","stifle","w","w","g","h",0,1.10250308341347,"","None","None"
"experimental",22,27,"hd","lower","digest","w","w","g","g",1,0.560679752612486,"","None","None"
"experimental",22,28,"hd","lower","resonant","w","w","g","g",1,2.15084597188979,"","None","None"
"experimental",22,29,"hd","lower","ipiocy","w","nw","h","h",1,1.25638748821802,"","None","None"
"experimental",22,30,"hd","lower","miteous","nw","nw","h","h",1,0.932538703083992,"","None","None"
"experimental",22,NA,NA,"","","","","","",NA,NA,"","",""
"experimental",23,1,"hd","lower","nimp","nw","nw","h","h",1,0.958744726143777,"","None","None"
"experimental",23,2,"hd","lower","graciap","nw","nw","h","h",1,0.669807067140937,"","None","None"
"experimental",23,3,"hd","lower","coupling","w","w","g","h",0,1.01719280495308,"","None","None"
"experimental",23,4,"hd","lower","exemplify","w","w","g","g",1,0.750536025967449,"","None","None"
"experimental",23,5,"hd","lower","create","w","w","g","g",1,0.694586517987773,"","None","None"
"experimental",23,6,"hd","lower","triangle","w","w","g","g",1,0.521279012318701,"","None","None"
"experimental",23,7,"hd","lower","scrooner","nw","nw","h","h",1,0.762707080924883,"","None","None"
"experimental",23,8,"hd","lower","garment","w","w","g","g",1,0.794708119239658,"","None","None"
"experimental",23,9,"hd","lower","markot","nw","nw","h","h",1,1.94547618064098,"","None","None"
"experimental",23,10,"hd","lower","veclors","nw","nw","h","h",1,1.79316401784308,"","None","None"
"experimental",23,11,"hd","lower","dontrite","nw","nw","h","h",1,0.647777798818424,"","None","None"
"experimental",23,12,"hd","lower","congraks","nw","nw","h","h",1,2.12329713697545,"","None","None"
"experimental",23,13,"hd","lower","carnival","w","w","g","g",1,0.702253060881048,"","None","None"
"experimental",23,14,"hd","lower","fabstand","nw","nw","h","h",1,3.27206488489173,"","None","None"
"experimental",23,15,"hd","lower","triplet","w","w","g","g",1,0.690864650765434,"","None","None"
"experimental",23,16,"hd","lower","culinary","w","w","g","g",1,0.613180524669588,"","None","None"
"experimental",23,17,"hd","lower","happen","w","w","g","g",1,0.587181088514626,"","None","None"
"experimental",23,18,"hd","lower","pripend","nw","nw","h","h",1,0.697740272386,"","None","None"
"experimental",23,19,"hd","lower","brother","w","w","g","g",1,0.716719079529867,"","None","None"
"experimental",23,20,"hd","lower","lutton","nw","nw","h","h",1,0.654626603703946,"","None","None"
"experimental",23,21,"hd","lower","chicken","target","target","q","g",0,0.578701442107558,"","None","None"
"experimental",23,22,"hd","lower","huzzles","aftertar1","nw","h","h",1,1.17007606010884,"","None","None"
"experimental",23,23,"hd","lower","cervical","aftertar2","w","g","g",1,0.713460376719013,"","None","None"
"experimental",23,24,"hd","lower","intrude","aftertar3","w","g","g",1,0.82750239642337,"","None","None"
"experimental",23,25,"hd","lower","elderly","w","w","g","g",1,0.551804811228067,"","None","None"
"experimental",23,26,"hd","lower","dentures","w","w","g","g",1,0.663889556890354,"","None","None"
"experimental",23,27,"hd","lower","kickoff","w","w","g","g",1,0.619942920980975,"","None","None"
"experimental",23,28,"hd","lower","joadbed","w","nw","h","h",1,0.77727937255986,"","None","None"
"experimental",23,29,"hd","lower","hasks","nw","nw","h","h",1,3.68876468623057,"","None","None"
"experimental",23,30,"hd","lower","reddar","nw","nw","h","h",1,0.803489699261263,"","None","None"
"experimental",23,NA,NA,"","","","","","",NA,NA,"","",""
"experimental",24,1,"ld","upper","recipus","nw","nw","h","h",1,0.71332596312277,"","None","None"
"experimental",24,2,"ld","upper","daylight","w","w","g","g",1,4.08334583044052,"","None","None"
"experimental",24,3,"ld","upper","brimitar","nw","nw","h","h",1,0.685103404568508,"","None","None"
"experimental",24,4,"ld","upper","criminal","w","w","g","g",1,0.745218742173165,"","None","None"
"experimental",24,5,"ld","upper","religious","w","w","g","g",1,0.554091167170554,"","None","None"
"experimental",24,6,"ld","upper","glocked","nw","nw","h","h",1,2.37721938290633,"","None","None"
"experimental",24,7,"ld","upper","talate","nw","nw","h","h",1,1.13631605706178,"","None","None"
"experimental",24,8,"ld","upper","analysis","w","w","g","g",1,1.09738013637252,"","None","None"
"experimental",24,9,"ld","upper","snocks","nw","nw","h","h",1,1.7720693545416,"","None","None"
"experimental",24,10,"ld","upper","deadly","w","w","g","g",1,3.47553898068145,"","None","None"
"experimental",24,11,"ld","upper","glattery","nw","nw","h","h",1,0.773920687148347,"","None","None"
"experimental",24,12,"ld","upper","obviously","w","w","g","g",1,0.98127291421406,"","None","None"
"experimental",24,13,"ld","upper","perishing","w","w","g","h",0,1.93286248762161,"","None","None"
"experimental",24,14,"ld","upper","paranoid","w","w","g","g",1,0.805360895814374,"","None","None"
"experimental",24,15,"ld","upper","angry","w","w","g","g",1,0.523403807077557,"","None","None"
"experimental",24,16,"ld","upper","browting","nw","nw","h","h",1,0.684747175313532,"","None","None"
"experimental",24,17,"ld","upper","female","w","w","g","g",1,0.807446293532848,"","None","None"
"experimental",24,18,"ld","upper","bropic","nw","nw","h","h",1,0.613594028865919,"","None","None"
"experimental",24,19,"ld","upper","brouhuha","nw","nw","h","h",1,0.930610562674701,"","None","None"
"experimental",24,20,"ld","upper","distrust","w","w","g","g",1,0.715905314078555,"","None","None"
"experimental",24,21,"ld","upper","issue","w","w","g","g",1,0.581975043052807,"","None","None"
"experimental",24,22,"ld","upper","surface","w","w","g","g",1,0.725203360663727,"","None","None"
"experimental",24,23,"ld","upper","prame","nw","nw","h","h",1,1.37454534647986,"","None","None"
"experimental",24,24,"ld","upper","togglo","nw","nw","h","h",1,1.09358278592117,"","None","None"
"experimental",24,25,"ld","upper","gunrunker","nw","nw","h","h",1,1.19228079449385,"","None","None"
"experimental",24,26,"ld","upper","loached","nw","nw","h","h",1,0.943404025398195,"","None","None"
"experimental",24,27,"ld","upper","preight","nw","nw","h","h",1,0.855077385902405,"","None","None"
"experimental",24,28,"ld","upper","aqueduct","w","w","g","g",1,1.05125838355161,"","None","None"
"experimental",24,29,"ld","upper","bamboo","w","w","g","g",1,1.32733073784038,"","None","None"
"experimental",24,30,"ld","upper","frigs","nw","nw","h","h",1,0.912667336175218,"","None","None"
"experimental",24,NA,NA,"","","","","","",NA,NA,"","",""
"experimental",25,1,"ld","upper","puyer","nw","nw","h","h",1,1.10661561088637,"","None","None"
"experimental",25,2,"ld","upper","butcher","w","w","g","g",1,0.844350780826062,"","None","None"
"experimental",25,3,"ld","upper","border","w","w","g","g",1,0.561278654728085,"","None","None"
"experimental",25,4,"ld","upper","abhorrent","w","w","g","h",0,1.04936268785968,"","None","None"
"experimental",25,5,"ld","upper","antique","w","w","g","g",1,0.902014890685678,"","None","None"
"experimental",25,6,"ld","upper","gaioty","nw","nw","h","h",1,0.69605281832628,"","None","None"
"experimental",25,7,"ld","upper","blipover","nw","nw","h","h",1,0.618767629377544,"","None","None"
"experimental",25,8,"ld","upper","latpin","nw","nw","h","h",1,0.7200923319906,"","None","None"
"experimental",25,9,"ld","upper","deceit","w","w","g","g",1,0.985239440342411,"","None","None"
"experimental",25,10,"ld","upper","flieves","nw","nw","h","h",1,0.871267938287929,"","None","None"
"experimental",25,11,"ld","upper","sheerio","nw","nw","h","h",1,0.778518229257315,"","None","None"
"experimental",25,12,"ld","upper","dricked","nw","nw","h","h",1,0.697958446107805,"","None","None"
"experimental",25,13,"ld","upper","plartly","nw","nw","h","h",1,1.05264059267938,"","None","None"
"experimental",25,14,"ld","upper","begut","nw","nw","h","h",1,0.584736812859774,"","None","None"
"experimental",25,15,"ld","upper","shillac","nw","nw","h","h",1,0.463878432987258,"","None","None"
"experimental",25,16,"ld","upper","destroy","w","w","g","g",1,0.61209660815075,"","None","None"
"experimental",25,17,"ld","upper","posing","w","w","g","g",1,0.562121885130182,"","None","None"
"experimental",25,18,"ld","upper","handbook","w","w","g","g",1,0.650160826509818,"","None","None"
"experimental",25,19,"ld","upper","smallash","nw","nw","h","h",1,0.805987607687712,"","None","None"
"experimental",25,20,"ld","upper","felevance","nw","nw","h","h",1,0.932148373918608,"","None","None"
"experimental",25,21,"ld","upper","daining","nw","nw","h","h",1,1.43743900675327,"","None","None"
"experimental",25,22,"ld","upper","matter","w","w","g","g",1,0.722170777153224,"","None","None"
"experimental",25,23,"ld","upper","potatoes","w","w","g","g",1,0.731509875971824,"","None","None"
"experimental",25,24,"ld","upper","insole","w","w","g","h",0,0.988841791870072,"","None","None"
"experimental",25,25,"ld","upper","integral","w","w","g","g",1,0.667573019862175,"","None","None"
"experimental",25,26,"ld","upper","newstrint","nw","nw","h","h",1,4.29407329624519,"","None","None"
"experimental",25,27,"ld","upper","mixture","w","w","g","g",1,1.78503695921972,"","None","None"
"experimental",25,28,"ld","upper","recount","w","w","g","g",1,0.695583695080131,"","None","None"
"experimental",25,29,"ld","upper","crazy","w","w","g","g",1,0.506179329473525,"","None","None"
"experimental",25,30,"ld","upper","mubby","nw","nw","h","h",1,0.596241096733138,"","None","None"
"experimental",25,NA,NA,"","","","","","",NA,NA,"","",""
"experimental",26,1,"hd","lower","sazer","nw","nw","h","h",1,0.754735293332487,"","None","None"
"experimental",26,2,"hd","lower","riosk","nw","nw","h","h",1,0.754751515574753,"","None","None"
"experimental",26,3,"hd","lower","shivering","w","w","g","g",1,1.00985931651667,"","None","None"
"experimental",26,4,"hd","lower","advantage","w","w","g","g",1,0.768817935138941,"","None","None"
"experimental",26,5,"hd","lower","lentils","w","w","g","g",1,0.872859382303432,"","None","None"
"experimental",26,6,"hd","lower","mounting","w","w","g","h",0,0.388222429901362,"","None","None"
"experimental",26,7,"hd","lower","undimmec","nw","nw","h","h",1,0.667038676096126,"","None","None"
"experimental",26,8,"hd","lower","abstain","w","w","g","g",1,0.806353107094765,"","None","None"
"experimental",26,9,"hd","lower","phonology","w","w","g","g",1,0.619487702380866,"","None","None"
"experimental",26,10,"hd","lower","edasion","nw","nw","h","h",1,0.71273964154534,"","None","None"
"experimental",26,11,"hd","lower","rejoiced","w","w","g","g",1,0.826736635994166,"","None","None"
"experimental",26,12,"hd","lower","aicline","nw","nw","h","h",1,1.9917939256411,"","None","None"
"experimental",26,13,"hd","lower","zears","nw","nw","h","h",1,0.646839551860467,"","None","None"
"experimental",26,14,"hd","lower","standard","w","w","g","g",1,0.779578971210867,"","None","None"
"experimental",26,15,"hd","lower","perform","w","w","g","g",1,0.803105991566554,"","None","None"
"experimental",26,16,"hd","lower","butled","nw","nw","h","g",0,2.99944126675837,"","None","None"
"experimental",26,17,"hd","lower","partner","w","w","g","h",0,1.57475014496595,"","None","None"
"experimental",26,18,"hd","lower","bumbo","nw","nw","h","h",1,0.958181579364464,"","None","None"
"experimental",26,19,"hd","lower","grenavier","nw","nw","h","h",1,0.710196707863361,"","None","None"
"experimental",26,20,"hd","lower","hodels","nw","nw","h","h",1,1.03216304024681,"","None","None"
"experimental",26,21,"hd","lower","temelity","nw","nw","h","h",1,0.733373458264396,"","None","None"
"experimental",26,22,"hd","lower","rabbit","target","target","q","g",0,0.814885723870248,"","None","None"
"experimental",26,23,"hd","lower","tharcely","aftertar1","nw","h","h",1,1.2279821804259,"","None","None"
"experimental",26,24,"hd","lower","etcess","aftertar2","nw","h","h",1,1.54531951923855,"","None","None"
"experimental",26,25,"hd","lower","tragedy","aftertar3","w","g","g",1,12.6715160403401,"","None","None"
"experimental",26,26,"hd","lower","medium","w","w","g","g",1,0.724821307929233,"","None","None"
"experimental",26,27,"hd","lower","trophy","w","w","g","g",1,1.84621403203346,"","None","None"
"experimental",26,28,"hd","lower","vopings","w","nw","h","h",1,0.914957334054634,"","None","None"
"experimental",26,29,"hd","lower","esdings","nw","nw","h","h",1,32.8524387734942,"","None","None"
"experimental",26,30,"hd","lower","planar","nw","w","g","g",1,0.863780834013596,"","None","None"
"experimental",26,NA,NA,"","","","","","",NA,NA,"","",""
"experimental",27,1,"ld","upper","railway","w","w","g","g",1,0.827592115849257,"","None","None"
"experimental",27,2,"ld","upper","hinsome","nw","nw","h","h",1,0.728992765536532,"","None","None"
"experimental",27,3,"ld","upper","located","w","w","g","g",1,0.626306711230427,"","None","None"
"experimental",27,4,"ld","upper","egpended","nw","nw","h","h",1,1.31975192786194,"","None","None"
"experimental",27,5,"ld","upper","inforl","nw","nw","h","h",1,0.737085062079132,"","None","None"
"experimental",27,6,"ld","upper","chraps","nw","nw","h","h",1,0.697787946090102,"","None","None"
"experimental",27,7,"ld","upper","godomy","nw","nw","h","h",1,0.771547260228544,"","None","None"
"experimental",27,8,"ld","upper","vibrate","w","w","g","g",1,0.706917147617787,"","None","None"
"experimental",27,9,"ld","upper","collision","w","w","g","g",1,0.708960830699652,"","None","None"
"experimental",27,10,"ld","upper","guivers","nw","nw","h","h",1,1.56720642838627,"","None","None"
"experimental",27,11,"ld","upper","hangar","w","w","g","g",1,0.982364114373922,"","None","None"
"experimental",27,12,"ld","upper","duplex","w","w","g","g",1,1.34985064901412,"","None","None"
"experimental",27,13,"ld","upper","dishwater","w","w","g","g",1,0.852794671664014,"","None","None"
"experimental",27,14,"ld","upper","rasuals","nw","nw","h","h",1,0.730335908709094,"","None","None"
"experimental",27,15,"ld","upper","saucer","w","w","g","g",1,0.659207261400297,"","None","None"
"experimental",27,16,"ld","upper","scack","nw","nw","h","h",1,0.84758564690128,"","None","None"
"experimental",27,17,"ld","upper","revising","w","w","g","h",0,0.659886944107711,"","None","None"
"experimental",27,18,"ld","upper","filny","nw","nw","h","h",1,0.872232670430094,"","None","None"
"experimental",27,19,"ld","upper","cobalt","w","w","g","g",1,0.723642043536529,"","None","None"
"experimental",27,20,"ld","upper","ecistle","nw","nw","h","h",1,0.741056554252282,"","None","None"
"experimental",27,21,"ld","upper","fillings","w","w","g","g",1,0.789768252754584,"","None","None"
"experimental",27,22,"ld","upper","volition","w","w","g","g",1,2.02854579058476,"","None","None"
"experimental",27,23,"ld","upper","frader","nw","nw","h","h",1,0.768930167192593,"","None","None"
"experimental",27,24,"ld","upper","alchemist","w","w","g","g",1,0.600245033856481,"","None","None"
"experimental",27,25,"ld","upper","widely","w","w","g","g",1,0.583036116091534,"","None","None"
"experimental",27,26,"ld","upper","fallint","nw","nw","h","h",1,0.6783390219789,"","None","None"
"experimental",27,27,"ld","upper","season","w","w","g","g",1,0.625556179787964,"","None","None"
"experimental",27,28,"ld","upper","peags","nw","nw","h","h",1,0.719100452028215,"","None","None"
"experimental",27,29,"ld","upper","appain","nw","nw","h","h",1,0.824448624858633,"","None","None"
"experimental",27,30,"ld","upper","impirt","nw","nw","h","h",1,0.7018213479314,"","None","None"
"experimental",27,NA,NA,"","","","","","",NA,NA,"","",""
"experimental",28,1,"ld","upper","flougy","nw","nw","h","h",1,0.734975827392191,"","None","None"
"experimental",28,2,"ld","upper","statute","w","w","g","g",1,0.831706298515201,"","None","None"
"experimental",28,3,"ld","upper","servant","w","w","g","g",1,0.749099190812558,"","None","None"
"experimental",28,4,"ld","upper","donastic","nw","nw","h","h",1,0.733726376667619,"","None","None"
"experimental",28,5,"ld","upper","arrival","w","w","g","g",1,0.678377757081762,"","None","None"
"experimental",28,6,"ld","upper","euphoric","w","w","g","g",1,0.634110647253692,"","None","None"
"experimental",28,7,"ld","upper","dabble","w","w","g","g",1,1.04609074210748,"","None","None"
"experimental",28,8,"ld","upper","peahem","nw","nw","h","h",1,0.674883333733305,"","None","None"
"experimental",28,9,"ld","upper","vintnel","nw","nw","h","h",1,0.678281085100025,"","None","None"
"experimental",28,10,"ld","upper","jinds","nw","nw","h","h",1,0.67361534317024,"","None","None"
"experimental",28,11,"ld","upper","reloant","nw","nw","h","h",1,0.701086045941338,"","None","None"
"experimental",28,12,"ld","upper","elvisages","nw","nw","h","h",1,0.575085185933858,"","None","None"
"experimental",28,13,"ld","upper","deserve","w","w","g","g",1,0.686575995292515,"","None","None"
"experimental",28,14,"ld","upper","lizard","target","target","q","g",0,0.817188302287832,"","None","None"
"experimental",28,15,"ld","upper","gairs","aftertar1","nw","h","h",1,0.822573455283418,"","None","None"
"experimental",28,16,"ld","upper","chiffol","aftertar2","nw","h","h",1,0.715127304429188,"","None","None"
"experimental",28,17,"ld","upper","outfit","aftertar3","w","g","g",1,0.732959291897714,"","None","None"
"experimental",28,18,"ld","upper","pallir","w","nw","h","h",1,0.678271815180779,"","None","None"
"experimental",28,19,"ld","upper","even","nw","w","g","g",1,0.689977719681337,"","None","None"
"experimental",28,20,"ld","upper","kiner","w","nw","h","h",1,1.14038124191575,"","None","None"
"experimental",28,21,"ld","upper","sodent","nw","nw","h","g",0,0.845063239336014,"","None","None"
"experimental",28,22,"ld","upper","budget","nw","w","g","g",1,0.64979234803468,"","None","None"
"experimental",28,23,"ld","upper","educate","w","w","g","g",1,0.654476298717782,"","None","None"
"experimental",28,24,"ld","upper","exit","w","w","g","g",1,0.786521137226373,"","None","None"
"experimental",28,25,"ld","upper","airline","w","w","g","g",1,0.848218980012462,"","None","None"
"experimental",28,26,"ld","upper","uncarled","w","nw","h","h",1,0.772892389912158,"","None","None"
"experimental",28,27,"ld","upper","image","nw","w","g","g",1,0.548231924884021,"","None","None"
"experimental",28,28,"ld","upper","slogan","w","w","g","g",1,0.901031618472189,"","None","None"
"experimental",28,29,"ld","upper","ghists","w","nw","h","h",1,0.742927751038224,"","None","None"
"experimental",28,30,"ld","upper","inside","nw","w","g","g",1,0.615686710225418,"","None","None"
"experimental",28,NA,NA,"","","","","","",NA,NA,"","",""
"experimental",29,1,"ld","upper","disuse","w","w","g","h",0,1.20548312622122,"","None","None"
"experimental",29,2,"ld","upper","ifling","nw","nw","h","h",1,0.891626968281344,"","None","None"
"experimental",29,3,"ld","upper","rantho","nw","nw","h","h",1,0.622342171147466,"","None","None"
"experimental",29,4,"ld","upper","oppose","w","w","g","g",1,0.627707791049033,"","None","None"
"experimental",29,5,"ld","upper","extruded","w","w","g","g",1,0.529065733077005,"","None","None"
"experimental",29,6,"ld","upper","tablet","w","w","g","g",1,0.594473855337128,"","None","None"
"experimental",29,7,"ld","upper","corduroy","w","w","g","g",1,0.777261825976893,"","None","None"
"experimental",29,8,"ld","upper","insect","w","w","g","g",1,0.768498454475775,"","None","None"
"experimental",29,9,"ld","upper","actual","w","w","g","g",1,0.487125038634986,"","None","None"
"experimental",29,10,"ld","upper","company","w","w","g","g",1,0.553576025413349,"","None","None"
"experimental",29,11,"ld","upper","efcorted","nw","nw","h","h",1,1.08163487073034,"","None","None"
"experimental",29,12,"ld","upper","dialogues","w","w","g","g",1,0.541046423837543,"","None","None"
"experimental",29,13,"ld","upper","walnut","w","w","g","g",1,0.509729041252285,"","None","None"
"experimental",29,14,"ld","upper","ciping","nw","nw","h","h",1,1.31179735576734,"","None","None"
"experimental",29,15,"ld","upper","usually","w","w","g","g",1,1.14582962868735,"","None","None"
"experimental",29,16,"ld","upper","lancos","nw","nw","h","h",1,1.59460959327407,"","None","None"
"experimental",29,17,"ld","upper","deeper","w","w","g","g",1,0.632309968350455,"","None","None"
"experimental",29,18,"ld","upper","dusmy","nw","nw","h","h",1,0.853566391393542,"","None","None"
"experimental",29,19,"ld","upper","chining","nw","nw","h","h",1,0.945679456461221,"","None","None"
"experimental",29,20,"ld","upper","require","w","w","g","g",1,0.754413495073095,"","None","None"
"experimental",29,21,"ld","upper","moozy","nw","nw","h","h",1,0.866413818206638,"","None","None"
"experimental",29,22,"ld","upper","rootsie","nw","nw","h","h",1,0.82811222365126,"","None","None"
"experimental",29,23,"ld","upper","ilterfere","nw","nw","h","h",1,0.803250337252393,"","None","None"
"experimental",29,24,"ld","upper","pollute","w","w","g","g",1,0.801855547353625,"","None","None"
"experimental",29,25,"ld","upper","enabled","w","w","g","g",1,0.567043542861938,"","None","None"
"experimental",29,26,"ld","upper","fivalve","nw","nw","h","h",1,0.782995593501255,"","None","None"
"experimental",29,27,"ld","upper","mantos","nw","nw","h","h",1,0.678341008489951,"","None","None"
"experimental",29,28,"ld","upper","aggepting","nw","nw","h","g",0,0.753770560957491,"","None","None"
"experimental",29,29,"ld","upper","hostade","nw","nw","h","g",0,0.633747465675697,"","None","None"
"experimental",29,30,"ld","upper","deakers","nw","nw","h","h",1,0.558449347270653,"","None","None"
"experimental",29,NA,NA,"","","","","","",NA,NA,"","",""
"experimental",30,1,"hd","lower","catgup","nw","nw","h","h",1,0.782311606919393,"","None","None"
"experimental",30,2,"hd","lower","actively","w","w","g","g",1,0.837678435258567,"","None","None"
"experimental",30,3,"hd","lower","nomma","nw","nw","h","h",1,0.594398702960461,"","None","None"
"experimental",30,4,"hd","lower","mabit","nw","nw","h","h",1,0.825155786238611,"","None","None"
"experimental",30,5,"hd","lower","brudent","nw","nw","h","h",1,0.614513404900208,"","None","None"
"experimental",30,6,"hd","lower","slending","nw","nw","h","h",1,0.820498982910067,"","None","None"
"experimental",30,7,"hd","lower","hangar","w","w","g","g",1,1.02613925677724,"","None","None"
"experimental",30,8,"hd","lower","omners","nw","nw","h","h",1,0.639515333343297,"","None","None"
"experimental",30,9,"hd","lower","bookend","w","w","g","g",1,0.954971874365583,"","None","None"
"experimental",30,10,"hd","lower","nopping","nw","nw","h","h",1,0.674967756029218,"","None","None"
"experimental",30,11,"hd","lower","olerates","nw","nw","h","h",1,0.750245679402724,"","None","None"
"experimental",30,12,"hd","lower","culer","nw","nw","h","h",1,0.646968006389216,"","None","None"
"experimental",30,13,"hd","lower","preclude","w","w","g","g",1,1.17964690644294,"","None","None"
"experimental",30,14,"hd","lower","grummer","nw","nw","h","h",1,0.867617912823334,"","None","None"
"experimental",30,15,"hd","lower","hubris","w","w","g","h",0,0.655693635810167,"","None","None"
"experimental",30,16,"hd","lower","picnic","w","w","g","g",1,0.61180659243837,"","None","None"
"experimental",30,17,"hd","lower","fragment","w","w","g","g",1,1.48082944843918,"","None","None"
"experimental",30,18,"hd","lower","bellicove","nw","nw","h","h",1,0.732208429602906,"","None","None"
"experimental",30,19,"hd","lower","dingly","nw","nw","h","h",1,1.07759848912247,"","None","None"
"experimental",30,20,"hd","lower","sampling","w","w","g","h",0,1.36904630600475,"","None","None"
"experimental",30,21,"hd","lower","function","w","w","g","g",1,0.585450595477596,"","None","None"
"experimental",30,22,"hd","lower","schinter","nw","nw","h","h",1,0.76722913957201,"","None","None"
"experimental",30,23,"hd","lower","crocodile","target","target","q","g",0,0.710483081638813,"","None","None"
"experimental",30,24,"hd","lower","unamufed","aftertar1","nw","h","h",1,0.728189925430343,"","None","None"
"experimental",30,25,"hd","lower","geadpan","aftertar2","nw","h","h",1,0.92987724696286,"","None","None"
"experimental",30,26,"hd","lower","forfeit","aftertar3","w","g","g",1,0.722264800453559,"","None","None"
"experimental",30,27,"hd","lower","ulcer","w","w","g","g",1,0.915660853497684,"","None","None"
"experimental",30,28,"hd","lower","absent","w","w","g","g",1,0.645632477942854,"","None","None"
"experimental",30,29,"hd","lower","realize","w","w","g","g",1,0.506340890424326,"","None","None"
"experimental",30,30,"hd","lower","harder","w","w","g","g",1,0.580387240974233,"","None","None"
"experimental",30,NA,NA,"","","","","","",NA,NA,"","",""
"experimental",31,1,"hd","lower","artifact","w","w","g","g",1,0.763545014197007,"","None","None"
"experimental",31,2,"hd","lower","category","w","w","g","g",1,0.619583050021902,"","None","None"
"experimental",31,3,"hd","lower","dazid","nw","nw","h","h",1,0.752824699506164,"","None","None"
"experimental",31,4,"hd","lower","elormity","nw","nw","h","h",1,0.81689563812688,"","None","None"
"experimental",31,5,"hd","lower","mitro","nw","nw","h","h",1,1.07830730569549,"","None","None"
"experimental",31,6,"hd","lower","shimble","nw","nw","h","h",1,0.602341356687248,"","None","None"
"experimental",31,7,"hd","lower","contund","nw","nw","h","h",1,0.822654235875234,"","None","None"
"experimental",31,8,"hd","lower","gazes","w","w","g","g",1,0.869130231440067,"","None","None"
"experimental",31,9,"hd","lower","elpired","nw","nw","h","h",1,1.07701647141948,"","None","None"
"experimental",31,10,"hd","lower","scatter","w","w","g","g",1,1.0482992969919,"","None","None"
"experimental",31,11,"hd","lower","unburnid","nw","nw","h","h",1,1.37305156723596,"","None","None"
"experimental",31,12,"hd","lower","fuack","nw","nw","h","h",1,0.804356104461476,"","None","None"
"experimental",31,13,"hd","lower","sequence","w","w","g","h",0,0.466529294848442,"","None","None"
"experimental",31,14,"hd","lower","pimorous","nw","nw","h","g",0,0.51049811206758,"","None","None"
"experimental",31,15,"hd","lower","century","w","w","g","g",1,0.672544006956741,"","None","None"
"experimental",31,16,"hd","lower","dounger","nw","nw","h","h",1,0.771875348640606,"","None","None"
"experimental",31,17,"hd","lower","burning","w","w","g","g",1,0.68330901581794,"","None","None"
"experimental",31,18,"hd","lower","fatho","nw","nw","h","h",1,0.76581713440828,"","None","None"
"experimental",31,19,"hd","lower","acoustic","w","w","g","g",1,0.709644817281514,"","None","None"
"experimental",31,20,"hd","lower","asclibed","nw","nw","h","h",1,0.743679606588557,"","None","None"
"experimental",31,21,"hd","lower","gigoho","nw","nw","h","h",1,0.688390910392627,"","None","None"
"experimental",31,22,"hd","lower","rarely","w","w","g","g",1,0.6351008717902,"","None","None"
"experimental",31,23,"hd","lower","expired","w","w","g","g",1,0.535814555361867,"","None","None"
"experimental",31,24,"hd","lower","lofty","w","w","g","g",1,0.760467736748978,"","None","None"
"experimental",31,25,"hd","lower","arbitrary","w","w","g","g",1,0.736514631891623,"","None","None"
"experimental",31,26,"hd","lower","persona","w","w","g","g",1,0.849638268817216,"","None","None"
"experimental",31,27,"hd","lower","party","w","w","g","g",1,0.556948615470901,"","None","None"
"experimental",31,28,"hd","lower","ubefully","nw","nw","h","h",1,0.692906347569078,"","None","None"
"experimental",31,29,"hd","lower","axis","w","w","g","g",1,0.895834512077272,"","None","None"
"experimental",31,30,"hd","lower","clypaper","nw","nw","h","h",1,0.705463096732274,"","None","None"
"experimental",31,NA,NA,"","","","","","",NA,NA,"","",""
"experimental",32,1,"hd","lower","detrabe","nw","nw","h","h",1,0.74129955843091,"","None","None"
"experimental",32,2,"hd","lower","halms","nw","nw","h","h",1,0.636850897455588,"","None","None"
"experimental",32,3,"hd","lower","despise","w","w","g","g",1,0.673633220838383,"","None","None"
"experimental",32,4,"hd","lower","reprint","w","w","g","g",1,0.741045960225165,"","None","None"
"experimental",32,5,"hd","lower","snorls","nw","nw","h","h",1,0.77378660440445,"","None","None"
"experimental",32,6,"hd","lower","reptile","w","w","g","g",1,0.485151872970164,"","None","None"
"experimental",32,7,"hd","lower","acidic","w","w","g","g",1,0.695205284049734,"","None","None"
"experimental",32,8,"hd","lower","gelfry","nw","nw","h","h",1,0.721868843305856,"","None","None"
"experimental",32,9,"hd","lower","puggers","nw","nw","h","h",1,0.71523821214214,"","None","None"
"experimental",32,10,"hd","lower","outlaved","nw","nw","h","h",1,1.38938944460824,"","None","None"
"experimental",32,11,"hd","lower","resume","w","w","g","g",1,0.803008988732472,"","None","None"
"experimental",32,12,"hd","lower","treason","w","w","g","g",1,1.08099888893776,"","None","None"
"experimental",32,13,"hd","lower","gallon","w","w","g","g",1,0.668315605726093,"","None","None"
"experimental",32,14,"hd","lower","earterner","nw","nw","h","h",1,0.871692036278546,"","None","None"
"experimental",32,15,"hd","lower","command","w","w","g","g",1,0.923068170435727,"","None","None"
"experimental",32,16,"hd","lower","elephant","target","target","q","g",0,0.700521243736148,"","None","None"
"experimental",32,17,"hd","lower","arrow","aftertar1","w","g","g",1,0.709742813371122,"","None","None"
"experimental",32,18,"hd","lower","huffle","aftertar2","nw","h","h",1,1.16817970224656,"","None","None"
"experimental",32,19,"hd","lower","etber","aftertar3","nw","h","h",1,0.686284655239433,"","None","None"
"experimental",32,20,"hd","lower","bother","nw","w","g","g",1,3.06497983005829,"","None","None"
"experimental",32,21,"hd","lower","traze","w","nw","h","h",1,1.27704646624625,"","None","None"
"experimental",32,22,"hd","lower","otiates","nw","nw","h","h",1,1.1523811344523,"","None","None"
"experimental",32,23,"hd","lower","mestowal","nw","nw","h","h",1,5.63179118465632,"","None","None"
"experimental",32,24,"hd","lower","companion","nw","w","g","g",1,0.981026930501684,"","None","None"
"experimental",32,25,"hd","lower","teamwork","w","w","g","g",1,0.524298353120685,"","None","None"
"experimental",32,26,"hd","lower","tunneg","w","nw","h","h",1,0.669697483535856,"","None","None"
"experimental",32,27,"hd","lower","aligning","nw","w","g","g",1,0.817267758538947,"","None","None"
"experimental",32,28,"hd","lower","imprives","w","nw","h","h",1,0.93447048519738,"","None","None"
"experimental",32,29,"hd","lower","cooray","nw","nw","h","h",1,1.31046348228119,"","None","None"
"experimental",32,30,"hd","lower","correct","nw","w","g","g",1,0.896494992775843,"","None","None"
"experimental",32,NA,NA,"","","","","","",NA,NA,"","",""
"experimental",33,1,"hd","lower","fetching","w","w","g","g",1,3.34737359778956,"","None","None"
"experimental",33,2,"hd","lower","army","w","w","g","g",1,1.08368054032326,"","None","None"
"experimental",33,3,"hd","lower","column","w","w","g","g",1,3.07907770108432,"","None","None"
"experimental",33,4,"hd","lower","dislokes","nw","nw","h","h",1,1.22415072959848,"","None","None"
"experimental",33,5,"hd","lower","bentler","nw","nw","h","h",1,0.70229874830693,"","None","None"
"experimental",33,6,"hd","lower","warden","w","w","g","h",0,0.921005947282538,"","None","None"
"experimental",33,7,"hd","lower","baladroit","nw","nw","h","h",1,0.850098784547299,"","None","None"
"experimental",33,8,"hd","lower","nelvet","nw","nw","h","h",1,0.558940652059391,"","None","None"
"experimental",33,9,"hd","lower","regional","w","w","g","g",1,0.783139608101919,"","None","None"
"experimental",33,10,"hd","lower","egect","nw","nw","h","h",1,0.73395315813832,"","None","None"
"experimental",33,11,"hd","lower","cessation","w","w","g","g",1,0.89441224373877,"","None","None"
"experimental",33,12,"hd","lower","bettled","nw","nw","h","h",1,0.520140800392255,"","None","None"
"experimental",33,13,"hd","lower","squirrel","target","target","q","g",0,0.409601480467245,"","None","None"
"experimental",33,14,"hd","lower","cookbook","aftertar1","w","g","h",0,0.663469431223348,"","None","None"
"experimental",33,15,"hd","lower","latirizes","aftertar2","nw","h","h",1,0.635634222533554,"","None","None"
"experimental",33,16,"hd","lower","marvel","aftertar3","w","g","g",1,0.536249247612432,"","None","None"
"experimental",33,17,"hd","lower","senior","w","w","g","g",1,0.712950200773776,"","None","None"
"experimental",33,18,"hd","lower","frequency","w","w","g","g",1,0.698983432725072,"","None","None"
"experimental",33,19,"hd","lower","rowel","w","nw","h","h",1,0.605648064287379,"","None","None"
"experimental",33,20,"hd","lower","venturous","nw","w","g","g",1,0.699770712759346,"","None","None"
"experimental",33,21,"hd","lower","jungle","w","w","g","g",1,1.62148205633275,"","None","None"
