"procedure","block","trial","PMdemand","context","stim","role","word_type","correct_key","response","correct","reaction_time","pressedQ","pressedQ_blank","pressedQ_fix"
"LDTpractice",1,1,NA,"lower","umpire","","w","g","g",1,0.833480330431485,NA,NA,NA
"LDTpractice",2,1,NA,"lower","tricycle","","w","g","g",1,1.11433821720129,NA,NA,NA
"LDTpractice",3,1,NA,"lower","turative","","nw","h","h",1,1.12693866308837,NA,NA,NA
"LDTpractice",4,1,NA,"lower","lumbigo","","nw","h","h",1,0.741544012111262,NA,NA,NA
"LDTpractice",5,1,NA,"lower","overshoot","","w","g","g",1,0.575972432707204,NA,NA,NA
"LDTpractice",6,1,NA,"lower","busted","","w","g","g",1,0.504005459180917,NA,NA,NA
"LDTpractice",7,1,NA,"lower","curlecs","","nw","h","h",1,0.67387347521435,NA,NA,NA
"LDTpractice",8,1,NA,"lower","picture","","w","g","g",1,0.405137009103782,NA,NA,NA
"LDTpractice",9,1,NA,"lower","latador","","nw","h","h",1,0.8510470030742,NA,NA,NA
"LDTpractice",10,1,NA,"lower","grutch","","nw","h","g",0,0.527103107277071,NA,NA,NA
"LDTpractice",11,1,NA,"lower","raestro","","nw","h","h",1,0.608389792541857,NA,NA,NA
"LDTpractice",12,1,NA,"lower","reputable","","w","g","g",1,0.589440376046696,NA,NA,NA
"LDTpractice",13,1,NA,"lower","trotch","","nw","h","h",1,0.700105463474756,NA,NA,NA
"LDTpractice",14,1,NA,"lower","unscrew","","w","g","g",1,0.557586255672504,NA,NA,NA
"LDTpractice",1,2,NA,"upper","slumber","","w","g","g",1,0.518951528851176,NA,NA,NA
"LDTpractice",2,2,NA,"upper","hiring","","w","g","g",1,0.520435692043975,NA,NA,NA
"LDTpractice",3,2,NA,"upper","lurshing","","nw","h","h",1,0.65810035506729,NA,NA,NA
"LDTpractice",4,2,NA,"upper","crinklo","","nw","h","h",1,0.66110460080381,NA,NA,NA
"LDTpractice",5,2,NA,"upper","sponsor","","w","g","g",1,0.546661341591971,NA,NA,NA
"LDTpractice",6,2,NA,"upper","revival","","w","g","g",1,0.555159134208225,NA,NA,NA
"LDTpractice",7,2,NA,"upper","alolition","","nw","h","h",1,0.546317843982251,NA,NA,NA
"LDTpractice",8,2,NA,"upper","infinity","","w","g","g",1,0.522784334258176,NA,NA,NA
"LDTpractice",9,2,NA,"upper","hasking","","nw","h","g",0,0.476118766295258,NA,NA,NA
"LDTpractice",10,2,NA,"upper","julled","","nw","h","h",1,0.686878089181846,NA,NA,NA
"LDTpractice",11,2,NA,"upper","grocus","","nw","h","h",1,0.72197702433914,NA,NA,NA
"LDTpractice",12,2,NA,"upper","summary","","w","g","g",1,0.50728076013911,NA,NA,NA
"LDTpractice",13,2,NA,"upper","treeps","","nw","h","h",1,0.716366664113593,NA,NA,NA
"LDTpractice",14,2,NA,"upper","grimace","","w","g","h",0,0.59018592882785,NA,NA,NA
"experimental",1,1,"hd","lower","snife","nw","nw","h","g",0,1.04908665199764,NA,NA,NA
"experimental",1,2,"hd","lower","trooper","w","w","g","g",1,0.830396699922858,NA,NA,NA
"experimental",1,3,"hd","lower","turntable","w","w","g","g",1,0.844390454192762,NA,NA,NA
"experimental",1,4,"hd","lower","cookbook","w","w","g","g",1,0.753738780680578,NA,NA,NA
"experimental",1,5,"hd","lower","gelented","nw","nw","h","h",1,0.890300206679967,NA,NA,NA
"experimental",1,6,"hd","lower","binder","w","w","g","g",1,0.677613011066569,NA,NA,NA
"experimental",1,7,"hd","lower","located","w","w","g","g",1,0.649582640806329,NA,NA,NA
"experimental",1,8,"hd","lower","grieving","w","w","g","g",1,0.614875498155016,NA,NA,NA
"experimental",1,9,"hd","lower","anterior","w","w","g","g",1,0.876552454661578,NA,NA,NA
"experimental",1,10,"hd","lower","chyme","nw","nw","h","g",0,1.40063290433318,NA,NA,NA
"experimental",1,11,"hd","lower","fabstand","nw","nw","h","h",1,0.607138954175753,NA,NA,NA
"experimental",1,12,"hd","lower","nauling","nw","nw","h","h",1,0.589760631715762,NA,NA,NA
"experimental",1,13,"hd","lower","frigs","nw","nw","h","h",1,0.667849589750404,NA,NA,NA
"experimental",1,14,"hd","lower","dazid","nw","nw","h","h",1,1.06135446662665,NA,NA,NA
"experimental",1,15,"hd","lower","probable","w","w","g","g",1,0.628810694834101,NA,NA,NA
"experimental",1,16,"hd","lower","esdings","nw","nw","h","h",1,0.763653425456141,NA,NA,NA
"experimental",1,17,"hd","lower","paranoid","w","w","g","g",1,0.707364793284796,NA,NA,NA
"experimental",1,18,"hd","lower","hackal","nw","nw","h","h",1,0.685874762275489,NA,NA,NA
"experimental",1,19,"hd","lower","overcoat","w","w","g","g",1,0.641199548612349,NA,NA,NA
"experimental",1,20,"hd","lower","rualify","nw","nw","h","h",1,0.838562766832183,NA,NA,NA
"experimental",1,21,"hd","lower","digar","nw","nw","h","h",1,0.63577089800674,NA,NA,NA
"experimental",1,22,"hd","lower","pracking","nw","nw","h","h",1,0.713066612021066,NA,NA,NA
"experimental",1,23,"hd","lower","committed","w","w","g","g",1,0.595772443441092,NA,NA,NA
"experimental",1,24,"hd","lower","retain","w","w","g","g",1,0.62697518611094,NA,NA,NA
"experimental",1,25,"hd","lower","pepperoni","w","w","g","g",1,0.576966100634309,NA,NA,NA
"experimental",1,26,"hd","lower","peems","nw","nw","h","h",1,0.679974934377242,NA,NA,NA
"experimental",1,27,"hd","lower","rantho","nw","nw","h","h",1,0.619947671904811,NA,NA,NA
"experimental",1,28,"hd","lower","dolphin","target","target","q","q",1,0.689856980068726,1,NA,NA
"experimental",1,29,"hd","lower","rootsie","aftertar1","nw","h","g",0,0.725165696290787,NA,NA,NA
"experimental",1,30,"hd","lower","admire","aftertar2","w","g","g",1,0.647173629942699,NA,NA,NA
"experimental",2,1,"ld","upper","checkout","w","w","g","g",1,0.628387510616449,NA,NA,NA
"experimental",2,2,"ld","upper","treason","w","w","g","g",1,0.560127473887405,NA,NA,NA
"experimental",2,3,"ld","upper","ugifies","nw","nw","h","h",1,0.680758217567927,NA,NA,NA
"experimental",2,4,"ld","upper","border","w","w","g","g",1,0.821358004235663,NA,NA,NA
"experimental",2,5,"ld","upper","disperse","w","w","g","g",1,1.86771720131219,NA,NA,NA
"experimental",2,6,"ld","upper","nogwhell","nw","nw","h","h",1,0.647970496080234,NA,NA,NA
"experimental",2,7,"ld","upper","equitable","w","w","g","g",1,0.674846315960167,NA,NA,NA
"experimental",2,8,"ld","upper","implode","w","w","g","h",0,0.689096938804141,NA,NA,NA
"experimental",2,9,"ld","upper","dislokes","nw","nw","h","h",1,0.835557313723257,NA,NA,NA
"experimental",2,10,"ld","upper","pakened","nw","nw","h","h",1,0.71272552915616,NA,NA,NA
"experimental",2,11,"ld","upper","grolific","nw","nw","h","h",1,0.643388515745755,NA,NA,NA
"experimental",2,12,"ld","upper","consonant","w","w","g","g",1,0.800644615854253,NA,NA,NA
"experimental",2,13,"ld","upper","condensed","w","w","g","g",1,0.639304274925962,NA,NA,NA
"experimental",2,14,"ld","upper","elormity","nw","nw","h","h",1,0.708652154688025,NA,NA,NA
"experimental",2,15,"ld","upper","lutton","nw","nw","h","h",1,0.711281511132256,NA,NA,NA
"experimental",2,16,"ld","upper","contusiok","nw","nw","h","h",1,0.737904084526235,NA,NA,NA
"experimental",2,17,"ld","upper","dreaded","w","w","g","g",1,0.554384906310588,NA,NA,NA
"experimental",2,18,"ld","upper","legalosm","nw","nw","h","h",1,0.659910810805741,NA,NA,NA
"experimental",2,19,"ld","upper","pocket","w","w","g","g",1,0.567490034096409,NA,NA,NA
"experimental",2,20,"ld","upper","splum","nw","nw","h","h",1,0.543495307894773,NA,NA,NA
"experimental",2,21,"ld","upper","satisfies","w","w","g","g",1,0.648780945164617,NA,NA,NA
"experimental",2,22,"ld","upper","unlined","w","w","g","g",1,0.614121191916638,NA,NA,NA
"experimental",2,23,"ld","upper","nollow","nw","nw","h","h",1,0.6447383587074,NA,NA,NA
"experimental",2,24,"ld","upper","spiud","nw","nw","h","h",1,0.658032742183423,NA,NA,NA
"experimental",2,25,"ld","upper","release","w","w","g","g",1,0.58958646816609,NA,NA,NA
"experimental",2,26,"ld","upper","ladybug","target","target","q","q",1,0.580709560439573,1,NA,NA
"experimental",2,27,"ld","upper","breiled","aftertar1","nw","h","h",1,0.820412329368992,NA,NA,NA
"experimental",2,28,"ld","upper","lanthers","aftertar2","nw","h","h",1,0.95492001400271,NA,NA,NA
"experimental",2,29,"ld","upper","resent","aftertar3","w","g","g",1,0.755488264083397,NA,NA,NA
"experimental",2,30,"ld","upper","pammed","w","nw","h","h",1,0.739590180848609,NA,NA,NA
"experimental",3,1,"hd","lower","defensa","nw","nw","h","h",1,0.732492035298492,NA,NA,NA
"experimental",3,2,"hd","lower","sonnet","w","w","g","h",0,0.68732360980357,NA,NA,NA
"experimental",3,3,"hd","lower","golemic","nw","nw","h","h",1,0.67358944073203,NA,NA,NA
"experimental",3,4,"hd","lower","bellicove","nw","nw","h","h",1,0.69357085925003,NA,NA,NA
"experimental",3,5,"hd","lower","baladroit","nw","nw","h","h",1,0.624884016186115,NA,NA,NA
"experimental",3,6,"hd","lower","sweeping","w","w","g","g",1,0.574848066651612,NA,NA,NA
"experimental",3,7,"hd","lower","duries","nw","nw","h","h",1,0.862858732580207,NA,NA,NA
"experimental",3,8,"hd","lower","maroon","w","w","g","g",1,0.723479599968414,NA,NA,NA
"experimental",3,9,"hd","lower","foster","w","w","g","g",1,0.653494830985437,NA,NA,NA
"experimental",3,10,"hd","lower","priant","nw","nw","h","h",1,0.634086310907151,NA,NA,NA
"experimental",3,11,"hd","lower","exclusion","w","w","g","g",1,0.788862768837134,NA,NA,NA
"experimental",3,12,"hd","lower","slooping","nw","nw","h","h",1,1.02169135989971,NA,NA,NA
"experimental",3,13,"hd","lower","buzzer","w","w","g","g",1,0.499691515651648,NA,NA,NA
"experimental",3,14,"hd","lower","bamboo","w","w","g","q",0,0.62301288996241,NA,NA,NA
"experimental",3,15,"hd","lower","machinery","w","w","g","g",1,1.07580551339197,NA,NA,NA
"experimental",3,16,"hd","lower","trewl","nw","nw","h","h",1,0.640117440605536,NA,NA,NA
"experimental",3,17,"hd","lower","colored","w","w","g","g",1,0.638133425018168,NA,NA,NA
"experimental",3,18,"hd","lower","coster","nw","nw","h","g",0,0.835505698531051,NA,NA,NA
"experimental",3,19,"hd","lower","profats","nw","nw","h","h",1,0.672037966491189,NA,NA,NA
"experimental",3,20,"hd","lower","criminal","w","w","g","g",1,0.620856220033602,NA,NA,NA
"experimental",3,21,"hd","lower","ethical","w","w","g","g",1,0.705771362860105,NA,NA,NA
"experimental",3,22,"hd","lower","ebciting","nw","nw","h","h",1,0.708536850579549,NA,NA,NA
"experimental",3,23,"hd","lower","dricked","nw","nw","h","h",1,0.791088862693869,NA,NA,NA
"experimental",3,24,"hd","lower","artifact","w","w","g","g",1,0.782398795927293,NA,NA,NA
"experimental",3,25,"hd","lower","region","w","w","g","g",1,0.574262188922148,NA,NA,NA
"experimental",3,26,"hd","lower","migmarole","nw","nw","h","h",1,0.71027788236097,NA,NA,NA
"experimental",3,27,"hd","lower","gelfry","nw","nw","h","h",1,0.624933518469334,NA,NA,NA
"experimental",3,28,"hd","lower","funtair","nw","nw","h","h",1,0.64596716251981,NA,NA,NA
"experimental",3,29,"hd","lower","contain","w","w","g","g",1,0.724148484587204,NA,NA,NA
"experimental",3,30,"hd","lower","blocking","w","w","g","g",1,0.645137999148574,NA,NA,NA
"experimental",4,1,"hd","lower","vopings","nw","nw","h","h",1,0.85836398495303,NA,NA,NA
"experimental",4,2,"hd","lower","reses","nw","nw","h","h",1,0.679052199615398,NA,NA,NA
"experimental",4,3,"hd","lower","image","w","w","g","g",1,0.610089169960702,NA,NA,NA
"experimental",4,4,"hd","lower","postal","w","w","g","g",1,0.632451829791535,NA,NA,NA
"experimental",4,5,"hd","lower","lasprey","nw","nw","h","h",1,0.58936159494624,NA,NA,NA
"experimental",4,6,"hd","lower","splinging","nw","nw","h","h",1,0.853435790442745,NA,NA,NA
"experimental",4,7,"hd","lower","atble","nw","nw","h","h",1,0.650706403175718,NA,NA,NA
"experimental",4,8,"hd","lower","duplex","w","w","g","g",1,0.67115688607737,NA,NA,NA
"experimental",4,9,"hd","lower","stifle","w","w","g","g",1,0.651151923782891,NA,NA,NA
"experimental",4,10,"hd","lower","terming","w","w","g","h",0,0.863793541080668,NA,NA,NA
"experimental",4,11,"hd","lower","demise","w","w","g","g",1,0.636453969258582,NA,NA,NA
"experimental",4,12,"hd","lower","airmen","w","w","g","g",1,0.576880377164343,NA,NA,NA
"experimental",4,13,"hd","lower","atsless","nw","nw","h","h",1,0.712765976160881,NA,NA,NA
"experimental",4,14,"hd","lower","gackpedal","nw","nw","h","h",1,0.691382797638653,NA,NA,NA
"experimental",4,15,"hd","lower","tinion","nw","nw","h","h",1,0.646621256819344,NA,NA,NA
"experimental",4,16,"hd","lower","lonnote","nw","nw","h","h",1,0.547969228340662,NA,NA,NA
"experimental",4,17,"hd","lower","recount","w","w","g","g",1,0.717289700740366,NA,NA,NA
"experimental",4,18,"hd","lower","infancy","w","w","g","g",1,0.679249906926998,NA,NA,NA
"experimental",4,19,"hd","lower","rabbit","target","target","q","q",1,0.635181700024987,1,NA,NA
"experimental",4,20,"hd","lower","dishwater","aftertar1","w","g","g",1,0.7285092138045,NA,NA,NA
"experimental",4,21,"hd","lower","pegend","aftertar2","nw","h","h",1,0.641632693659631,NA,NA,NA
"experimental",4,22,"hd","lower","footstep","aftertar3","w","g","g",1,0.58287256906624,NA,NA,NA
"experimental",4,23,"hd","lower","calcify","w","w","g","g",1,1.03079615927709,NA,NA,NA
"experimental",4,24,"hd","lower","glattery","w","nw","h","h",1,0.636754605118767,NA,NA,NA
"experimental",4,25,"hd","lower","ahead","nw","w","g","g",1,0.625941976715694,NA,NA,NA
"experimental",4,26,"hd","lower","ecistle","w","nw","h","h",1,0.591910962932161,NA,NA,NA
"experimental",4,27,"hd","lower","fictional","nw","w","g","g",1,0.551540637505241,NA,NA,NA
"experimental",4,28,"hd","lower","culer","w","nw","h","h",1,0.519346641653101,NA,NA,NA
"experimental",4,29,"hd","lower","omission","nw","w","g","g",1,0.577313220361248,NA,NA,NA
"experimental",4,30,"hd","lower","athcan","w","nw","h","h",1,0.625927186396439,NA,NA,NA
"experimental",5,1,"ld","upper","terrify","w","w","g","g",1,0.511263581633102,NA,NA,NA
"experimental",5,2,"ld","upper","favoting","nw","nw","h","h",1,0.713822427482228,NA,NA,NA
"experimental",5,3,"ld","upper","dialogues","w","w","g","g",1,0.604569664559676,NA,NA,NA
"experimental",5,4,"ld","upper","mineluyer","nw","nw","h","h",1,0.57920245717105,NA,NA,NA
"experimental",5,5,"ld","upper","intercede","w","w","g","h",0,0.739111759321531,NA,NA,NA
"experimental",5,6,"ld","upper","religious","w","w","g","g",1,0.516421177002485,NA,NA,NA
"experimental",5,7,"ld","upper","ebince","nw","nw","h","h",1,0.543088725054986,NA,NA,NA
"experimental",5,8,"ld","upper","pamine","nw","nw","h","h",1,0.567370806005783,NA,NA,NA
"experimental",5,9,"ld","upper","primal","w","w","g","h",0,0.655362938763574,NA,NA,NA
"experimental",5,10,"ld","upper","giving","w","w","g","g",1,0.756014376835083,NA,NA,NA
"experimental",5,11,"ld","upper","igiom","nw","nw","h","h",1,0.588630228798138,NA,NA,NA
"experimental",5,12,"ld","upper","outfit","w","w","g","g",1,0.531919016095344,NA,NA,NA
"experimental",5,13,"ld","upper","practice","w","w","g","g",1,0.541952285275329,NA,NA,NA
"experimental",5,14,"ld","upper","halter","w","w","g","g",1,0.575279400625732,NA,NA,NA
"experimental",5,15,"ld","upper","frader","nw","nw","h","h",1,0.791258800440119,NA,NA,NA
"experimental",5,16,"ld","upper","etuip","nw","nw","h","h",1,0.502497752211639,NA,NA,NA
"experimental",5,17,"ld","upper","hubris","w","w","g","g",1,0.872212250775192,NA,NA,NA
"experimental",5,18,"ld","upper","gaining","w","w","g","g",1,0.538955585623626,NA,NA,NA
"experimental",5,19,"ld","upper","pigned","nw","nw","h","h",1,0.820325096676243,NA,NA,NA
"experimental",5,20,"ld","upper","etcess","nw","nw","h","h",1,0.826767336853663,NA,NA,NA
"experimental",5,21,"ld","upper","ephically","nw","nw","h","h",1,1.15354040930106,NA,NA,NA
"experimental",5,22,"ld","upper","apology","w","w","g","g",1,0.578049416013528,NA,NA,NA
"experimental",5,23,"ld","upper","ulcer","w","w","g","g",1,0.673904866896919,NA,NA,NA
"experimental",5,24,"ld","upper","huests","nw","nw","h","h",1,0.765923286584439,NA,NA,NA
"experimental",5,25,"ld","upper","scrobby","nw","nw","h","h",1,0.558599241572665,NA,NA,NA
"experimental",5,26,"ld","upper","sefine","nw","nw","h","h",1,0.606214408340747,NA,NA,NA
"experimental",5,27,"ld","upper","dealer","w","w","g","g",1,0.652745656072511,NA,NA,NA
"experimental",5,28,"ld","upper","calming","w","w","g","g",1,0.673475343981409,NA,NA,NA
"experimental",5,29,"ld","upper","odacles","nw","nw","h","h",1,0.653430538368411,NA,NA,NA
"experimental",5,30,"ld","upper","vergas","nw","nw","h","h",1,0.7220983653242,NA,NA,NA
"experimental",6,1,"ld","upper","iflaid","nw","nw","h","h",1,0.610981720412383,NA,NA,NA
"experimental",6,2,"ld","upper","catacomb","w","w","g","h",0,0.553602226806106,NA,NA,NA
"experimental",6,3,"ld","upper","budget","w","w","g","g",1,0.562248828136944,NA,NA,NA
"experimental",6,4,"ld","upper","incidonts","nw","nw","h","h",1,0.60292069496063,NA,NA,NA
"experimental",6,5,"ld","upper","frowsed","nw","nw","h","h",1,0.721486529087997,NA,NA,NA
"experimental",6,6,"ld","upper","wienegs","nw","nw","h","h",1,0.547499258405878,NA,NA,NA
"experimental",6,7,"ld","upper","armada","w","w","g","h",0,0.668716483516619,NA,NA,NA
"experimental",6,8,"ld","upper","pleamed","nw","nw","h","g",0,0.551652017660672,NA,NA,NA
"experimental",6,9,"ld","upper","persona","w","w","g","g",1,0.655267858150182,NA,NA,NA
"experimental",6,10,"ld","upper","decency","w","w","g","g",1,0.59744374944421,NA,NA,NA
"experimental",6,11,"ld","upper","exploit","w","w","g","g",1,0.564357504976215,NA,NA,NA
"experimental",6,12,"ld","upper","sludding","nw","nw","h","h",1,0.925119635008741,NA,NA,NA
"experimental",6,13,"ld","upper","moyeur","nw","nw","h","h",1,0.56704481531051,NA,NA,NA
"experimental",6,14,"ld","upper","trophy","w","w","g","g",1,0.631537546621985,NA,NA,NA
"experimental",6,15,"ld","upper","infusion","w","w","g","g",1,0.645598008239176,NA,NA,NA
"experimental",6,16,"ld","upper","ezulated","nw","nw","h","h",1,0.586962846762617,NA,NA,NA
"experimental",6,17,"ld","upper","tyena","nw","nw","h","h",1,0.970208977581933,NA,NA,NA
"experimental",6,18,"ld","upper","veclors","nw","nw","h","h",1,0.786151914726361,NA,NA,NA
"experimental",6,19,"ld","upper","encounter","w","w","g","g",1,0.681422574547469,NA,NA,NA
"experimental",6,20,"ld","upper","germeated","nw","nw","h","h",1,0.636509810254211,NA,NA,NA
"experimental",6,21,"ld","upper","railway","w","w","g","q",0,0.721646506004618,NA,NA,NA
"experimental",6,22,"ld","upper","riosk","nw","nw","h","h",1,0.883705535670742,NA,NA,NA
"experimental",6,23,"ld","upper","shazer","nw","nw","h","h",1,0.623666078725364,NA,NA,NA
"experimental",6,24,"ld","upper","even","w","w","g","g",1,0.621666970968363,NA,NA,NA
"experimental",6,25,"ld","upper","presently","w","w","g","g",1,0.635660725223715,NA,NA,NA
"experimental",6,26,"ld","upper","halents","nw","nw","h","h",1,0.616928032162832,NA,NA,NA
"experimental",6,27,"ld","upper","stranded","w","w","g","g",1,0.79163791553583,NA,NA,NA
"experimental",6,28,"ld","upper","superstar","w","w","g","g",1,0.742951808962971,NA,NA,NA
"experimental",6,29,"ld","upper","subber","nw","nw","h","h",1,0.55923069761775,NA,NA,NA
"experimental",6,30,"ld","upper","pollute","w","w","g","g",1,0.703872467056499,NA,NA,NA
"experimental",7,1,"ld","upper","harfing","nw","nw","h","h",1,0.602376169757918,NA,NA,NA
"experimental",7,2,"ld","upper","delegate","w","w","g","g",1,0.672153874285868,NA,NA,NA
"experimental",7,3,"ld","upper","theery","nw","nw","h","h",1,0.541043737117434,NA,NA,NA
"experimental",7,4,"ld","upper","renown","w","w","g","h",0,0.517308596114162,NA,NA,NA
"experimental",7,5,"ld","upper","eightiech","nw","nw","h","h",1,0.61530049344583,NA,NA,NA
"experimental",7,6,"ld","upper","trocess","nw","nw","h","h",1,0.525862229726044,NA,NA,NA
"experimental",7,7,"ld","upper","combat","w","w","g","g",1,0.767786263037124,NA,NA,NA
"experimental",7,8,"ld","upper","perform","w","w","g","g",1,0.54376696680265,NA,NA,NA
"experimental",7,9,"ld","upper","tipoff","w","w","g","g",1,0.809067249501823,NA,NA,NA
"experimental",7,10,"ld","upper","irregular","w","w","g","g",1,0.695767674318631,NA,NA,NA
"experimental",7,11,"ld","upper","miteous","nw","nw","h","h",1,0.594970747813932,NA,NA,NA
"experimental",7,12,"ld","upper","outlaved","nw","nw","h","h",1,0.810269792957115,NA,NA,NA
"experimental",7,13,"ld","upper","martial","w","w","g","g",1,0.847946469351882,NA,NA,NA
"experimental",7,14,"ld","upper","ilterfere","nw","nw","h","h",1,0.637245704070665,NA,NA,NA
"experimental",7,15,"ld","upper","antonym","w","w","g","g",1,1.28240724753414,NA,NA,NA
"experimental",7,16,"ld","upper","deadly","w","w","g","g",1,0.542445497121662,NA,NA,NA
"experimental",7,17,"ld","upper","deficit","w","w","g","g",1,0.759752101628692,NA,NA,NA
"experimental",7,18,"ld","upper","talate","nw","nw","h","h",1,0.880407596472651,NA,NA,NA
"experimental",7,19,"ld","upper","epthuse","nw","nw","h","h",1,0.796377759877942,NA,NA,NA
"experimental",7,20,"ld","upper","congraks","nw","nw","h","h",1,0.59564868772577,NA,NA,NA
"experimental",7,21,"ld","upper","removable","w","w","g","g",1,1.12869478702487,NA,NA,NA
"experimental",7,22,"ld","upper","protest","w","w","g","g",1,0.5060429010191,NA,NA,NA
"experimental",7,23,"ld","upper","fuack","nw","nw","h","h",1,0.540720161181525,NA,NA,NA
"experimental",7,24,"ld","upper","sarlock","nw","nw","h","h",1,0.542047667724546,NA,NA,NA
"experimental",7,25,"ld","upper","tablet","w","w","g","g",1,0.598449491109932,NA,NA,NA
"experimental",7,26,"ld","upper","tibs","nw","nw","h","h",1,0.709088921852526,NA,NA,NA
"experimental",7,27,"ld","upper","omners","nw","nw","h","h",1,0.543117702007294,NA,NA,NA
"experimental",7,28,"ld","upper","butcher","w","w","g","g",1,0.663800060894573,NA,NA,NA
"experimental",7,29,"ld","upper","rivet","w","w","g","g",1,0.978780419958639,NA,NA,NA
"experimental",7,30,"ld","upper","abraid","nw","nw","h","h",1,0.74770342517877,NA,NA,NA
"experimental",8,1,"hd","lower","absent","w","w","g","g",1,0.587809517048299,NA,NA,NA
"experimental",8,2,"hd","lower","ameld","nw","nw","h","h",1,0.963135281359428,NA,NA,NA
"experimental",8,3,"hd","lower","lecked","nw","nw","h","h",1,0.563781588090933,NA,NA,NA
"experimental",8,4,"hd","lower","shimble","nw","nw","h","h",1,0.524400101101492,NA,NA,NA
"experimental",8,5,"hd","lower","restock","w","w","g","g",1,0.725430714650429,NA,NA,NA
"experimental",8,6,"hd","lower","mitro","nw","nw","h","h",1,0.863351642576163,NA,NA,NA
"experimental",8,7,"hd","lower","huzzles","nw","nw","h","h",1,0.692028742167167,NA,NA,NA
"experimental",8,8,"hd","lower","oginous","nw","nw","h","h",1,0.54335978027666,NA,NA,NA
"experimental",8,9,"hd","lower","saturate","w","w","g","g",1,0.664618659749976,NA,NA,NA
"experimental",8,10,"hd","lower","pranny","nw","nw","h","h",1,0.573299007155583,NA,NA,NA
"experimental",8,11,"hd","lower","cooray","nw","nw","h","h",1,0.451297593317577,NA,NA,NA
"experimental",8,12,"hd","lower","mounting","w","w","g","g",1,0.560180900123669,NA,NA,NA
"experimental",8,13,"hd","lower","fragment","w","w","g","g",1,0.720775386420428,NA,NA,NA
"experimental",8,14,"hd","lower","achieve","w","w","g","g",1,0.546616668798379,NA,NA,NA
"experimental",8,15,"hd","lower","monkey","target","target","q","q",1,0.786004011533805,1,NA,NA
"experimental",8,16,"hd","lower","ucility","aftertar1","nw","h","h",1,0.63262750254944,NA,NA,NA
"experimental",8,17,"hd","lower","lancos","aftertar2","nw","h","h",1,0.6219630791893,NA,NA,NA
"experimental",8,18,"hd","lower","minister","aftertar3","w","g","g",1,0.843369318521582,NA,NA,NA
"experimental",8,19,"hd","lower","reborn","w","w","g","g",1,0.727957444367348,NA,NA,NA
"experimental",8,20,"hd","lower","greft","w","nw","h","h",1,0.689913122929283,NA,NA,NA
"experimental",8,21,"hd","lower","itfidels","nw","nw","h","h",1,0.668534773882129,NA,NA,NA
"experimental",8,22,"hd","lower","hangar","nw","w","g","h",0,0.704510261813994,NA,NA,NA
"experimental",8,23,"hd","lower","chrayed","w","nw","h","h",1,0.553750733670313,NA,NA,NA
"experimental",8,24,"hd","lower","swatches","nw","w","g","g",1,0.913481767202029,NA,NA,NA
"experimental",8,25,"hd","lower","anemic","w","w","g","g",1,0.987417664146051,NA,NA,NA
"experimental",8,26,"hd","lower","walnut","w","w","g","g",1,0.490719225461362,NA,NA,NA
"experimental",8,27,"hd","lower","fassed","w","nw","h","h",1,0.573413707577856,NA,NA,NA
"experimental",8,28,"hd","lower","racile","nw","nw","h","h",1,0.604681346550933,NA,NA,NA
"experimental",8,29,"hd","lower","couple","nw","w","g","g",1,0.618651255193981,NA,NA,NA
"experimental",8,30,"hd","lower","blueberry","w","w","g","g",1,0.80065035088046,NA,NA,NA
"experimental",9,1,"ld","upper","airbis","nw","nw","h","h",1,0.757634671332198,NA,NA,NA
"experimental",9,2,"ld","upper","bailmenz","nw","nw","h","h",1,0.526273038383806,NA,NA,NA
"experimental",9,3,"ld","upper","lofty","w","w","g","h",0,0.512064371738234,NA,NA,NA
"experimental",9,4,"ld","upper","poars","nw","nw","h","h",1,0.882123273433535,NA,NA,NA
"experimental",9,5,"ld","upper","dorte","nw","nw","h","h",1,0.581286986562191,NA,NA,NA
"experimental",9,6,"ld","upper","affluent","w","w","g","g",1,0.652601676847553,NA,NA,NA
"experimental",9,7,"ld","upper","realize","w","w","g","g",1,0.503867818653816,NA,NA,NA
"experimental",9,8,"ld","upper","slears","nw","nw","h","h",1,0.610496054650866,NA,NA,NA
"experimental",9,9,"ld","upper","flieves","nw","nw","h","h",1,0.511526185247931,NA,NA,NA
"experimental",9,10,"ld","upper","standard","w","w","g","g",1,0.641545159101952,NA,NA,NA
"experimental",9,11,"ld","upper","unstatle","nw","nw","h","h",1,0.582058196028811,NA,NA,NA
"experimental",9,12,"ld","upper","rudder","w","w","g","h",0,0.557525283351424,NA,NA,NA
"experimental",9,13,"ld","upper","otoist","nw","nw","h","h",1,0.501370669575408,NA,NA,NA
"experimental",9,14,"ld","upper","padicals","nw","nw","h","h",1,0.528062666926417,NA,NA,NA
"experimental",9,15,"ld","upper","nores","nw","nw","h","h",1,0.497455159129458,NA,NA,NA
"experimental",9,16,"ld","upper","pimorous","nw","nw","h","h",1,0.428064719468239,NA,NA,NA
"experimental",9,17,"ld","upper","virulent","w","w","g","h",0,0.424427206628025,NA,NA,NA
"experimental",9,18,"ld","upper","baseline","w","w","g","g",1,0.494647111496306,NA,NA,NA
"experimental",9,19,"ld","upper","reddar","nw","nw","h","h",1,0.592267137937597,NA,NA,NA
"experimental",9,20,"ld","upper","senalize","nw","nw","h","h",1,0.438976050587371,NA,NA,NA
"experimental",9,21,"ld","upper","walsams","nw","nw","h","h",1,0.4995725894114,NA,NA,NA
"experimental",9,22,"ld","upper","column","w","w","g","g",1,0.966215289721731,NA,NA,NA
"experimental",9,23,"ld","upper","imprives","nw","nw","h","h",1,0.982164988148725,NA,NA,NA
"experimental",9,24,"ld","upper","ordinary","w","w","g","g",1,0.845512405488989,NA,NA,NA
"experimental",9,25,"ld","upper","deserve","w","w","g","g",1,0.584680610045325,NA,NA,NA
"experimental",9,26,"ld","upper","outrank","w","w","g","h",0,0.623317147939815,NA,NA,NA
"experimental",9,27,"ld","upper","assent","w","w","g","g",1,0.789272973794141,NA,NA,NA
"experimental",9,28,"ld","upper","sunshine","w","w","g","g",1,0.428316456716857,NA,NA,NA
"experimental",9,29,"ld","upper","casino","w","w","g","g",1,0.561604090995388,NA,NA,NA
"experimental",9,30,"ld","upper","orange","w","w","g","g",1,0.537621136681992,NA,NA,NA
"experimental",10,1,"hd","lower","perishing","w","w","g","h",0,1.36280983398319,NA,NA,NA
"experimental",10,2,"hd","lower","forfeit","w","w","g","g",1,0.681666463875445,NA,NA,NA
"experimental",10,3,"hd","lower","accessory","w","w","g","g",1,0.580999329948099,NA,NA,NA
"experimental",10,4,"hd","lower","brother","w","w","g","g",1,0.548276504749083,NA,NA,NA
"experimental",10,5,"hd","lower","brimitive","nw","nw","h","h",1,0.684922446860583,NA,NA,NA
"experimental",10,6,"hd","lower","addma","nw","nw","h","h",1,0.648229779413668,NA,NA,NA
"experimental",10,7,"hd","lower","handle","w","w","g","g",1,0.644927010725951,NA,NA,NA
"experimental",10,8,"hd","lower","relaying","w","w","g","g",1,0.585500114437309,NA,NA,NA
"experimental",10,9,"hd","lower","welayed","nw","nw","h","h",1,0.664806708082324,NA,NA,NA
"experimental",10,10,"hd","lower","surfaced","w","w","g","g",1,0.548853629021323,NA,NA,NA
"experimental",10,11,"hd","lower","gewer","nw","nw","h","h",1,0.468563931950484,NA,NA,NA
"experimental",10,12,"hd","lower","fivalve","nw","nw","h","h",1,0.528530825788039,NA,NA,NA
"experimental",10,13,"hd","lower","potter","w","w","g","g",1,0.545792938602972,NA,NA,NA
"experimental",10,14,"hd","lower","comply","w","w","g","g",1,0.738505959932809,NA,NA,NA
"experimental",10,15,"hd","lower","schides","nw","nw","h","h",1,0.625741854659282,NA,NA,NA
"experimental",10,16,"hd","lower","pripend","nw","nw","h","h",1,0.519373203846044,NA,NA,NA
"experimental",10,17,"hd","lower","chone","nw","nw","h","h",1,0.577123662791564,NA,NA,NA
"experimental",10,18,"hd","lower","neliefs","nw","nw","h","h",1,0.577095289540011,NA,NA,NA
"experimental",10,19,"hd","lower","squirrel","target","target","q","g",0,0.600296168035129,NA,NA,NA
"experimental",10,20,"hd","lower","borrent","aftertar1","nw","h","q",0,0.0620776830182877,NA,NA,1
"experimental",10,21,"hd","lower","tycoon","aftertar2","w","g","q",0,0.617914154019672,NA,NA,1
"experimental",10,22,"hd","lower","ofsters","aftertar3","nw","h","h",1,0.807802224517218,NA,NA,NA
"experimental",10,23,"hd","lower","picnic","nw","w","g","g",1,0.565809974621516,NA,NA,NA
"experimental",10,24,"hd","lower","capobly","w","nw","h","h",1,0.789788522029994,NA,NA,NA
"experimental",10,25,"hd","lower","arcients","nw","nw","h","h",1,0.684482359414687,NA,NA,NA
"experimental",10,26,"hd","lower","splatter","nw","w","g","g",1,1.37575558852404,NA,NA,NA
"experimental",10,27,"hd","lower","official","w","w","g","g",1,0.879133214330068,NA,NA,NA
"experimental",10,28,"hd","lower","daining","w","nw","h","h",1,0.809478963681613,NA,NA,NA
"experimental",10,29,"hd","lower","cheathe","nw","nw","h","h",1,0.744357191055315,NA,NA,NA
"experimental",10,30,"hd","lower","forgive","nw","w","g","g",1,0.647943933872739,NA,NA,NA
"experimental",11,1,"hd","lower","vibrate","w","w","g","g",1,0.621209074786748,NA,NA,NA
"experimental",11,2,"hd","lower","gontracts","nw","nw","h","h",1,0.482497921242611,NA,NA,NA
"experimental",11,3,"hd","lower","define","w","w","g","g",1,0.557894437617506,NA,NA,NA
"experimental",11,4,"hd","lower","attrove","nw","nw","h","h",1,0.525789183680899,NA,NA,NA
"experimental",11,5,"hd","lower","butler","w","w","g","h",0,0.501067920806236,NA,NA,NA
"experimental",11,6,"hd","lower","dominion","w","w","g","g",1,0.743498748895945,NA,NA,NA
"experimental",11,7,"hd","lower","revising","w","w","g","g",1,0.465011538908584,NA,NA,NA
"experimental",11,8,"hd","lower","explosion","w","w","g","g",1,0.46883408165013,NA,NA,NA
"experimental",11,9,"hd","lower","latirizes","nw","nw","h","h",1,0.568631907051895,NA,NA,NA
"experimental",11,10,"hd","lower","contund","nw","nw","h","h",1,0.608623117383104,NA,NA,NA
"experimental",11,11,"hd","lower","patio","w","w","g","g",1,0.574582746441592,NA,NA,NA
"experimental",11,12,"hd","lower","mitten","w","w","g","g",1,0.621906634492916,NA,NA,NA
"experimental",11,13,"hd","lower","analysis","w","w","g","g",1,0.587024120948627,NA,NA,NA
"experimental",11,14,"hd","lower","quickel","nw","nw","h","g",0,0.600902269245125,NA,NA,NA
"experimental",11,15,"hd","lower","command","w","w","g","g",1,0.567474941912224,NA,NA,NA
"experimental",11,16,"hd","lower","appain","nw","nw","h","h",1,0.967452846991364,NA,NA,NA
"experimental",11,17,"hd","lower","provide","w","w","g","g",1,0.591403564438224,NA,NA,NA
"experimental",11,18,"hd","lower","crundle","nw","nw","h","h",1,0.622060876397882,NA,NA,NA
"experimental",11,19,"hd","lower","insertion","w","w","g","h",0,0.515392797096865,NA,NA,NA
"experimental",11,20,"hd","lower","require","w","w","g","g",1,0.501332939165877,NA,NA,NA
"experimental",11,21,"hd","lower","neuran","nw","nw","h","h",1,0.623975769878598,NA,NA,NA
"experimental",11,22,"hd","lower","gorilla","target","target","q","g",0,0.580477442999836,NA,NA,NA
"experimental",11,23,"hd","lower","dounger","aftertar1","nw","h","h",1,1.49195195324137,NA,NA,NA
"experimental",11,24,"hd","lower","peanimate","aftertar2","nw","h","h",1,0.845541684291675,NA,NA,NA
"experimental",11,25,"hd","lower","mandlers","aftertar3","nw","h","h",1,0.56221230509982,NA,NA,NA
"experimental",11,26,"hd","lower","collute","nw","nw","h","h",1,0.658164647684316,NA,NA,NA
"experimental",11,27,"hd","lower","galashes","nw","nw","h","h",1,0.590173855103785,NA,NA,NA
"experimental",11,28,"hd","lower","treenery","nw","nw","h","h",1,0.644793294181,NA,NA,NA
"experimental",11,29,"hd","lower","planofoad","nw","nw","h","h",1,0.712315626034979,NA,NA,NA
"experimental",11,30,"hd","lower","arrive","nw","w","g","g",1,0.458144907141104,NA,NA,NA
"experimental",12,1,"ld","upper","yash","nw","nw","h","h",1,0.638204056333052,NA,NA,NA
"experimental",12,2,"ld","upper","reconcile","w","w","g","g",1,0.706915952410782,NA,NA,NA
"experimental",12,3,"ld","upper","praiged","nw","nw","h","h",1,0.628879816940753,NA,NA,NA
"experimental",12,4,"ld","upper","geissue","nw","nw","h","h",1,0.4582043702394,NA,NA,NA
"experimental",12,5,"ld","upper","louches","nw","nw","h","h",1,0.590168421927956,NA,NA,NA
"experimental",12,6,"ld","upper","leuter","nw","nw","h","h",1,0.48473367409315,NA,NA,NA
"experimental",12,7,"ld","upper","saucer","w","w","g","h",0,0.632049774590996,NA,NA,NA
"experimental",12,8,"ld","upper","chemical","w","w","g","g",1,1.06043475029583,NA,NA,NA
"experimental",12,9,"ld","upper","nostril","w","w","g","g",1,0.56033906598168,NA,NA,NA
"experimental",12,10,"ld","upper","efcorted","nw","nw","h","h",1,0.48833919155004,NA,NA,NA
"experimental",12,11,"ld","upper","noblin","nw","nw","h","h",1,0.55497712273791,NA,NA,NA
"experimental",12,12,"ld","upper","elvisages","nw","nw","h","h",1,0.594999121080036,NA,NA,NA
"experimental",12,13,"ld","upper","porcupine","target","target","q","g",0,1.23350773779384,NA,NA,NA
"experimental",12,14,"ld","upper","maximized","aftertar1","w","g","g",1,0.679007526807254,NA,NA,NA
"experimental",12,15,"ld","upper","brighten","aftertar2","w","g","g",1,0.57819641365495,NA,NA,NA
"experimental",12,16,"ld","upper","country","aftertar3","w","g","g",1,0.60137193731498,NA,NA,NA
"experimental",12,17,"ld","upper","oppose","w","w","g","g",1,0.622936221770942,NA,NA,NA
"experimental",12,18,"ld","upper","fatho","w","nw","h","h",1,0.532173771804082,NA,NA,NA
"experimental",12,19,"ld","upper","clume","nw","nw","h","h",1,0.572193355386844,NA,NA,NA
"experimental",12,20,"ld","upper","joadbed","nw","nw","h","h",1,0.555747124832124,NA,NA,NA
"experimental",12,21,"ld","upper","throttle","nw","w","g","h",0,0.780386407088372,NA,NA,NA
"experimental",12,22,"ld","upper","unbridled","w","w","g","h",0,0.587776616128394,NA,NA,NA
"experimental",12,23,"ld","upper","elpousal","w","nw","h","h",1,0.538384196377592,NA,NA,NA
"experimental",12,24,"ld","upper","poyride","nw","nw","h","h",1,0.522464682260761,NA,NA,NA
"experimental",12,25,"ld","upper","dingly","nw","nw","h","h",1,0.458989766353625,NA,NA,NA
"experimental",12,26,"ld","upper","pariah","nw","w","g","h",0,0.455826449237065,NA,NA,NA
"experimental",12,27,"ld","upper","tucker","w","w","g","h",0,0.738559084347798,NA,NA,NA
"experimental",12,28,"ld","upper","clarms","w","nw","h","h",1,0.69096142447961,NA,NA,NA
"experimental",12,29,"ld","upper","pressing","nw","w","g","g",1,0.557543997609173,NA,NA,NA
"experimental",12,30,"ld","upper","jiggling","w","w","g","g",1,0.821543637808645,NA,NA,NA
"experimental",13,1,"hd","lower","subpoena","w","w","g","g",1,1.1073399817833,NA,NA,NA
"experimental",13,2,"hd","lower","roodies","nw","nw","h","h",1,0.764301482879091,NA,NA,NA
"experimental",13,3,"hd","lower","bropic","nw","nw","h","h",1,0.556246977241244,NA,NA,NA
"experimental",13,4,"hd","lower","efficient","w","w","g","g",1,0.564229221607093,NA,NA,NA
"experimental",13,5,"hd","lower","scabry","nw","nw","h","h",1,0.548137053177925,NA,NA,NA
"experimental",13,6,"hd","lower","tharcely","nw","nw","h","h",1,0.420762226058287,NA,NA,NA
"experimental",13,7,"hd","lower","showdown","w","w","g","h",0,0.392857120736153,NA,NA,NA
"experimental",13,8,"hd","lower","mustled","nw","nw","h","h",1,0.759577938079019,NA,NA,NA
"experimental",13,9,"hd","lower","thorifies","nw","nw","h","h",1,0.856348577668541,NA,NA,NA
"experimental",13,10,"hd","lower","upstairs","w","w","g","g",1,0.540787774065393,NA,NA,NA
"experimental",13,11,"hd","lower","angry","w","w","g","g",1,0.508362868131371,NA,NA,NA
"experimental",13,12,"hd","lower","listless","w","w","g","g",1,0.886287200861261,NA,NA,NA
"experimental",13,13,"hd","lower","chrik","nw","nw","h","h",1,0.584938686020905,NA,NA,NA
"experimental",13,14,"hd","lower","ronic","nw","nw","h","h",1,0.584149969639839,NA,NA,NA
"experimental",13,15,"hd","lower","expensive","w","w","g","g",1,0.503068839621847,NA,NA,NA
"experimental",13,16,"hd","lower","venturous","w","w","g","h",0,1.2255227768328,NA,NA,NA
"experimental",13,17,"hd","lower","uncounted","w","w","g","g",1,0.92683199167368,NA,NA,NA
"experimental",13,18,"hd","lower","sength","nw","nw","h","h",1,0.736026317754295,NA,NA,NA
"experimental",13,19,"hd","lower","seasoning","w","w","g","g",1,0.624701401015045,NA,NA,NA
"experimental",13,20,"hd","lower","pircus","nw","nw","h","h",1,0.629097445911611,NA,NA,NA
"experimental",13,21,"hd","lower","childhood","w","w","g","g",1,0.650360792657011,NA,NA,NA
"experimental",13,22,"hd","lower","emotion","w","w","g","g",1,0.686991582246264,NA,NA,NA
"experimental",13,23,"hd","lower","cabinet","w","w","g","g",1,0.497637170585222,NA,NA,NA
"experimental",13,24,"hd","lower","egect","nw","nw","h","h",1,0.68441746312601,NA,NA,NA
"experimental",13,25,"hd","lower","joses","nw","nw","h","h",1,0.607572099237586,NA,NA,NA
"experimental",13,26,"hd","lower","lightels","nw","nw","h","h",1,0.773547846722067,NA,NA,NA
"experimental",13,27,"hd","lower","glaims","nw","nw","h","h",1,0.620888819103129,NA,NA,NA
"experimental",13,28,"hd","lower","amms","nw","nw","h","h",1,0.489269774247077,NA,NA,NA
"experimental",13,29,"hd","lower","twenties","w","w","g","g",1,0.587880148363183,NA,NA,NA
"experimental",13,30,"hd","lower","acidic","w","w","g","g",1,0.578449056454701,NA,NA,NA
"experimental",14,1,"hd","lower","abstain","w","w","g","g",1,0.705631609424017,NA,NA,NA
"experimental",14,2,"hd","lower","vorm","nw","nw","h","h",1,0.555556359904585,NA,NA,NA
"experimental",14,3,"hd","lower","fards","nw","nw","h","h",1,0.506653529882897,NA,NA,NA
"experimental",14,4,"hd","lower","whirlpool","w","w","g","g",1,0.684595550628728,NA,NA,NA
"experimental",14,5,"hd","lower","mamps","nw","nw","h","h",1,0.559893847210333,NA,NA,NA
"experimental",14,6,"hd","lower","painter","w","w","g","g",1,0.959832512657158,NA,NA,NA
"experimental",14,7,"hd","lower","tracing","w","w","g","g",1,0.711833582405234,NA,NA,NA
"experimental",14,8,"hd","lower","bentler","nw","nw","h","h",1,0.585724383970955,NA,NA,NA
"experimental",14,9,"hd","lower","ausht","nw","nw","h","h",1,0.481128760337015,NA,NA,NA
"experimental",14,10,"hd","lower","kangaroo","target","target","q","g",0,0.48440647602547,1,1,NA
"experimental",14,11,"hd","lower","mandate","aftertar1","w","g","g",1,0.999676725332392,NA,NA,NA
"experimental",14,12,"hd","lower","ragtam","aftertar2","nw","h","h",1,0.686326319744694,NA,NA,NA
"experimental",14,13,"hd","lower","trake","aftertar3","nw","h","h",1,0.815982779880869,NA,NA,NA
"experimental",14,14,"hd","lower","glating","nw","nw","h","h",1,0.773957448007422,NA,NA,NA
"experimental",14,15,"hd","lower","scrib","nw","nw","h","g",0,0.93327996689186,NA,NA,NA
"experimental",14,16,"hd","lower","enabled","nw","w","g","g",1,0.758604493646999,NA,NA,NA
"experimental",14,17,"hd","lower","shurk","w","nw","h","h",1,0.574532338621793,NA,NA,NA
"experimental",14,18,"hd","lower","passet","nw","nw","h","h",1,0.565841064482811,NA,NA,NA
"experimental",14,19,"hd","lower","volume","nw","w","g","g",1,0.493754561044625,NA,NA,NA
"experimental",14,20,"hd","lower","organize","w","w","g","g",1,0.503274696704466,NA,NA,NA
"experimental",14,21,"hd","lower","derisury","w","nw","h","h",1,0.624280631542206,NA,NA,NA
"experimental",14,22,"hd","lower","formation","nw","w","g","g",1,1.25404092576355,NA,NA,NA
"experimental",14,23,"hd","lower","smabled","w","nw","h","h",1,0.730572010477772,NA,NA,NA
"experimental",14,24,"hd","lower","talent","nw","w","g","g",1,0.923756812801002,NA,NA,NA
"experimental",14,25,"hd","lower","incorrect","w","w","g","g",1,0.653160690504592,NA,NA,NA
"experimental",14,26,"hd","lower","shockwave","w","w","g","g",1,1.15311873430619,NA,NA,NA
"experimental",14,27,"hd","lower","tragedy","w","w","g","g",1,0.53706121747382,NA,NA,NA
"experimental",14,28,"hd","lower","hotplate","w","w","g","g",1,0.729685496902675,NA,NA,NA
"experimental",14,29,"hd","lower","actively","w","w","g","g",1,0.498074239600101,NA,NA,NA
"experimental",14,30,"hd","lower","adok","w","nw","h","h",1,0.565521110664122,NA,NA,NA
"experimental",15,1,"ld","upper","levels","w","w","g","g",1,0.54105128320225,NA,NA,NA
"experimental",15,2,"ld","upper","design","w","w","g","g",1,0.413726863916963,NA,NA,NA
"experimental",15,3,"ld","upper","stretches","w","w","g","g",1,0.387696506935754,NA,NA,NA
"experimental",15,4,"ld","upper","forbid","w","w","g","g",1,0.618301418886404,NA,NA,NA
"experimental",15,5,"ld","upper","target","w","w","g","g",1,0.431607755366713,NA,NA,NA
"experimental",15,6,"ld","upper","afternoon","w","w","g","g",1,0.396113405571668,NA,NA,NA
"experimental",15,7,"ld","upper","undertake","w","w","g","g",1,0.826598002808169,NA,NA,NA
"experimental",15,8,"ld","upper","cayward","nw","nw","h","h",1,0.631826410608483,NA,NA,NA
"experimental",15,9,"ld","upper","lindo","nw","nw","h","h",1,0.502189268430811,NA,NA,NA
"experimental",15,10,"ld","upper","railroad","w","w","g","g",1,1.1500553273072,NA,NA,NA
"experimental",15,11,"ld","upper","vintnel","nw","nw","h","h",1,0.678913351715892,NA,NA,NA
"experimental",15,12,"ld","upper","insole","w","w","g","h",0,0.60283798990713,NA,NA,NA
"experimental",15,13,"ld","upper","chraps","nw","nw","h","h",1,0.5771393586474,NA,NA,NA
"experimental",15,14,"ld","upper","sording","nw","nw","h","h",1,0.752424857069855,NA,NA,NA
"experimental",15,15,"ld","upper","smolvers","nw","nw","h","h",1,0.536392332869582,NA,NA,NA
"experimental",15,16,"ld","upper","peadgear","nw","nw","h","h",1,0.551984648889629,NA,NA,NA
"experimental",15,17,"ld","upper","hemoter","nw","nw","h","h",1,0.544021118796081,NA,NA,NA
"experimental",15,18,"ld","upper","spaceship","w","w","g","g",1,0.560635777874268,NA,NA,NA
"experimental",15,19,"ld","upper","moisture","w","w","g","g",1,0.536663388091256,NA,NA,NA
"experimental",15,20,"ld","upper","unsmilung","nw","nw","h","h",1,0.697283229208551,NA,NA,NA
"experimental",15,21,"ld","upper","smallash","nw","nw","h","h",1,0.603849164748681,NA,NA,NA
"experimental",15,22,"ld","upper","fuhrek","nw","nw","h","h",1,0.473796686288551,NA,NA,NA
"experimental",15,23,"ld","upper","enacted","w","w","g","g",1,0.725121929019224,NA,NA,NA
"experimental",15,24,"ld","upper","rewrite","w","w","g","g",1,0.405562306230422,NA,NA,NA
"experimental",15,25,"ld","upper","tuckel","nw","nw","h","h",1,0.780404819510295,NA,NA,NA
"experimental",15,26,"ld","upper","inforl","nw","nw","h","h",1,0.554669242628734,NA,NA,NA
"experimental",15,27,"ld","upper","intended","w","w","g","g",1,0.626737635495374,NA,NA,NA
"experimental",15,28,"ld","upper","daylight","w","w","g","g",1,0.456019025223213,NA,NA,NA
"experimental",15,29,"ld","upper","sopes","nw","nw","h","h",1,0.532064202692709,NA,NA,NA
"experimental",15,30,"ld","upper","temelity","nw","nw","h","h",1,0.557277168190922,NA,NA,NA
"experimental",16,1,"ld","upper","bickering","w","w","g","g",1,0.755542897706619,NA,NA,NA
"experimental",16,2,"ld","upper","rocket","w","w","g","g",1,0.404176543932408,NA,NA,NA
"experimental",16,3,"ld","upper","befriend","w","w","g","g",1,0.570783747476526,NA,NA,NA
"experimental",16,4,"ld","upper","rillains","nw","nw","h","h",1,0.634076651927899,NA,NA,NA
"experimental",16,5,"ld","upper","sorping","nw","nw","h","h",1,0.590626619959949,NA,NA,NA
"experimental",16,6,"ld","upper","prawls","nw","nw","h","h",1,0.501238764089067,NA,NA,NA
"experimental",16,7,"ld","upper","fudden","nw","nw","h","h",1,0.607274179943488,NA,NA,NA
"experimental",16,8,"ld","upper","endgume","nw","nw","h","h",1,0.70111452540732,NA,NA,NA
"experimental",16,9,"ld","upper","result","w","w","g","g",1,0.527131178692798,NA,NA,NA
"experimental",16,10,"ld","upper","bureaug","nw","nw","h","h",1,0.551543052235502,NA,NA,NA
"experimental",16,11,"ld","upper","thacked","nw","nw","h","h",1,0.48746626090724,NA,NA,NA
"experimental",16,12,"ld","upper","charcoal","w","w","g","g",1,0.722063955181511,NA,NA,NA
"experimental",16,13,"ld","upper","mullet","w","w","g","g",1,1.16338563013414,NA,NA,NA
"experimental",16,14,"ld","upper","eggays","nw","nw","h","h",1,0.683360709954286,NA,NA,NA
"experimental",16,15,"ld","upper","sazer","nw","nw","h","h",1,0.478647608921165,NA,NA,NA
"experimental",16,16,"ld","upper","nelvet","nw","nw","h","h",1,0.457990665236139,NA,NA,NA
"experimental",16,17,"ld","upper","inverted","w","w","g","g",1,0.51797929177701,NA,NA,NA
"experimental",16,18,"ld","upper","inversion","w","w","g","g",1,0.422363202582346,NA,NA,NA
"experimental",16,19,"ld","upper","destroy","w","w","g","g",1,0.451613019497017,NA,NA,NA
"experimental",16,20,"ld","upper","recollect","w","w","g","g",1,0.615589659253601,NA,NA,NA
"experimental",16,21,"ld","upper","warden","w","w","g","g",1,0.565495453978656,NA,NA,NA
"experimental",16,22,"ld","upper","distrust","w","w","g","g",1,0.469516851037042,NA,NA,NA
"experimental",16,23,"ld","upper","mubby","nw","nw","h","h",1,0.696839519645437,NA,NA,NA
"experimental",16,24,"ld","upper","divider","w","w","g","g",1,1.51547218186897,NA,NA,NA
"experimental",16,25,"ld","upper","disease","w","w","g","g",1,0.50022517448815,NA,NA,NA
"experimental",16,26,"ld","upper","alticles","nw","nw","h","h",1,0.67121272708755,NA,NA,NA
"experimental",16,27,"ld","upper","olerates","nw","nw","h","h",1,0.77823094453197,NA,NA,NA
"experimental",16,28,"ld","upper","spigat","nw","nw","h","h",1,0.506624251094763,NA,NA,NA
"experimental",16,29,"ld","upper","booster","w","w","g","g",1,0.66768538703036,NA,NA,NA
"experimental",16,30,"ld","upper","farochial","nw","nw","h","h",1,0.66294644822483,NA,NA,NA
"experimental",17,1,"ld","upper","cogantly","nw","nw","h","h",1,0.571383509988664,NA,NA,NA
"experimental",17,2,"ld","upper","garment","w","w","g","g",1,0.729774238803657,NA,NA,NA
"experimental",17,3,"ld","upper","miability","nw","nw","h","h",1,0.564023666374851,NA,NA,NA
"experimental",17,4,"ld","upper","stalemate","w","w","g","g",1,0.578965208405862,NA,NA,NA
"experimental",17,5,"ld","upper","gepealed","nw","nw","h","h",1,0.56229229355813,NA,NA,NA
"experimental",17,6,"ld","upper","kettle","w","w","g","g",1,0.570301401981851,NA,NA,NA
"experimental",17,7,"ld","upper","guffy","nw","nw","h","h",1,0.593596153717954,NA,NA,NA
"experimental",17,8,"ld","upper","snocks","nw","nw","h","g",0,0.472242193616694,NA,NA,NA
"experimental",17,9,"ld","upper","brimitar","nw","nw","h","h",1,0.507549098751042,NA,NA,NA
"experimental",17,10,"ld","upper","oalis","nw","nw","h","h",1,0.485520881251432,NA,NA,NA
"experimental",17,11,"ld","upper","obtuse","w","w","g","h",0,0.512193560629385,NA,NA,NA
"experimental",17,12,"ld","upper","ganter","nw","nw","h","h",1,0.986113399529131,NA,NA,NA
"experimental",17,13,"ld","upper","emission","w","w","g","g",1,0.471854626899585,NA,NA,NA
"experimental",17,14,"ld","upper","gremieres","nw","nw","h","h",1,0.595056169433519,NA,NA,NA
"experimental",17,15,"ld","upper","marvel","w","w","g","g",1,0.648515926819528,NA,NA,NA
"experimental",17,16,"ld","upper","mixture","w","w","g","g",1,1.12521604372887,NA,NA,NA
"experimental",17,17,"ld","upper","lavilion","nw","nw","h","h",1,0.535365160321817,NA,NA,NA
"experimental",17,18,"ld","upper","midday","w","w","g","g",1,0.6163249493693,NA,NA,NA
"experimental",17,19,"ld","upper","permute","w","w","g","h",0,0.606233726313803,NA,NA,NA
"experimental",17,20,"ld","upper","gund","nw","nw","h","h",1,0.572221728652949,NA,NA,NA
"experimental",17,21,"ld","upper","supplier","w","w","g","g",1,0.635479317425052,NA,NA,NA
"experimental",17,22,"ld","upper","fomrade","nw","nw","h","h",1,0.751135684608016,NA,NA,NA
"experimental",17,23,"ld","upper","crazy","w","w","g","g",1,0.503157581522828,NA,NA,NA
"experimental",17,24,"ld","upper","sefraud","nw","nw","h","h",1,0.521088880806929,NA,NA,NA
"experimental",17,25,"ld","upper","aggepting","nw","nw","h","h",1,0.594460934604285,NA,NA,NA
"experimental",17,26,"ld","upper","aligning","w","w","g","g",1,0.697052017290844,NA,NA,NA
"experimental",17,27,"ld","upper","suspect","w","w","g","g",1,0.53162200236693,NA,NA,NA
"experimental",17,28,"ld","upper","usually","w","w","g","g",1,0.444998728693463,NA,NA,NA
"experimental",17,29,"ld","upper","innocent","w","w","g","g",1,0.489601801818935,NA,NA,NA
"experimental",17,30,"ld","upper","grested","nw","nw","h","h",1,0.604285328241531,NA,NA,NA
"experimental",18,1,"hd","lower","tiery","nw","nw","h","h",1,0.945729792991187,NA,NA,NA
"experimental",18,2,"hd","lower","overwork","w","w","g","g",1,0.658449587703217,NA,NA,NA
"experimental",18,3,"hd","lower","parlayid","nw","nw","h","h",1,0.582322006986942,NA,NA,NA
"experimental",18,4,"hd","lower","noblest","w","w","g","h",0,0.54962151820655,NA,NA,NA
"experimental",18,5,"hd","lower","mabit","nw","nw","h","h",1,0.597046221897472,NA,NA,NA
"experimental",18,6,"hd","lower","tredits","nw","nw","h","h",1,0.483766266523162,NA,NA,NA
"experimental",18,7,"hd","lower","holdup","w","w","g","g",1,0.622021033079363,NA,NA,NA
"experimental",18,8,"hd","lower","pregs","nw","nw","h","h",1,0.507885050290497,NA,NA,NA
"experimental",18,9,"hd","lower","moral","w","w","g","g",1,0.517758946225513,NA,NA,NA
"experimental",18,10,"hd","lower","rascaps","nw","nw","h","h",1,0.695112372661242,NA,NA,NA
"experimental",18,11,"hd","lower","cartles","nw","nw","h","h",1,0.793746894225478,NA,NA,NA
"experimental",18,12,"hd","lower","despise","w","w","g","g",1,0.66443151695421,NA,NA,NA
"experimental",18,13,"hd","lower","worps","nw","nw","h","h",1,0.89235757017741,NA,NA,NA
"experimental",18,14,"hd","lower","gairs","nw","nw","h","h",1,0.518945793824969,NA,NA,NA
"experimental",18,15,"hd","lower","handed","w","w","g","g",1,0.583382080454612,NA,NA,NA
"experimental",18,16,"hd","lower","monopoly","w","w","g","g",1,1.00660191470524,NA,NA,NA
"experimental",18,17,"hd","lower","statute","w","w","g","g",1,0.82059494452551,NA,NA,NA
"experimental",18,18,"hd","lower","reason","w","w","g","g",1,0.465828930377029,NA,NA,NA
"experimental",18,19,"hd","lower","resonant","w","w","g","g",1,0.821807448810432,NA,NA,NA
"experimental",18,20,"hd","lower","hostade","nw","nw","h","h",1,0.81908542648307,NA,NA,NA
"experimental",18,21,"hd","lower","chicken","target","target","q","g",0,0.60845951832016,1,1,NA
"experimental",18,22,"hd","lower","clooped","aftertar1","nw","h","h",1,0.894437571929302,NA,NA,NA
"experimental",18,23,"hd","lower","intrude","aftertar2","w","g","g",1,0.825043510150863,NA,NA,NA
"experimental",18,24,"hd","lower","dabble","aftertar3","w","g","h",0,0.542399616941111,NA,NA,NA
"experimental",18,25,"hd","lower","teliever","w","nw","h","h",1,0.686001838272205,NA,NA,NA
"experimental",18,26,"hd","lower","preserve","nw","w","g","g",1,0.736670149373822,NA,NA,NA
"experimental",18,27,"hd","lower","zears","w","nw","h","h",1,0.569269399973564,NA,NA,NA
"experimental",18,28,"hd","lower","gensions","nw","nw","h","h",1,0.544651669304585,NA,NA,NA
"experimental",18,29,"hd","lower","reforest","nw","w","g","g",1,0.544156646443298,NA,NA,NA
"experimental",18,30,"hd","lower","optional","w","w","g","g",1,0.752948856912553,NA,NA,NA
"experimental",19,1,"ld","upper","trembla","nw","nw","h","h",1,0.552738653292181,NA,NA,NA
"experimental",19,2,"ld","upper","egcused","nw","nw","h","h",1,0.616647317947354,NA,NA,NA
"experimental",19,3,"ld","upper","dentures","w","w","g","g",1,0.830583239032421,NA,NA,NA
"experimental",19,4,"ld","upper","chight","nw","nw","h","h",1,0.57993201224599,NA,NA,NA
"experimental",19,5,"ld","upper","unspoken","w","w","g","g",1,0.659252490702784,NA,NA,NA
"experimental",19,6,"ld","upper","leather","w","w","g","g",1,0.495124627515906,NA,NA,NA
"experimental",19,7,"ld","upper","warmer","w","w","g","g",1,0.441784701921279,NA,NA,NA
"experimental",19,8,"ld","upper","resume","w","w","g","g",1,0.502367054112256,NA,NA,NA
"experimental",19,9,"ld","upper","befin","nw","nw","h","h",1,0.696398526692064,NA,NA,NA
"experimental",19,10,"ld","upper","setwixt","nw","nw","h","h",1,0.610109997127438,NA,NA,NA
"experimental",19,11,"ld","upper","gerby","nw","nw","h","h",1,0.543913360772422,NA,NA,NA
"experimental",19,12,"ld","upper","stooping","w","w","g","g",1,0.824553920421749,NA,NA,NA
"experimental",19,13,"ld","upper","gunrunker","nw","nw","h","h",1,0.605901698756497,NA,NA,NA
"experimental",19,14,"ld","upper","fidelity","w","w","g","h",0,0.51576466797269,NA,NA,NA
"experimental",19,15,"ld","upper","snays","nw","nw","h","h",1,0.733882627100684,NA,NA,NA
"experimental",19,16,"ld","upper","elpired","nw","nw","h","h",1,0.558466430549743,NA,NA,NA
"experimental",19,17,"ld","upper","govern","w","w","g","g",1,0.645525264000753,NA,NA,NA
"experimental",19,18,"ld","upper","tapling","nw","nw","h","h",1,0.7550940568035,NA,NA,NA
"experimental",19,19,"ld","upper","wrestle","w","w","g","g",1,0.488903034711257,NA,NA,NA
"experimental",19,20,"ld","upper","fission","w","w","g","h",0,0.723779933992773,NA,NA,NA
"experimental",19,21,"ld","upper","purport","w","w","g","h",0,0.589808624790749,NA,NA,NA
"experimental",19,22,"ld","upper","antwers","nw","nw","h","h",1,0.828701548336539,NA,NA,NA
"experimental",19,23,"ld","upper","ghists","nw","nw","h","h",1,0.617909324530046,NA,NA,NA
"experimental",19,24,"ld","upper","naxis","nw","nw","h","h",1,0.66301647585351,NA,NA,NA
"experimental",19,25,"ld","upper","lovud","nw","nw","h","h",1,0.507218580431072,NA,NA,NA
"experimental",19,26,"ld","upper","compose","w","w","g","g",1,0.525162858946715,NA,NA,NA
"experimental",19,27,"ld","upper","expounded","w","w","g","g",1,1.39795012166724,NA,NA,NA
"experimental",19,28,"ld","upper","actual","w","w","g","g",1,0.492087179009104,NA,NA,NA
"experimental",19,29,"ld","upper","prominent","w","w","g","g",1,0.734769140661228,NA,NA,NA
"experimental",19,30,"ld","upper","flooted","nw","nw","h","g",0,0.471394315973157,NA,NA,NA
"experimental",20,1,"hd","lower","digest","w","w","g","g",1,0.571254622918786,NA,NA,NA
"experimental",20,2,"hd","lower","misest","nw","nw","h","h",1,1.05841934299679,NA,NA,NA
"experimental",20,3,"hd","lower","frose","nw","nw","h","h",1,0.693394280940993,NA,NA,NA
"experimental",20,4,"hd","lower","plogging","nw","nw","h","h",1,0.560040844866307,NA,NA,NA
"experimental",20,5,"hd","lower","movie","w","w","g","g",1,0.512066786497599,NA,NA,NA
"experimental",20,6,"hd","lower","vaporize","w","w","g","g",1,0.945954364375211,NA,NA,NA
"experimental",20,7,"hd","lower","kraums","nw","nw","h","g",0,0.554668940778356,NA,NA,NA
"experimental",20,8,"hd","lower","maunches","nw","nw","h","h",1,0.705417300749104,NA,NA,NA
"experimental",20,9,"hd","lower","observer","w","w","g","g",1,0.56335598914302,NA,NA,NA
"experimental",20,10,"hd","lower","gradielts","nw","nw","h","h",1,0.843249184894376,NA,NA,NA
"experimental",20,11,"hd","lower","serving","w","w","g","g",1,0.58433771613636,NA,NA,NA
"experimental",20,12,"hd","lower","sustain","w","w","g","g",1,0.590776636061491,NA,NA,NA
"experimental",20,13,"hd","lower","volder","nw","nw","h","h",1,0.589504064962966,NA,NA,NA
"experimental",20,14,"hd","lower","phambled","nw","nw","h","h",1,0.868062208115589,NA,NA,NA
"experimental",20,15,"hd","lower","asthmatic","w","w","g","h",0,1.78343562746886,NA,NA,NA
"experimental",20,16,"hd","lower","arrow","w","w","g","g",1,0.558653573360061,NA,NA,NA
"experimental",20,17,"hd","lower","mestowal","nw","nw","h","h",1,0.582747605978511,NA,NA,NA
"experimental",20,18,"hd","lower","penalize","w","w","g","g",1,0.7419370120042,NA,NA,NA
"experimental",20,19,"hd","lower","withep","nw","nw","h","h",1,0.84568355063675,NA,NA,NA
"experimental",20,20,"hd","lower","crocodile","target","target","q","q",1,1.01027444133069,1,NA,NA
"experimental",20,21,"hd","lower","hinsome","aftertar1","nw","h","h",1,0.664131182944402,NA,NA,NA
"experimental",20,22,"hd","lower","entertain","aftertar2","w","g","g",1,0.708150793070672,NA,NA,NA
"experimental",20,23,"hd","lower","module","aftertar3","w","g","g",1,0.654127192567103,NA,NA,NA
"experimental",20,24,"hd","lower","figure","w","w","g","g",1,0.578085939021548,NA,NA,NA
"experimental",20,25,"hd","lower","outset","w","w","g","h",0,2.20138376957038,NA,NA,NA
"experimental",20,26,"hd","lower","tusied","w","nw","h","h",1,0.591388170461869,NA,NA,NA
"experimental",20,27,"hd","lower","grefab","nw","nw","h","h",1,0.573081076348899,NA,NA,NA
"experimental",20,28,"hd","lower","paying","nw","w","g","g",1,0.861300014134031,NA,NA,NA
"experimental",20,29,"hd","lower","addition","w","w","g","g",1,0.456262310879538,NA,NA,NA
"experimental",20,30,"hd","lower","lignpost","w","nw","h","h",1,0.987106161919655,NA,NA,NA
"experimental",21,1,"hd","lower","disuse","w","w","g","g",1,1.02674391382607,NA,NA,NA
"experimental",21,2,"hd","lower","collision","w","w","g","g",1,0.631818864523666,NA,NA,NA
"experimental",21,3,"hd","lower","manage","w","w","g","g",1,0.572362085746136,NA,NA,NA
"experimental",21,4,"hd","lower","veranpah","nw","nw","h","h",1,0.563630364631535,NA,NA,NA
"experimental",21,5,"hd","lower","miurnal","nw","nw","h","h",1,0.611701012850972,NA,NA,NA
"experimental",21,6,"hd","lower","culinary","w","w","g","g",1,0.641688836505637,NA,NA,NA
"experimental",21,7,"hd","lower","professor","w","w","g","g",1,0.734236689226236,NA,NA,NA
"experimental",21,8,"hd","lower","menarthe","nw","nw","h","h",1,0.598791177675594,NA,NA,NA
"experimental",21,9,"hd","lower","scatter","w","w","g","g",1,0.677468126319582,NA,NA,NA
"experimental",21,10,"hd","lower","drine","nw","nw","h","h",1,0.672765106864972,NA,NA,NA
"experimental",21,11,"hd","lower","rational","w","w","g","g",1,0.563190277171088,NA,NA,NA
"experimental",21,12,"hd","lower","pester","w","w","g","h",0,0.563983823056333,NA,NA,NA
"experimental",21,13,"hd","lower","female","w","w","g","g",1,0.658889373269631,NA,NA,NA
"experimental",21,14,"hd","lower","alomalous","nw","nw","h","h",1,0.678961344790878,NA,NA,NA
"experimental",21,15,"hd","lower","shillac","nw","nw","h","h",1,0.586250194872264,NA,NA,NA
"experimental",21,16,"hd","lower","paterways","nw","nw","h","h",1,0.680901291256305,NA,NA,NA
"experimental",21,17,"hd","lower","geadpan","nw","nw","h","h",1,0.516199020377826,NA,NA,NA
"experimental",21,18,"hd","lower","blassed","nw","nw","h","h",1,0.846188232506393,NA,NA,NA
"experimental",21,19,"hd","lower","alarm","w","w","g","g",1,0.545561424834887,NA,NA,NA
"experimental",21,20,"hd","lower","abhorrent","w","w","g","g",1,1.18623938888777,NA,NA,NA
"experimental",21,21,"hd","lower","retona","nw","nw","h","h",1,1.064415157045,NA,NA,NA
"experimental",21,22,"hd","lower","gigoho","nw","nw","h","h",1,0.596911297965562,NA,NA,NA
"experimental",21,23,"hd","lower","rebool","nw","nw","h","h",1,0.63552278286079,NA,NA,NA
"experimental",21,24,"hd","lower","nimp","nw","nw","h","h",1,0.592157870705705,NA,NA,NA
"experimental",21,25,"hd","lower","courier","w","w","g","g",1,0.710836594196735,NA,NA,NA
"experimental",21,26,"hd","lower","octopus","target","target","q","g",0,0.54480772226816,1,1,NA
"experimental",21,27,"hd","lower","ready","aftertar1","w","g","g",1,0.665398320823442,NA,NA,NA
"experimental",21,28,"hd","lower","melodic","aftertar2","w","g","g",1,0.67743764014449,NA,NA,NA
"experimental",21,29,"hd","lower","axis","aftertar3","w","g","g",1,0.568699218070833,NA,NA,NA
"experimental",21,30,"hd","lower","arrigns","w","nw","h","h",1,0.823081529117189,NA,NA,NA
"experimental",22,1,"ld","upper","eaglot","nw","nw","h","h",1,0.596946009929525,NA,NA,NA
"experimental",22,2,"ld","upper","seartfelt","nw","nw","h","h",1,0.595464563346468,NA,NA,NA
"experimental",22,3,"ld","upper","remade","w","w","g","h",0,0.498041640530573,NA,NA,NA
"experimental",22,4,"ld","upper","plunging","w","w","g","g",1,0.723811023839517,NA,NA,NA
"experimental",22,5,"ld","upper","prohibit","w","w","g","g",1,0.550184757681563,NA,NA,NA
"experimental",22,6,"ld","upper","fetching","w","w","g","g",1,0.653828065929702,NA,NA,NA
"experimental",22,7,"ld","upper","dorth","nw","nw","h","h",1,0.529679339291761,NA,NA,NA
"experimental",22,8,"ld","upper","bypassed","w","w","g","g",1,0.634926340630045,NA,NA,NA
"experimental",22,9,"ld","upper","ebuating","nw","nw","h","h",1,0.598365276848199,NA,NA,NA
"experimental",22,10,"ld","upper","plapping","nw","nw","h","h",1,0.564994092361303,NA,NA,NA
"experimental",22,11,"ld","upper","guivers","nw","nw","h","h",1,0.669737317366526,NA,NA,NA
"experimental",22,12,"ld","upper","nimono","nw","nw","h","h",1,0.529648551280843,NA,NA,NA
"experimental",22,13,"ld","upper","fravity","nw","nw","h","h",1,0.578862883528927,NA,NA,NA
"experimental",22,14,"ld","upper","agony","w","w","g","g",1,0.578209392901044,NA,NA,NA
"experimental",22,15,"ld","upper","glamorous","w","w","g","g",1,0.488495848199818,NA,NA,NA
"experimental",22,16,"ld","upper","butterfly","target","target","q","q",1,0.659136281057727,1,NA,NA
"experimental",22,17,"ld","upper","goblet","aftertar1","w","g","g",1,1.08707301953109,NA,NA,NA
"experimental",22,18,"ld","upper","anonymous","aftertar2","w","g","g",1,0.817803800106049,NA,NA,NA
"experimental",22,19,"ld","upper","slowning","aftertar3","nw","h","h",1,0.599125318112783,NA,NA,NA
"experimental",22,20,"ld","upper","prame","nw","nw","h","h",1,0.702278432931053,NA,NA,NA
"experimental",22,21,"ld","upper","thrapping","nw","nw","h","h",1,0.600263870786875,NA,NA,NA
"experimental",22,22,"ld","upper","hatred","nw","w","g","g",1,0.718910598894581,NA,NA,NA
"experimental",22,23,"ld","upper","mogus","w","nw","h","h",1,0.511275051685516,NA,NA,NA
"experimental",22,24,"ld","upper","unburnid","nw","nw","h","h",1,0.945171986706555,NA,NA,NA
"experimental",22,25,"ld","upper","legalize","nw","w","g","g",1,0.561770104774041,NA,NA,NA
"experimental",22,26,"ld","upper","misobeyed","w","nw","h","g",0,0.665721594938077,NA,NA,NA
"experimental",22,27,"ld","upper","companion","nw","w","g","g",1,0.509819865430472,NA,NA,NA
"experimental",22,28,"ld","upper","uncle","w","w","g","g",1,0.447724674944766,NA,NA,NA
"experimental",22,29,"ld","upper","euphoric","w","w","g","g",1,0.788343598454958,NA,NA,NA
"experimental",22,30,"ld","upper","buttress","w","w","g","h",0,1.0829797234328,NA,NA,NA
"experimental",23,1,"hd","lower","asclibed","nw","nw","h","h",1,0.629694189992733,NA,NA,NA
"experimental",23,2,"hd","lower","rearrange","w","w","g","g",1,0.59515155191184,NA,NA,NA
"experimental",23,3,"hd","lower","stagger","w","w","g","h",0,0.697795457177563,NA,NA,NA
"experimental",23,4,"hd","lower","pender","nw","nw","h","h",1,0.756359383638483,NA,NA,NA
"experimental",23,5,"hd","lower","dileting","nw","nw","h","h",1,0.508430782851065,NA,NA,NA
"experimental",23,6,"hd","lower","ifling","nw","nw","h","h",1,0.64629254952888,NA,NA,NA
"experimental",23,7,"hd","lower","sliding","w","w","g","g",1,0.682172956818249,NA,NA,NA
"experimental",23,8,"hd","lower","bumbo","nw","nw","h","h",1,0.64527745070518,NA,NA,NA
"experimental",23,9,"hd","lower","chonemic","nw","nw","h","h",1,0.817915482126409,NA,NA,NA
"experimental",23,10,"hd","lower","fuestion","nw","nw","h","h",1,0.519206586381188,NA,NA,NA
"experimental",23,11,"hd","lower","emergence","w","w","g","g",1,1.00858321369742,NA,NA,NA
"experimental",23,12,"hd","lower","poughest","nw","nw","h","h",1,0.542546010896331,NA,NA,NA
"experimental",23,13,"hd","lower","theles","nw","nw","h","h",1,0.495263475371758,NA,NA,NA
"experimental",23,14,"hd","lower","atabaster","nw","nw","h","h",1,0.4177776001452,NA,NA,NA
"experimental",23,15,"hd","lower","neally","nw","nw","h","h",1,0.639071251964197,NA,NA,NA
"experimental",23,16,"hd","lower","derived","w","w","g","g",1,0.78699164261343,NA,NA,NA
"experimental",23,17,"hd","lower","cervical","w","w","g","g",1,0.87343743245583,NA,NA,NA
"experimental",23,18,"hd","lower","glates","nw","nw","h","h",1,0.700837433309061,NA,NA,NA
"experimental",23,19,"hd","lower","category","w","w","g","g",1,0.518563056597486,NA,NA,NA
"experimental",23,20,"hd","lower","triangle","w","w","g","g",1,0.656073477730388,NA,NA,NA
"experimental",23,21,"hd","lower","lentils","w","w","g","g",1,0.69998895196477,NA,NA,NA
"experimental",23,22,"hd","lower","cherry","w","w","g","g",1,0.478588447644142,NA,NA,NA
"experimental",23,23,"hd","lower","sponto","nw","nw","h","h",1,0.584860206785379,NA,NA,NA
"experimental",23,24,"hd","lower","ludictous","nw","nw","h","h",1,0.855666713789105,NA,NA,NA
"experimental",23,25,"hd","lower","lifetime","w","w","g","g",1,0.643503819854232,NA,NA,NA
"experimental",23,26,"hd","lower","vinegar","w","w","g","g",1,0.577091969258618,NA,NA,NA
"experimental",23,27,"hd","lower","overflow","w","w","g","g",1,0.519334567943588,NA,NA,NA
"experimental",23,28,"hd","lower","icepick","w","w","g","g",1,0.800708304799628,NA,NA,NA
"experimental",23,29,"hd","lower","recipus","nw","nw","h","h",1,0.574663942301413,NA,NA,NA
"experimental",23,30,"hd","lower","caution","w","w","g","g",1,0.517922847095178,NA,NA,NA
"experimental",24,1,"hd","lower","phraining","nw","nw","h","h",1,0.686048322124407,NA,NA,NA
"experimental",24,2,"hd","lower","except","w","w","g","g",1,0.936769878375344,NA,NA,NA
"experimental",24,3,"hd","lower","extruded","w","w","g","h",0,1.4894065092376,NA,NA,NA
"experimental",24,4,"hd","lower","fomes","nw","nw","h","h",1,0.499961665365845,NA,NA,NA
"experimental",24,5,"hd","lower","detrabe","nw","nw","h","h",1,0.598605544044403,NA,NA,NA
"experimental",24,6,"hd","lower","happen","w","w","g","g",1,0.485258277651155,NA,NA,NA
"experimental",24,7,"hd","lower","scrooner","nw","nw","h","h",1,0.63191545434529,NA,NA,NA
"experimental",24,8,"hd","lower","ascending","w","w","g","g",1,0.684443119796924,NA,NA,NA
"experimental",24,9,"hd","lower","seighing","nw","nw","h","h",1,0.568818144325633,NA,NA,NA
"experimental",24,10,"hd","lower","stelled","nw","nw","h","h",1,0.550313946587266,NA,NA,NA
"experimental",24,11,"hd","lower","fuintets","nw","nw","h","h",1,0.470891746983398,NA,NA,NA
"experimental",24,12,"hd","lower","veirs","nw","nw","h","h",1,0.352865306718741,NA,NA,NA
"experimental",24,13,"hd","lower","failure","w","w","g","g",1,0.536912408773787,NA,NA,NA
"experimental",24,14,"hd","lower","prama","nw","nw","h","h",1,0.633958631224232,NA,NA,NA
"experimental",24,15,"hd","lower","flamingo","target","target","q","g",0,0.615379878203385,1,1,NA
"experimental",24,16,"hd","lower","illness","aftertar1","w","g","g",1,0.805323186010355,NA,NA,NA
"experimental",24,17,"hd","lower","ounwit","aftertar2","nw","h","h",1,0.555263571994146,NA,NA,NA
"experimental",24,18,"hd","lower","seldom","aftertar3","w","g","g",1,0.867205577000277,NA,NA,NA
"experimental",24,19,"hd","lower","chining","w","nw","h","h",1,0.870615198218729,NA,NA,NA
"experimental",24,20,"hd","lower","uncarled","nw","nw","h","h",1,0.680923023988726,NA,NA,NA
"experimental",24,21,"hd","lower","bedding","nw","w","g","g",1,0.684150030021556,NA,NA,NA
"experimental",24,22,"hd","lower","teamwork","w","w","g","g",1,0.598825889610453,NA,NA,NA
"experimental",24,23,"hd","lower","bloodless","w","w","g","g",1,0.701399767276598,NA,NA,NA
"experimental",24,24,"hd","lower","alchemist","w","w","g","g",1,1.0874276853574,NA,NA,NA
"experimental",24,25,"hd","lower","computer","w","w","g","g",1,0.490046416874975,NA,NA,NA
"experimental",24,26,"hd","lower","hangar","w","w","g","g",1,0.532682377641322,NA,NA,NA
"experimental",24,27,"hd","lower","trecious","w","nw","h","h",1,0.997139732935466,NA,NA,NA
"experimental",24,28,"hd","lower","earmaff","nw","nw","h","h",1,0.564611053327098,NA,NA,NA
"experimental",24,29,"hd","lower","wimpid","nw","nw","h","h",1,0.491628075425979,NA,NA,NA
"experimental",24,30,"hd","lower","landing","nw","w","g","g",1,0.67827978276182,NA,NA,NA
"experimental",25,1,"ld","upper","attract","w","w","g","g",1,0.570093130139867,NA,NA,NA
"experimental",25,2,"ld","upper","puggers","nw","nw","h","h",1,0.616270919446833,NA,NA,NA
"experimental",25,3,"ld","upper","arranged","w","w","g","g",1,0.485253448161529,NA,NA,NA
"experimental",25,4,"ld","upper","parent","w","w","g","g",1,0.552600409107981,NA,NA,NA
"experimental",25,5,"ld","upper","dusmy","nw","nw","h","h",1,0.561142270831624,NA,NA,NA
"experimental",25,6,"ld","upper","rumblos","nw","nw","h","h",1,0.553049853682751,NA,NA,NA
"experimental",25,7,"ld","upper","nature","w","w","g","g",1,0.489009283512132,NA,NA,NA
"experimental",25,8,"ld","upper","slooch","nw","nw","h","h",1,0.627611471660202,NA,NA,NA
"experimental",25,9,"ld","upper","rawhide","w","w","g","h",0,0.480948258074932,NA,NA,NA
"experimental",25,10,"ld","upper","shivering","w","w","g","g",1,0.972278112953063,NA,NA,NA
"experimental",25,11,"ld","upper","runabouk","nw","nw","h","h",1,0.579548369511031,NA,NA,NA
"experimental",25,12,"ld","upper","repayment","w","w","g","g",1,1.27390462544281,NA,NA,NA
"experimental",25,13,"ld","upper","undimmec","nw","nw","h","h",1,0.589073938346701,NA,NA,NA
"experimental",25,14,"ld","upper","matter","w","w","g","g",1,0.579663975484436,NA,NA,NA
"experimental",25,15,"ld","upper","bingu","nw","nw","h","h",1,0.483024335844675,NA,NA,NA
"experimental",25,16,"ld","upper","fashing","nw","nw","h","g",0,0.510314586485038,NA,NA,NA
"experimental",25,17,"ld","upper","troven","nw","nw","h","h",1,0.592273778485833,NA,NA,NA
"experimental",25,18,"ld","upper","student","w","w","g","g",1,0.518866409052862,NA,NA,NA
"experimental",25,19,"ld","upper","hanling","nw","nw","h","h",1,0.640199541958282,NA,NA,NA
"experimental",25,20,"ld","upper","fillings","w","w","g","g",1,0.804840840515681,NA,NA,NA
"experimental",25,21,"ld","upper","index","w","w","g","g",1,0.490801024978282,NA,NA,NA
"experimental",25,22,"ld","upper","carnival","w","w","g","g",1,0.653461326379329,NA,NA,NA
"experimental",25,23,"ld","upper","sengry","nw","nw","h","h",1,0.560459803265985,NA,NA,NA
"experimental",25,24,"ld","upper","desert","w","w","g","g",1,0.968465531070251,NA,NA,NA
"experimental",25,25,"ld","upper","thaken","nw","nw","h","h",1,0.591736195696285,NA,NA,NA
"experimental",25,26,"ld","upper","hodels","nw","nw","h","h",1,0.629141816869378,NA,NA,NA
"experimental",25,27,"ld","upper","irfirm","nw","nw","h","h",1,0.562485473230481,NA,NA,NA
"experimental",25,28,"ld","upper","lenie","nw","nw","h","h",1,0.51500764512457,NA,NA,NA
"experimental",25,29,"ld","upper","servant","w","w","g","g",1,0.685643248492852,NA,NA,NA
"experimental",25,30,"ld","upper","punctual","w","w","g","g",1,0.775297028274508,NA,NA,NA
"experimental",26,1,"ld","upper","clattest","nw","nw","h","h",1,0.607089150056709,NA,NA,NA
"experimental",26,2,"ld","upper","acorn","w","w","g","g",1,0.628999045031378,NA,NA,NA
"experimental",26,3,"ld","upper","embrace","w","w","g","g",1,0.514315216743853,NA,NA,NA
"experimental",26,4,"ld","upper","attended","w","w","g","g",1,0.596287991706049,NA,NA,NA
"experimental",26,5,"ld","upper","inside","w","w","g","g",1,0.426090060995193,NA,NA,NA
"experimental",26,6,"ld","upper","gaioty","nw","nw","h","h",1,0.599364679772407,NA,NA,NA
"experimental",26,7,"ld","upper","hindsight","w","w","g","g",1,0.78185879837838,NA,NA,NA
"experimental",26,8,"ld","upper","nearsipe","nw","nw","h","h",1,0.773210989689687,NA,NA,NA
"experimental",26,9,"ld","upper","laser","w","w","g","g",1,0.652493616973516,NA,NA,NA
"experimental",26,10,"ld","upper","rander","nw","nw","h","h",1,0.608521396206925,NA,NA,NA
"experimental",26,11,"ld","upper","widely","w","w","g","g",1,0.686455810471671,NA,NA,NA
"experimental",26,12,"ld","upper","aviation","w","w","g","g",1,0.601047455827938,NA,NA,NA
"experimental",26,13,"ld","upper","triplet","w","w","g","g",1,0.511076438822784,NA,NA,NA
"experimental",26,14,"ld","upper","larger","w","w","g","g",1,0.672978208167478,NA,NA,NA
"experimental",26,15,"ld","upper","sonkers","nw","nw","h","h",1,0.595427738444414,NA,NA,NA
"experimental",26,16,"ld","upper","cassette","w","w","g","g",1,1.32089950435329,NA,NA,NA
"experimental",26,17,"ld","upper","series","w","w","g","g",1,0.546155150484992,NA,NA,NA
"experimental",26,18,"ld","upper","ignoble","w","w","g","h",0,1.01951748490683,NA,NA,NA
"experimental",26,19,"ld","upper","dumult","nw","nw","h","h",1,0.561313114099903,NA,NA,NA
"experimental",26,20,"ld","upper","oleandur","nw","nw","h","h",1,0.537242625257932,NA,NA,NA
"experimental",26,21,"ld","upper","slimped","nw","nw","h","h",1,0.641864207398612,NA,NA,NA
"experimental",26,22,"ld","upper","amkles","nw","nw","h","h",1,0.68656568141887,NA,NA,NA
"experimental",26,23,"ld","upper","encrusted","w","w","g","h",0,0.537278242758475,NA,NA,NA
"experimental",26,24,"ld","upper","kilotin","nw","nw","h","h",1,0.504849714721786,NA,NA,NA
"experimental",26,25,"ld","upper","bulmed","nw","nw","h","h",1,0.586944434326142,NA,NA,NA
"experimental",26,26,"ld","upper","razelle","nw","nw","h","h",1,0.521398873795988,NA,NA,NA
"experimental",26,27,"ld","upper","arbitrary","w","w","g","g",1,0.674647703097435,NA,NA,NA
"experimental",26,28,"ld","upper","topefuls","nw","nw","h","h",1,0.789921031217091,NA,NA,NA
"experimental",26,29,"ld","upper","gonesty","nw","nw","h","h",1,0.588558691961225,NA,NA,NA
"experimental",26,30,"ld","upper","godomy","nw","nw","h","h",1,0.435178560845088,NA,NA,NA
"experimental",27,1,"ld","upper","tenpince","nw","nw","h","h",1,0.590716871083714,NA,NA,NA
"experimental",27,2,"ld","upper","lawsuit","w","w","g","g",1,0.589344993582927,NA,NA,NA
"experimental",27,3,"ld","upper","burning","w","w","g","g",1,0.508044121670537,NA,NA,NA
"experimental",27,4,"ld","upper","fraft","nw","nw","h","g",0,0.494038293691119,NA,NA,NA
"experimental",27,5,"ld","upper","ements","nw","nw","h","h",1,0.792647883004975,NA,NA,NA
"experimental",27,6,"ld","upper","jungle","w","w","g","g",1,0.582175311195897,NA,NA,NA
"experimental",27,7,"ld","upper","susher","nw","nw","h","h",1,0.653420275717508,NA,NA,NA
"experimental",27,8,"ld","upper","pypecast","nw","nw","h","h",1,0.666081995761488,NA,NA,NA
"experimental",27,9,"ld","upper","castaway","w","w","g","g",1,0.622614758729469,NA,NA,NA
"experimental",27,10,"ld","upper","bluads","nw","nw","h","h",1,0.578782291384414,NA,NA,NA
"experimental",27,11,"ld","upper","cemoir","nw","nw","h","h",1,0.458049826527713,NA,NA,NA
"experimental",27,12,"ld","upper","pretzel","w","w","g","g",1,0.622062989277765,NA,NA,NA
"experimental",27,13,"ld","upper","urgency","w","w","g","g",1,0.555373442912241,NA,NA,NA
"experimental",27,14,"ld","upper","currowing","nw","nw","h","h",1,0.603335729421815,NA,NA,NA
"experimental",27,15,"ld","upper","potent","w","w","g","h",0,0.489361836429453,NA,NA,NA
"experimental",27,16,"ld","upper","catgup","nw","nw","h","h",1,0.515937624120852,NA,NA,NA
"experimental",27,17,"ld","upper","turning","w","w","g","g",1,0.557769474515226,NA,NA,NA
"experimental",27,18,"ld","upper","purpose","w","w","g","g",1,0.437806408066535,NA,NA,NA
"experimental",27,19,"ld","upper","sequence","w","w","g","g",1,0.569573054235661,NA,NA,NA
"experimental",27,20,"ld","upper","brongs","nw","nw","h","h",1,0.528769885626389,NA,NA,NA
"experimental",27,21,"ld","upper","ounside","nw","nw","h","h",1,0.682118926866679,NA,NA,NA
"experimental",27,22,"ld","upper","medium","w","w","g","g",1,0.669359107763739,NA,NA,NA
"experimental",27,23,"ld","upper","bother","w","w","g","g",1,1.20873123762431,NA,NA,NA
"experimental",27,24,"ld","upper","carony","nw","nw","h","h",1,1.11857428518124,NA,NA,NA
"experimental",27,25,"ld","upper","diatonic","w","w","g","h",0,1.07994499153574,NA,NA,NA
"experimental",27,26,"ld","upper","ifkling","nw","nw","h","h",1,0.555237311607925,NA,NA,NA
"experimental",27,27,"ld","upper","roaned","nw","nw","h","h",1,0.483248907228699,NA,NA,NA
"experimental",27,28,"ld","upper","regards","w","w","g","g",1,0.589562924375059,NA,NA,NA
"experimental",27,29,"ld","upper","party","w","w","g","g",1,0.516121144813951,NA,NA,NA
"experimental",27,30,"ld","upper","crudios","nw","nw","h","h",1,0.756967899622396,NA,NA,NA
"experimental",28,1,"hd","lower","slightly","w","w","g","g",1,0.582011712162057,NA,NA,NA
"experimental",28,2,"hd","lower","mennel","nw","nw","h","h",1,0.484464731765911,NA,NA,NA
"experimental",28,3,"hd","lower","doads","nw","nw","h","h",1,0.471898092335323,NA,NA,NA
"experimental",28,4,"hd","lower","solidity","w","w","g","g",1,0.586280681047356,NA,NA,NA
"experimental",28,5,"hd","lower","urique","nw","nw","h","h",1,0.808929307153448,NA,NA,NA
"experimental",28,6,"hd","lower","mystery","w","w","g","g",1,0.534822748042643,NA,NA,NA
"experimental",28,7,"hd","lower","batire","nw","nw","h","h",1,0.511478795844596,NA,NA,NA
"experimental",28,8,"hd","lower","integral","w","w","g","g",1,0.553431383537827,NA,NA,NA
"experimental",28,9,"hd","lower","urgent","w","w","g","g",1,0.497462705185171,NA,NA,NA
"experimental",28,10,"hd","lower","podes","nw","nw","h","h",1,0.492074501584284,NA,NA,NA
"experimental",28,11,"hd","lower","brudent","nw","nw","h","h",1,0.789855531213107,NA,NA,NA
"experimental",28,12,"hd","lower","amplifier","w","w","g","g",1,0.869326327607268,NA,NA,NA
"experimental",28,13,"hd","lower","violate","w","w","g","g",1,0.575722506502643,NA,NA,NA
"experimental",28,14,"hd","lower","expected","w","w","g","g",1,0.551026598463068,NA,NA,NA
"experimental",28,15,"hd","lower","graiking","nw","nw","h","h",1,0.526993840030627,NA,NA,NA
"experimental",28,16,"hd","lower","brouhuha","nw","nw","h","h",1,0.544288551900536,NA,NA,NA
"experimental",28,17,"hd","lower","spider","target","target","q","q",1,0.584942308138125,1,NA,NA
"experimental",28,18,"hd","lower","ubefully","aftertar1","nw","h","h",1,0.967675003630575,NA,NA,NA
"experimental",28,19,"hd","lower","erony","aftertar2","nw","h","h",1,0.526896646508249,NA,NA,NA
"experimental",28,20,"hd","lower","plymie","aftertar3","nw","h","h",1,0.527026740950532,NA,NA,NA
"experimental",28,21,"hd","lower","infested","nw","w","g","h",0,0.559461004013428,NA,NA,NA
"experimental",28,22,"hd","lower","deceit","w","w","g","g",1,0.631606065056985,NA,NA,NA
"experimental",28,23,"hd","lower","rasuals","w","nw","h","h",1,0.781499906763202,NA,NA,NA
"experimental",28,24,"hd","lower","chiffol","nw","nw","h","h",1,0.605026051547611,NA,NA,NA
"experimental",28,25,"hd","lower","colicky","nw","w","g","h",0,0.498992446722696,NA,NA,NA
"experimental",28,26,"hd","lower","cavern","w","w","g","g",1,1.12563198371208,NA,NA,NA
"experimental",28,27,"hd","lower","schinter","w","nw","h","h",1,0.526919586583972,NA,NA,NA
"experimental",28,28,"hd","lower","usage","nw","w","g","g",1,0.720270100835478,NA,NA,NA
"experimental",28,29,"hd","lower","remover","w","w","g","g",1,0.57748315812205,NA,NA,NA
"experimental",28,30,"hd","lower","previous","w","w","g","g",1,0.511955406313064,NA,NA,NA
"experimental",29,1,"ld","upper","podges","nw","nw","h","h",1,0.62628034298541,NA,NA,NA
"experimental",29,2,"ld","upper","draze","nw","nw","h","h",1,0.719532999646617,NA,NA,NA
"experimental",29,3,"ld","upper","ralliep","nw","nw","h","h",1,0.50484367783065,NA,NA,NA
"experimental",29,4,"ld","upper","downtrund","nw","nw","h","h",1,0.594862989790272,NA,NA,NA
"experimental",29,5,"ld","upper","minimum","w","w","g","g",1,0.769407764892094,NA,NA,NA
"experimental",29,6,"ld","upper","trallion","nw","nw","h","h",1,0.583950149419252,NA,NA,NA
"experimental",29,7,"ld","upper","pexts","nw","nw","h","h",1,0.43041064508725,NA,NA,NA
"experimental",29,8,"ld","upper","buaint","nw","nw","h","h",1,0.531715875607915,NA,NA,NA
"experimental",29,9,"ld","upper","latter","w","w","g","h",0,0.452976747241337,NA,NA,NA
"experimental",29,10,"ld","upper","gettle","nw","nw","h","g",0,0.512987408350455,NA,NA,NA
"experimental",29,11,"ld","upper","telecast","w","w","g","g",1,0.665792528074235,NA,NA,NA
"experimental",29,12,"ld","upper","surface","w","w","g","g",1,0.501921835326357,NA,NA,NA
"experimental",29,13,"ld","upper","boutique","w","w","g","g",1,0.519901429535821,NA,NA,NA
"experimental",29,14,"ld","upper","advantage","w","w","g","g",1,0.802352746715769,NA,NA,NA
"experimental",29,15,"ld","upper","tritical","nw","nw","h","h",1,0.736161241686204,NA,NA,NA
"experimental",29,16,"ld","upper","slutches","nw","nw","h","h",1,0.584004179370822,NA,NA,NA
"experimental",29,17,"ld","upper","number","w","w","g","g",1,0.606453770044027,NA,NA,NA
"experimental",29,18,"ld","upper","aqueduct","w","w","g","h",0,0.675351601530565,NA,NA,NA
"experimental",29,19,"ld","upper","audience","w","w","g","g",1,0.57578951571486,NA,NA,NA
"experimental",29,20,"ld","upper","cills","nw","nw","h","h",1,0.623025567358127,NA,NA,NA
"experimental",29,21,"ld","upper","educate","w","w","g","g",1,0.500565049966099,NA,NA,NA
"experimental",29,22,"ld","upper","loneliest","w","w","g","g",1,0.982250107947038,NA,NA,NA
"experimental",29,23,"ld","upper","argue","w","w","g","g",1,0.445654030365404,NA,NA,NA
"experimental",29,24,"ld","upper","permeable","w","w","g","g",1,0.729394821857568,NA,NA,NA
"experimental",29,25,"ld","upper","quittint","nw","nw","h","h",1,0.59474255432724,NA,NA,NA
"experimental",29,26,"ld","upper","glocked","nw","nw","h","h",1,0.57724198536016,NA,NA,NA
"experimental",29,27,"ld","upper","houted","nw","nw","h","h",1,0.480560087686172,NA,NA,NA
"experimental",29,28,"ld","upper","offonents","nw","nw","h","h",1,0.779889271274442,NA,NA,NA
"experimental",29,29,"ld","upper","forgery","w","w","g","g",1,0.707199081341969,NA,NA,NA
"experimental",29,30,"ld","upper","arrival","w","w","g","g",1,0.421136209828546,NA,NA,NA
"experimental",30,1,"hd","lower","ilcurring","nw","nw","h","h",1,0.744717591878725,NA,NA,NA
"experimental",30,2,"hd","lower","deeper","w","w","g","g",1,0.59354816065752,NA,NA,NA
"experimental",30,3,"hd","lower","rationale","w","w","g","g",1,0.504917025769828,NA,NA,NA
"experimental",30,4,"hd","lower","rapport","w","w","g","h",0,0.56327750987839,NA,NA,NA
"experimental",30,5,"hd","lower","preight","nw","nw","h","h",1,0.515168527577771,NA,NA,NA
"experimental",30,6,"hd","lower","seeming","w","w","g","g",1,0.669018628599588,NA,NA,NA
"experimental",30,7,"hd","lower","grummer","nw","nw","h","h",1,0.86447299021529,NA,NA,NA
"experimental",30,8,"hd","lower","cessation","w","w","g","h",0,0.87644348925096,NA,NA,NA
"experimental",30,9,"hd","lower","season","w","w","g","g",1,0.526752365432912,NA,NA,NA
"experimental",30,10,"hd","lower","selongs","nw","nw","h","h",1,0.496074830007274,NA,NA,NA
"experimental",30,11,"hd","lower","ensues","w","w","g","h",0,0.426672316592885,NA,NA,NA
"experimental",30,12,"hd","lower","refebs","nw","nw","h","h",1,0.487999014236266,NA,NA,NA
"experimental",30,13,"hd","lower","browting","nw","nw","h","h",1,0.602661109762266,NA,NA,NA
"experimental",30,14,"hd","lower","awful","w","w","g","g",1,0.600611292378744,NA,NA,NA
"experimental",30,15,"hd","lower","brank","nw","nw","h","h",1,0.630583721998846,NA,NA,NA
"experimental",30,16,"hd","lower","caterpillar","target","target","q","q",1,0.6918376753747,1,NA,NA
"experimental",30,17,"hd","lower","frunted","aftertar1","nw","h","h",1,0.638483261340298,NA,NA,NA
"experimental",30,18,"hd","lower","clypaper","aftertar2","nw","h","h",1,0.674216670973692,NA,NA,NA
"experimental",30,19,"hd","lower","entitle","aftertar3","w","g","g",1,0.646483616292244,NA,NA,NA
"experimental",30,20,"hd","lower","vivid","w","w","g","g",1,0.530085922160652,NA,NA,NA
"experimental",30,21,"hd","lower","birn","w","nw","h","h",1,0.563402472966118,NA,NA,NA
"experimental",30,22,"hd","lower","portify","nw","nw","h","h",1,0.635353750636568,NA,NA,NA
"experimental",30,23,"hd","lower","suburb","nw","w","g","g",1,0.78397773791221,NA,NA,NA
"experimental",30,24,"hd","lower","brials","w","nw","h","h",1,0.678637165139662,NA,NA,NA
"experimental",30,25,"hd","lower","goltish","nw","nw","h","h",1,0.408837305323687,NA,NA,NA
"experimental",30,26,"hd","lower","coupling","nw","w","g","g",1,0.606780364440056,NA,NA,NA
"experimental",30,27,"hd","lower","demon","w","w","g","h",0,0.469131095393095,NA,NA,NA
"experimental",30,28,"hd","lower","beggarlan","w","nw","h","h",1,0.577130001503974,NA,NA,NA
"experimental",30,29,"hd","lower","issue","nw","w","g","g",1,0.544536667061038,NA,NA,NA
"experimental",30,30,"hd","lower","staircase","w","w","g","g",1,0.544140346901258,NA,NA,NA
"experimental",31,1,"hd","lower","tasher","nw","nw","h","h",1,0.569231669564033,NA,NA,NA
"experimental",31,2,"hd","lower","harmful","w","w","g","g",1,0.792577251675539,NA,NA,NA
"experimental",31,3,"hd","lower","pillage","w","w","g","h",0,0.751042415067786,NA,NA,NA
"experimental",31,4,"hd","lower","harder","w","w","g","g",1,0.582163237471832,NA,NA,NA
"experimental",31,5,"hd","lower","curricula","w","w","g","h",0,0.765343143895734,NA,NA,NA
"experimental",31,6,"hd","lower","wrecber","nw","nw","h","h",1,0.565252168336883,NA,NA,NA
"experimental",31,7,"hd","lower","stuggard","nw","nw","h","h",1,0.525267598568462,NA,NA,NA
"experimental",31,8,"hd","lower","heuls","nw","nw","h","h",1,0.430587827082491,NA,NA,NA
"experimental",31,9,"hd","lower","sheerio","nw","nw","h","h",1,0.563918323081452,NA,NA,NA
"experimental",31,10,"hd","lower","havel","nw","nw","h","h",1,0.459891070233425,NA,NA,NA
"experimental",31,11,"hd","lower","aefated","nw","nw","h","h",1,0.543872008245671,NA,NA,NA
"experimental",31,12,"hd","lower","puyer","nw","nw","h","h",1,0.480471043905709,NA,NA,NA
"experimental",31,13,"hd","lower","century","w","w","g","g",1,0.755846250161994,NA,NA,NA
"experimental",31,14,"hd","lower","digested","w","w","g","g",1,0.546791436005151,NA,NA,NA
"experimental",31,15,"hd","lower","fullity","nw","nw","h","h",1,1.41142983688042,NA,NA,NA
"experimental",31,16,"hd","lower","impirt","nw","nw","h","h",1,0.520161014719633,NA,NA,NA
"experimental",31,17,"hd","lower","expired","w","w","g","g",1,0.521926193934632,NA,NA,NA
"experimental",31,18,"hd","lower","whirling","w","w","g","g",1,0.579999926994788,NA,NA,NA
"experimental",31,19,"hd","lower","jaguar","target","target","q","h",0,0.547270159382606,NA,NA,NA
"experimental",31,20,"hd","lower","fisco","aftertar1","nw","h","q",0,0.643930324353278,NA,NA,1
"experimental",31,21,"hd","lower","handbook","aftertar2","w","g","g",1,1.14369277373771,NA,NA,NA
"experimental",31,22,"hd","lower","ipiocy","aftertar3","nw","h","h",1,0.593235149193788,NA,NA,NA
"experimental",31,23,"hd","lower","miracle","nw","w","g","g",1,0.526823600434,NA,NA,NA
"experimental",31,24,"hd","lower","outflow","w","w","g","g",1,0.912167843576754,NA,NA,NA
"experimental",31,25,"hd","lower","haurded","w","nw","h","h",1,0.66611670772545,NA,NA,NA
"experimental",31,26,"hd","lower","guitar","nw","w","g","g",1,0.582022578513715,NA,NA,NA
"experimental",31,27,"hd","lower","natch","w","nw","h","h",1,0.517306483205175,NA,NA,NA
"experimental",31,28,"hd","lower","earnest","nw","w","g","g",1,1.13465679463116,NA,NA,NA
"experimental",31,29,"hd","lower","classify","w","w","g","g",1,0.551303690561326,NA,NA,NA
"experimental",31,30,"hd","lower","twarfs","w","nw","h","h",1,0.55128165599308,NA,NA,NA
"experimental",32,1,"ld","upper","standard","w","w","g","g",1,0.582208815816557,NA,NA,NA
"experimental",32,2,"ld","upper","comment","w","w","g","g",1,0.485501261457102,NA,NA,NA
"experimental",32,3,"ld","upper","mining","w","w","g","g",1,0.752115769602824,NA,NA,NA
"experimental",32,4,"ld","upper","humanize","w","w","g","g",1,0.616159237426473,NA,NA,NA
"experimental",32,5,"ld","upper","boulder","w","w","g","g",1,0.42893010401167,NA,NA,NA
"experimental",32,6,"ld","upper","gymnasium","w","w","g","g",1,1.12984420606517,NA,NA,NA
"experimental",32,7,"ld","upper","ufionize","nw","nw","h","h",1,0.819198617711663,NA,NA,NA
"experimental",32,8,"ld","upper","army","w","w","g","h",0,0.465120806155028,NA,NA,NA
"experimental",32,9,"ld","upper","burrowing","w","w","g","g",1,1.22869062158861,NA,NA,NA
"experimental",32,10,"ld","upper","bettled","nw","nw","h","h",1,0.730284957564436,NA,NA,NA
"experimental",32,11,"ld","upper","ireology","nw","nw","h","h",1,0.555684945138637,NA,NA,NA
"experimental",32,12,"ld","upper","unamufed","nw","nw","h","h",1,0.507536421355326,NA,NA,NA
"experimental",32,13,"ld","upper","finish","w","w","g","g",1,0.541566529602278,NA,NA,NA
"experimental",32,14,"ld","upper","coyote","target","target","q","h",0,0.518180923070759,1,1,NA
"experimental",32,15,"ld","upper","halms","aftertar1","nw","h","h",1,0.847481027070899,NA,NA,NA
"experimental",32,16,"ld","upper","cripet","aftertar2","nw","h","h",1,1.00318293637247,NA,NA,NA
"experimental",32,17,"ld","upper","scack","aftertar3","nw","h","h",1,0.721042215853231,NA,NA,NA
"experimental",32,18,"ld","upper","pallir","nw","nw","h","h",1,0.522423027898185,NA,NA,NA
"experimental",32,19,"ld","upper","describe","nw","w","g","g",1,0.507629087223904,NA,NA,NA
"experimental",32,20,"ld","upper","contact","w","w","g","g",1,0.573583041667007,NA,NA,NA
"experimental",32,21,"ld","upper","typical","w","w","g","g",1,0.532924154103966,NA,NA,NA
"experimental",32,22,"ld","upper","pived","w","nw","h","h",1,0.654248835373437,NA,NA,NA
"experimental",32,23,"ld","upper","blerapies","nw","nw","h","h",1,0.522275426570559,NA,NA,NA
"experimental",32,24,"ld","upper","peags","nw","nw","h","h",1,0.674596389755607,NA,NA,NA
"experimental",32,25,"ld","upper","balign","nw","nw","h","h",1,0.510805685422383,NA,NA,NA
"experimental",32,26,"ld","upper","pressures","nw","w","g","q",0,0.599816539121093,NA,NA,NA
"experimental",32,27,"ld","upper","create","w","w","g","g",1,0.622412221913692,NA,NA,NA
"experimental",32,28,"ld","upper","glapula","w","nw","h","h",1,0.571709500683937,NA,NA,NA
"experimental",32,29,"ld","upper","iolize","nw","nw","h","h",1,0.682004226458957,NA,NA,NA
"experimental",32,30,"ld","upper","mosary","nw","nw","h","h",1,0.589078466000501,NA,NA,NA
"experimental",33,1,"hd","lower","inducing","w","w","g","g",1,1.47587306590867,NA,NA,NA
"experimental",33,2,"hd","lower","owner","w","w","g","g",1,0.455105647590244,NA,NA,NA
"experimental",33,3,"hd","lower","reprint","w","w","g","g",1,0.571154712815769,NA,NA,NA
"experimental",33,4,"hd","lower","deakers","nw","nw","h","h",1,0.54648868725053,NA,NA,NA
"experimental",33,5,"hd","lower","flicking","w","w","g","g",1,1.09113069818704,NA,NA,NA
"experimental",33,6,"hd","lower","donastic","nw","nw","h","h",1,0.717718016298022,NA,NA,NA
"experimental",33,7,"hd","lower","gigglod","nw","nw","h","h",1,0.726098391896812,NA,NA,NA
"experimental",33,8,"hd","lower","rarren","nw","nw","h","h",1,0.704242225008784,NA,NA,NA
"experimental",33,9,"hd","lower","become","w","w","g","g",1,0.641215848154388,NA,NA,NA
"experimental",33,10,"hd","lower","volition","w","w","g","g",1,1.46985068966751,NA,NA,NA
"experimental",33,11,"hd","lower","bookend","w","w","g","g",1,0.80928246374242,NA,NA,NA
"experimental",33,12,"hd","lower","elalt","nw","nw","h","h",1,0.623100726312259,NA,NA,NA
"experimental",33,13,"hd","lower","sunhess","nw","nw","h","h",1,0.98048100474989,NA,NA,NA
"experimental",33,14,"hd","lower","numbled","nw","nw","h","h",1,0.667794050590601,NA,NA,NA
"experimental",33,15,"hd","lower","fonducts","nw","nw","h","h",1,0.759124569536652,NA,NA,NA
"experimental",33,16,"hd","lower","gallon","w","w","g","g",1,0.654215028946055,NA,NA,NA
"experimental",33,17,"hd","lower","regiment","w","w","g","g",1,1.13818262546556,NA,NA,NA
"experimental",33,18,"hd","lower","sporidic","nw","nw","h","g",0,0.881527434888994,NA,NA,NA
"experimental",33,19,"hd","lower","porghum","nw","nw","h","h",1,0.661460172123043,NA,NA,NA
"experimental",33,20,"hd","lower","suddenly","w","w","g","g",1,0.722002681024605,NA,NA,NA
"experimental",33,21,"hd","lower","caloric","w","w","g","h",0,1.5232537004922,NA,NA,NA
"experimental",33,22,"hd","lower","corduroy","w","w","g","g",1,0.732623337127734,NA,NA,NA
"experimental",33,23,"hd","lower","dests","nw","nw","h","h",1,0.845765350124566,NA,NA,NA
"experimental",33,24,"hd","lower","frogmy","nw","nw","h","h",1,0.59358498553047,NA,NA,NA
"experimental",33,25,"hd","lower","serfume","nw","nw","h","h",1,0.632084486569511,NA,NA,NA
"experimental",33,26,"hd","lower","entropy","w","w","g","g",1,1.34140160249081,NA,NA,NA
"experimental",33,27,"hd","lower","sooled","nw","nw","h","h",1,0.597941488958895,NA,NA,NA
"experimental",33,28,"hd","lower","decant","w","w","g","g",1,0.58065341762267,NA,NA,NA
"experimental",33,29,"hd","lower","surround","w","w","g","g",1,0.483967294130707,NA,NA,NA
"experimental",33,30,"hd","lower","earterner","nw","nw","h","h",1,0.566611066577025,NA,NA,NA
"experimental",34,1,"hd","lower","decantel","nw","nw","h","g",0,0.750138092727866,NA,NA,NA
"experimental",34,2,"hd","lower","scarlet","w","w","g","g",1,0.646746219921624,NA,NA,NA
"experimental",34,3,"hd","lower","cegalia","nw","nw","h","h",1,0.635345299058827,NA,NA,NA
"experimental",34,4,"hd","lower","gazes","w","w","g","g",1,0.799407662270823,NA,NA,NA
"experimental",34,5,"hd","lower","elderly","w","w","g","g",1,0.85396582717658,NA,NA,NA
"experimental",34,6,"hd","lower","phonology","w","w","g","h",0,1.08881706974353,NA,NA,NA
"experimental",34,7,"hd","lower","begut","nw","nw","h","h",1,0.699754419765668,NA,NA,NA
"experimental",34,8,"hd","lower","finstrel","nw","nw","h","h",1,0.583121891599149,NA,NA,NA
"experimental",34,9,"hd","lower","chappef","nw","nw","h","h",1,0.581538120139157,NA,NA,NA
"experimental",34,10,"hd","lower","markot","nw","nw","h","h",1,0.492801641958067,NA,NA,NA
"experimental",34,11,"hd","lower","acroad","nw","nw","h","h",1,0.623462032701354,NA,NA,NA
"experimental",34,12,"hd","lower","threaded","w","w","g","g",1,0.756470160122262,NA,NA,NA
"experimental",34,13,"hd","lower","defeat","w","w","g","g",1,0.556751659110887,NA,NA,NA
"experimental",34,14,"hd","lower","bullet","w","w","g","g",1,0.540750345477136,NA,NA,NA
"experimental",34,15,"hd","lower","hecture","nw","nw","h","h",1,0.549421999836341,NA,NA,NA
"experimental",34,16,"hd","lower","yellep","nw","nw","h","h",1,0.558048679522472,NA,NA,NA
"experimental",34,17,"hd","lower","sequence","w","w","g","g",1,0.637308487464907,NA,NA,NA
"experimental",34,18,"hd","lower","roughly","w","w","g","g",1,0.64275102285319,NA,NA,NA
"experimental",34,19,"hd","lower","remain","w","w","g","g",1,0.494281881168718,NA,NA,NA
"experimental",34,20,"hd","lower","nomma","nw","nw","h","h",1,0.536904560838593,NA,NA,NA
"experimental",34,21,"hd","lower","measure","w","w","g","g",1,0.497498624550644,NA,NA,NA
"experimental",34,22,"hd","lower","alber","nw","nw","h","h",1,0.564154364488786,NA,NA,NA
"experimental",34,23,"hd","lower","airline","w","w","g","g",1,1.46012862087809,NA,NA,NA
"experimental",34,24,"hd","lower","noils","nw","nw","h","h",1,0.528093756758608,NA,NA,NA
"experimental",34,25,"hd","lower","olgies","nw","nw","h","h",1,0.497401732864091,NA,NA,NA
"experimental",34,26,"hd","lower","meteoroid","w","w","g","g",1,2.20406866515987,NA,NA,NA
"experimental",34,27,"hd","lower","rodeo","w","w","g","g",1,0.528964876342798,NA,NA,NA
"experimental",34,28,"hd","lower","elephant","target","target","q","q",1,0.586255326197715,1,NA,NA
"experimental",34,29,"hd","lower","shests","aftertar1","nw","h","h",1,0.743746260355692,NA,NA,NA
"experimental",34,30,"hd","lower","antique","aftertar2","w","g","g",1,0.60788360144943,NA,NA,NA
"experimental",35,1,"ld","upper","oldest","w","w","g","g",1,0.823349867743673,NA,NA,NA
"experimental",35,2,"ld","upper","trises","nw","nw","h","h",1,0.595651404320961,NA,NA,NA
"experimental",35,3,"ld","upper","populace","w","w","g","h",0,0.79439827191527,NA,NA,NA
"experimental",35,4,"ld","upper","facienda","nw","nw","h","h",1,0.568912017595721,NA,NA,NA
"experimental",35,5,"ld","upper","ignore","w","w","g","g",1,0.584131255367538,NA,NA,NA
"experimental",35,6,"ld","upper","mebase","nw","nw","h","h",1,0.654107572743669,NA,NA,NA
"experimental",35,7,"ld","upper","static","w","w","g","g",1,0.506093610689277,NA,NA,NA
"experimental",35,8,"ld","upper","ronvince","nw","nw","h","h",1,0.54808785271598,NA,NA,NA
"experimental",35,9,"ld","upper","rejoiced","w","w","g","h",0,0.515892649505986,NA,NA,NA
"experimental",35,10,"ld","upper","causality","w","w","g","g",1,0.8457985529094,NA,NA,NA
"experimental",35,11,"ld","upper","curtail","w","w","g","h",0,0.602429897873662,NA,NA,NA
"experimental",35,12,"ld","upper","rangel","nw","nw","h","h",1,0.49631328615942,NA,NA,NA
"experimental",35,13,"ld","upper","maiden","w","w","g","g",1,0.803043967724079,NA,NA,NA
"experimental",35,14,"ld","upper","rowel","nw","nw","h","h",1,0.640965016413247,NA,NA,NA
"experimental",35,15,"ld","upper","kiner","nw","nw","h","h",1,0.813625384209445,NA,NA,NA
"experimental",35,16,"ld","upper","dontrite","nw","nw","h","h",1,0.515640006720787,NA,NA,NA
"experimental",35,17,"ld","upper","hegacy","nw","nw","h","h",1,0.40562539146049,NA,NA,NA
"experimental",35,18,"ld","upper","vented","w","w","g","g",1,1.10755278126453,NA,NA,NA
"experimental",35,19,"ld","upper","aicline","nw","nw","h","g",0,0.443365153099876,NA,NA,NA
"experimental",35,20,"ld","upper","sprea","nw","nw","h","h",1,1.12018884462304,NA,NA,NA
"experimental",35,21,"ld","upper","knowledge","w","w","g","g",1,0.554254510032479,NA,NA,NA
"experimental",35,22,"ld","upper","traze","nw","nw","h","h",1,0.522372318228008,NA,NA,NA
"experimental",35,23,"ld","upper","heaviest","w","w","g","g",1,0.675702947046375,NA,NA,NA
"experimental",35,24,"ld","upper","planar","w","w","g","h",0,0.638967116014101,NA,NA,NA
"experimental",35,25,"ld","upper","visible","w","w","g","g",1,0.515586278605042,NA,NA,NA
"experimental",35,26,"ld","upper","hardest","w","w","g","g",1,0.477596288954374,NA,NA,NA
"experimental",35,27,"ld","upper","imotope","nw","nw","h","h",1,0.720932948577683,NA,NA,NA
"experimental",35,28,"ld","upper","cobalt","w","w","g","h",0,0.553448588616448,NA,NA,NA
"experimental",35,29,"ld","upper","peahem","nw","nw","h","h",1,0.553344452695455,NA,NA,NA
"experimental",35,30,"ld","upper","corg","nw","nw","h","h",1,0.53722481650766,NA,NA,NA
"experimental",36,1,"ld","upper","tunneg","nw","nw","h","h",1,0.618311379716033,NA,NA,NA
"experimental",36,2,"ld","upper","correct","w","w","g","g",1,0.654981710773427,NA,NA,NA
"experimental",36,3,"ld","upper","bamps","nw","nw","h","h",1,0.554939694178756,NA,NA,NA
"experimental",36,4,"ld","upper","strenuous","w","w","g","g",1,0.779066748451442,NA,NA,NA
"experimental",36,5,"ld","upper","eyesight","w","w","g","g",1,0.585187404853059,NA,NA,NA
"experimental",36,6,"ld","upper","record","w","w","g","g",1,0.511857910954859,NA,NA,NA
"experimental",36,7,"ld","upper","valif","nw","nw","h","h",1,0.577841144200647,NA,NA,NA
"experimental",36,8,"ld","upper","prison","w","w","g","g",1,0.529146284156013,NA,NA,NA
"experimental",36,9,"ld","upper","slending","nw","nw","h","h",1,0.609416361403419,NA,NA,NA
"experimental",36,10,"ld","upper","helpful","w","w","g","g",1,0.503300957061583,NA,NA,NA
"experimental",36,11,"ld","upper","presence","w","w","g","g",1,0.617756893683691,NA,NA,NA
"experimental",36,12,"ld","upper","filny","nw","nw","h","h",1,0.607758336496772,NA,NA,NA
"experimental",36,13,"ld","upper","bengths","nw","nw","h","h",1,0.532750594225945,NA,NA,NA
"experimental",36,14,"ld","upper","engineer","w","w","g","g",1,1.13402714964468,NA,NA,NA
"experimental",36,15,"ld","upper","apticle","nw","nw","h","h",1,0.53452181033208,NA,NA,NA
"experimental",36,16,"ld","upper","fallint","nw","nw","h","h",1,0.535233254835475,NA,NA,NA
"experimental",36,17,"ld","upper","rainfall","w","w","g","g",1,0.615199375955854,NA,NA,NA
"experimental",36,18,"ld","upper","gounts","nw","nw","h","h",1,0.573215396580053,NA,NA,NA
"experimental",36,19,"ld","upper","single","w","w","g","g",1,0.532437582791317,NA,NA,NA
"experimental",36,20,"ld","upper","system","w","w","g","g",1,0.541687870601891,NA,NA,NA
"experimental",36,21,"ld","upper","atch","nw","nw","h","h",1,0.694360481138574,NA,NA,NA
"experimental",36,22,"ld","upper","regional","w","w","g","g",1,0.544123745523393,NA,NA,NA
"experimental",36,23,"ld","upper","pastnoss","nw","nw","h","h",1,0.625650999834761,NA,NA,NA
"experimental",36,24,"ld","upper","eugenifs","nw","nw","h","h",1,0.646008515032008,NA,NA,NA
"experimental",36,25,"ld","upper","robbery","w","w","g","g",1,0.698556705814553,NA,NA,NA
"experimental",36,26,"ld","upper","huffle","nw","nw","h","h",1,0.60522436251631,NA,NA,NA
"experimental",36,27,"ld","upper","filter","w","w","g","g",1,0.963205610838486,NA,NA,NA
"experimental",36,28,"ld","upper","graciap","nw","nw","h","h",1,0.531220852717524,NA,NA,NA
"experimental",36,29,"ld","upper","soluced","nw","nw","h","h",1,0.492487724986859,NA,NA,NA
"experimental",36,30,"ld","upper","unmarked","w","w","g","g",1,0.823164536006516,NA,NA,NA
"experimental",37,1,"ld","upper","maintain","w","w","g","g",1,0.563500572025077,NA,NA,NA
"experimental",37,2,"ld","upper","handcuff","w","w","g","g",1,0.540168693609303,NA,NA,NA
"experimental",37,3,"ld","upper","thesis","w","w","g","g",1,0.516686195362126,NA,NA,NA
"experimental",37,4,"ld","upper","togglo","nw","nw","h","h",1,0.558617050322937,NA,NA,NA
"experimental",37,5,"ld","upper","living","w","w","g","g",1,0.566657550458331,NA,NA,NA
"experimental",37,6,"ld","upper","graveyard","w","w","g","g",1,0.646639971091645,NA,NA,NA
"experimental",37,7,"ld","upper","thamp","nw","nw","h","h",1,0.570360563258873,NA,NA,NA
