"procedure","block","trial","PMdemand","context","stim","role","word_type","correct_key","response","correct","reaction_time","pressedQ","pressedQ_blank","pressedQ_fix"
"LDTpractice",1,1,NA,"upper","grocus","","nw","h","h",1,1.04624793195399,NA,NA,NA
"LDTpractice",2,1,NA,"upper","lumbigo","","nw","h","h",1,0.92968754429603,NA,NA,NA
"LDTpractice",3,1,NA,"upper","raestro","","nw","h","g",0,0.659652548609301,NA,NA,NA
"LDTpractice",4,1,NA,"upper","grimace","","w","g","g",1,0.600074730667984,NA,NA,NA
"LDTpractice",5,1,NA,"upper","tricycle","","w","g","g",1,0.509848957968643,NA,NA,NA
"LDTpractice",6,1,NA,"upper","hasking","","nw","h","g",0,0.598536235716892,NA,NA,NA
"LDTpractice",7,1,NA,"upper","alolition","","nw","h","h",1,0.902361374319298,NA,NA,NA
"LDTpractice",8,1,NA,"upper","treeps","","nw","h","h",1,0.75852582816151,NA,NA,NA
"LDTpractice",9,1,NA,"upper","overshoot","","w","g","g",1,0.613868664717302,NA,NA,NA
"LDTpractice",10,1,NA,"upper","revival","","w","g","g",1,0.510294176783646,NA,NA,NA
"LDTpractice",11,1,NA,"upper","picture","","w","g","g",1,0.472198541945545,NA,NA,NA
"LDTpractice",12,1,NA,"upper","curlecs","","nw","h","h",1,0.634467050840613,NA,NA,NA
"LDTpractice",13,1,NA,"upper","infinity","","w","g","g",1,0.486125588853611,NA,NA,NA
"LDTpractice",14,1,NA,"upper","summary","","w","g","g",1,0.433705983276013,NA,NA,NA
"LDTpractice",1,2,NA,"lower","crinklo","","nw","h","h",1,0.487548176024575,NA,NA,NA
"LDTpractice",2,2,NA,"lower","trotch","","nw","h","h",1,0.601165290310746,NA,NA,NA
"LDTpractice",3,2,NA,"lower","grutch","","nw","h","g",0,0.495157040306367,NA,NA,NA
"LDTpractice",4,2,NA,"lower","slumber","","w","g","g",1,0.489825885102618,NA,NA,NA
"LDTpractice",5,2,NA,"lower","umpire","","w","g","g",1,0.500505702482769,NA,NA,NA
"LDTpractice",6,2,NA,"lower","turative","","nw","h","g",0,0.814420554903336,NA,NA,NA
"LDTpractice",7,2,NA,"lower","julled","","nw","h","h",1,0.599549825303257,NA,NA,NA
"LDTpractice",8,2,NA,"lower","lurshing","","nw","h","h",1,0.680203847150551,NA,NA,NA
"LDTpractice",9,2,NA,"lower","unscrew","","w","g","g",1,0.491668638045667,NA,NA,NA
"LDTpractice",10,2,NA,"lower","busted","","w","g","g",1,0.519207909354009,NA,NA,NA
"LDTpractice",11,2,NA,"lower","reputable","","w","g","g",1,0.46453866615775,NA,NA,NA
"LDTpractice",12,2,NA,"lower","latador","","nw","h","h",1,0.580520722200163,NA,NA,NA
"LDTpractice",13,2,NA,"lower","sponsor","","w","g","g",1,0.474909396056319,NA,NA,NA
"LDTpractice",14,2,NA,"lower","hiring","","w","g","g",1,0.454235247307224,NA,NA,NA
"experimental",1,1,"hd","upper","digested","w","w","g","g",1,0.770477914775256,NA,NA,NA
"experimental",1,2,"hd","upper","nimono","nw","nw","h","h",1,0.682303166860947,NA,NA,NA
"experimental",1,3,"hd","upper","fillings","w","w","g","g",1,0.64631379416096,NA,NA,NA
"experimental",1,4,"hd","upper","irfirm","nw","nw","h","h",1,0.811576286068885,NA,NA,NA
"experimental",1,5,"hd","upper","neuran","nw","nw","h","h",1,0.85733632434858,NA,NA,NA
"experimental",1,6,"hd","upper","bellicove","nw","nw","h","h",1,0.893953832797706,NA,NA,NA
"experimental",1,7,"hd","upper","become","w","w","g","g",1,0.57717237516772,NA,NA,NA
"experimental",1,8,"hd","upper","even","w","w","g","g",1,0.593152559769806,NA,NA,NA
"experimental",1,9,"hd","upper","filny","nw","nw","h","h",1,0.720473658788251,NA,NA,NA
"experimental",1,10,"hd","upper","acorn","w","w","g","g",1,0.746462663257262,NA,NA,NA
"experimental",1,11,"hd","upper","porcupine","target","target","q","q",1,0.595832324004732,1,NA,NA
"experimental",1,12,"hd","upper","legalize","aftertar1","w","g","g",1,0.625615497934632,NA,NA,NA
"experimental",1,13,"hd","upper","olgies","aftertar2","nw","h","h",1,0.681089455232723,NA,NA,NA
"experimental",1,14,"hd","upper","gaioty","aftertar3","nw","h","h",1,0.724113888194552,NA,NA,NA
"experimental",1,15,"hd","upper","blocking","nw","w","g","g",1,0.470203358185245,NA,NA,NA
"experimental",1,16,"hd","upper","asclibed","w","nw","h","h",1,0.738038520386908,NA,NA,NA
"experimental",1,17,"hd","upper","atabaster","nw","nw","h","h",1,0.651349444844527,NA,NA,NA
"experimental",1,18,"hd","upper","subber","nw","nw","h","h",1,0.7759778003674,NA,NA,NA
"experimental",1,19,"hd","upper","drine","nw","nw","h","h",1,0.719956601329613,NA,NA,NA
"experimental",1,20,"hd","upper","mandate","nw","w","g","g",1,0.673931544733932,NA,NA,NA
"experimental",1,21,"hd","upper","earterner","w","nw","h","h",1,0.965900281007634,NA,NA,NA
"experimental",1,22,"hd","upper","system","nw","w","g","g",1,0.645399812841788,NA,NA,NA
"experimental",1,23,"hd","upper","disuse","w","w","g","h",0,0.682042374304729,NA,NA,NA
"experimental",1,24,"hd","upper","dominion","w","w","g","g",1,0.878629553568317,NA,NA,NA
"experimental",1,25,"hd","upper","trake","w","nw","h","h",1,0.794702947372571,NA,NA,NA
"experimental",1,26,"hd","upper","female","nw","w","g","g",1,0.738016183982836,NA,NA,NA
"experimental",1,27,"hd","upper","menarthe","w","nw","h","h",1,0.731339713413035,NA,NA,NA
"experimental",1,28,"hd","upper","ipiocy","nw","nw","h","h",1,0.725371970824199,NA,NA,NA
"experimental",1,29,"hd","upper","remain","nw","w","g","g",1,0.695314723241609,NA,NA,NA
"experimental",1,30,"hd","upper","overflow","w","w","g","g",1,0.618647144990973,NA,NA,NA
"experimental",2,1,"hd","upper","gestalion","nw","nw","h","h",1,0.903474270337028,NA,NA,NA
"experimental",2,2,"hd","upper","movie","w","w","g","g",1,0.537980445747962,NA,NA,NA
"experimental",2,3,"hd","upper","fonducts","nw","nw","h","h",1,0.619325990439393,NA,NA,NA
"experimental",2,4,"hd","upper","forfeit","w","w","g","g",1,0.601286933146184,NA,NA,NA
"experimental",2,5,"hd","upper","presence","w","w","g","g",1,0.543969317368465,NA,NA,NA
"experimental",2,6,"hd","upper","forecast","w","w","g","g",1,0.497288355400087,NA,NA,NA
"experimental",2,7,"hd","upper","eyesight","w","w","g","g",1,0.42855865060119,NA,NA,NA
"experimental",2,8,"hd","upper","ufionize","nw","nw","h","h",1,0.633643622510135,NA,NA,NA
"experimental",2,9,"hd","upper","burrowing","w","w","g","g",1,0.479509788798168,NA,NA,NA
"experimental",2,10,"hd","upper","nauling","nw","nw","h","h",1,0.659517322841566,NA,NA,NA
"experimental",2,11,"hd","upper","jinds","nw","nw","h","h",1,0.616170521243475,NA,NA,NA
"experimental",2,12,"hd","upper","envelop","w","w","g","g",1,0.581542159692617,NA,NA,NA
"experimental",2,13,"hd","upper","flamingo","target","target","q","q",1,0.501789441739675,1,NA,NA
"experimental",2,14,"hd","upper","curricula","aftertar1","w","g","h",0,0.777031233272282,NA,NA,NA
"experimental",2,15,"hd","upper","surround","aftertar2","w","g","g",1,0.593408220971469,NA,NA,NA
"experimental",2,16,"hd","upper","frigs","aftertar3","nw","h","h",1,0.672683724784292,NA,NA,NA
"experimental",2,17,"hd","upper","mortgage","nw","w","g","g",1,0.819796684780158,NA,NA,NA
"experimental",2,18,"hd","upper","bamps","w","nw","h","h",1,0.817766789026791,NA,NA,NA
"experimental",2,19,"hd","upper","trooper","nw","w","g","g",1,0.559612644923618,NA,NA,NA
"experimental",2,20,"hd","upper","overcoat","w","w","g","g",1,0.65626918777707,NA,NA,NA
"experimental",2,21,"hd","upper","geborn","w","nw","h","h",1,0.564919049007585,NA,NA,NA
"experimental",2,22,"hd","upper","lofty","nw","w","g","g",1,0.861533756396966,NA,NA,NA
"experimental",2,23,"hd","upper","farochial","w","nw","h","h",1,0.738144165516132,NA,NA,NA
"experimental",2,24,"hd","upper","atch","nw","nw","h","h",1,0.643478278798284,NA,NA,NA
"experimental",2,25,"hd","upper","fatho","nw","nw","h","h",1,0.600953698216472,NA,NA,NA
"experimental",2,26,"hd","upper","lignpost","nw","nw","h","h",1,0.734460470674094,NA,NA,NA
"experimental",2,27,"hd","upper","tucker","nw","w","g","g",1,0.791743374458747,NA,NA,NA
"experimental",2,28,"hd","upper","otoist","w","nw","h","h",1,0.615015065355692,NA,NA,NA
"experimental",2,29,"hd","upper","pripend","nw","nw","h","h",1,0.709706910565728,NA,NA,NA
"experimental",2,30,"hd","upper","inverted","nw","w","g","g",1,0.744345232931664,NA,NA,NA
"experimental",3,1,"hd","upper","fomrade","nw","nw","h","h",1,0.791302381461719,NA,NA,NA
"experimental",3,2,"hd","upper","lindo","nw","nw","h","h",1,0.646501238807105,NA,NA,NA
"experimental",3,3,"hd","upper","kettle","w","w","g","g",1,0.500488799239974,NA,NA,NA
"experimental",3,4,"hd","upper","party","w","w","g","g",1,0.447532818245236,NA,NA,NA
"experimental",3,5,"hd","upper","bypassed","w","w","g","g",1,0.581015443254728,NA,NA,NA
"experimental",3,6,"hd","upper","border","w","w","g","g",1,0.468969423003728,NA,NA,NA
"experimental",3,7,"hd","upper","afternoon","w","w","g","g",1,0.48069814563496,NA,NA,NA
"experimental",3,8,"hd","upper","disperse","w","w","g","g",1,0.501073771447409,NA,NA,NA
"experimental",3,9,"hd","upper","rasuals","nw","nw","h","h",1,0.663603676570347,NA,NA,NA
"experimental",3,10,"hd","upper","professor","w","w","g","g",1,0.507371126877842,NA,NA,NA
"experimental",3,11,"hd","upper","remover","w","w","g","g",1,0.4948911164538,NA,NA,NA
"experimental",3,12,"hd","upper","felevance","nw","nw","h","h",1,0.745171076036058,NA,NA,NA
"experimental",3,13,"hd","upper","wrestle","w","w","g","g",1,0.522476569778519,NA,NA,NA
"experimental",3,14,"hd","upper","walsams","nw","nw","h","h",1,0.636447746161139,NA,NA,NA
"experimental",3,15,"hd","upper","fraft","nw","nw","h","h",1,0.585764342889888,NA,NA,NA
"experimental",3,16,"hd","upper","suspect","w","w","g","g",1,0.641015237983083,NA,NA,NA
"experimental",3,17,"hd","upper","cobalt","w","w","g","g",1,0.646364503831137,NA,NA,NA
"experimental",3,18,"hd","upper","facienda","nw","nw","h","h",1,0.771636389137711,NA,NA,NA
"experimental",3,19,"hd","upper","veranpah","nw","nw","h","h",1,0.603661533881677,NA,NA,NA
"experimental",3,20,"hd","upper","deceit","w","w","g","g",1,0.585345686326036,NA,NA,NA
"experimental",3,21,"hd","upper","gund","nw","nw","h","h",1,0.656607855897164,NA,NA,NA
"experimental",3,22,"hd","upper","ebuating","nw","nw","h","h",1,0.933255935029592,NA,NA,NA
"experimental",3,23,"hd","upper","dislokes","nw","nw","h","h",1,0.759220067615388,NA,NA,NA
"experimental",3,24,"hd","upper","undertake","w","w","g","g",1,0.623862996115349,NA,NA,NA
"experimental",3,25,"hd","upper","acoustic","w","w","g","g",1,0.49385881255148,NA,NA,NA
"experimental",3,26,"hd","upper","legalosm","nw","nw","h","h",1,0.671901950787287,NA,NA,NA
"experimental",3,27,"hd","upper","befin","nw","nw","h","h",1,0.595883939182386,NA,NA,NA
"experimental",3,28,"hd","upper","column","w","w","g","g",1,0.643790384696331,NA,NA,NA
"experimental",3,29,"hd","upper","doads","nw","nw","h","h",1,0.5767461725045,NA,NA,NA
"experimental",3,30,"hd","upper","fuhrek","nw","nw","h","h",1,0.528795054240618,NA,NA,NA
"experimental",4,1,"ld","lower","alomalous","nw","nw","h","h",1,0.698549577180529,NA,NA,NA
"experimental",4,2,"ld","lower","odacles","nw","nw","h","h",1,0.637902630551253,NA,NA,NA
"experimental",4,3,"ld","lower","partner","w","w","g","g",1,0.555193358100951,NA,NA,NA
"experimental",4,4,"ld","lower","rocket","w","w","g","g",1,1.25888804005808,NA,NA,NA
"experimental",4,5,"ld","lower","throttle","w","w","g","g",1,0.871423046337441,NA,NA,NA
"experimental",4,6,"ld","lower","attrove","nw","nw","h","h",1,0.611408944212599,NA,NA,NA
"experimental",4,7,"ld","lower","servant","w","w","g","g",1,0.506021283916198,NA,NA,NA
"experimental",4,8,"ld","lower","vibrate","w","w","g","g",1,0.500663868326228,NA,NA,NA
"experimental",4,9,"ld","lower","kilotin","nw","nw","h","h",1,0.63931586057879,NA,NA,NA
"experimental",4,10,"ld","lower","abhorrent","w","w","g","g",1,0.836713187105488,NA,NA,NA
"experimental",4,11,"ld","lower","blipover","nw","nw","h","h",1,0.730009792139754,NA,NA,NA
"experimental",4,12,"ld","lower","dumult","nw","nw","h","h",1,0.691926532919751,NA,NA,NA
"experimental",4,13,"ld","lower","hindsight","w","w","g","g",1,0.502436593640596,NA,NA,NA
"experimental",4,14,"ld","lower","cabinet","w","w","g","g",1,0.47299661548459,NA,NA,NA
"experimental",4,15,"ld","lower","etuip","nw","nw","h","h",1,0.596841989638051,NA,NA,NA
"experimental",4,16,"ld","lower","sorping","nw","nw","h","h",1,0.659001472726231,NA,NA,NA
"experimental",4,17,"ld","lower","ements","nw","nw","h","h",1,0.58365898631746,NA,NA,NA
"experimental",4,18,"ld","lower","ignoble","w","w","g","g",1,0.76805592465098,NA,NA,NA
"experimental",4,19,"ld","lower","embrace","w","w","g","g",1,0.480639588058693,NA,NA,NA
"experimental",4,20,"ld","lower","religious","w","w","g","g",1,0.484698474028846,NA,NA,NA
"experimental",4,21,"ld","lower","geissue","nw","nw","h","h",1,0.576010580552975,NA,NA,NA
"experimental",4,22,"ld","lower","pollute","w","w","g","g",1,0.559161087439861,NA,NA,NA
"experimental",4,23,"ld","lower","kickoff","w","w","g","g",1,0.495794835063862,NA,NA,NA
"experimental",4,24,"ld","lower","nearsipe","nw","nw","h","h",1,0.899014838360017,NA,NA,NA
"experimental",4,25,"ld","lower","burning","w","w","g","g",1,0.446320012124488,NA,NA,NA
"experimental",4,26,"ld","lower","tyena","nw","nw","h","h",1,0.675681631808402,NA,NA,NA
"experimental",4,27,"ld","lower","latirizes","nw","nw","h","h",1,0.919557383458596,NA,NA,NA
"experimental",4,28,"ld","lower","joses","nw","nw","h","h",1,0.545561238599475,NA,NA,NA
"experimental",4,29,"ld","lower","terrify","w","w","g","g",1,0.570826724811923,NA,NA,NA
"experimental",4,30,"ld","lower","fashing","nw","nw","h","h",1,0.730786132917274,NA,NA,NA
"experimental",5,1,"ld","lower","sequence","w","w","g","g",1,0.601222942350432,NA,NA,NA
"experimental",5,2,"ld","lower","butled","nw","nw","h","h",1,0.706272236391669,NA,NA,NA
"experimental",5,3,"ld","lower","ciping","nw","nw","h","h",1,0.668920343305217,NA,NA,NA
"experimental",5,4,"ld","lower","prama","nw","nw","h","h",1,0.704933259781683,NA,NA,NA
"experimental",5,5,"ld","lower","oldest","w","w","g","g",1,0.571579521842068,NA,NA,NA
"experimental",5,6,"ld","lower","emission","w","w","g","g",1,1.20357104126015,NA,NA,NA
"experimental",5,7,"ld","lower","monopoly","w","w","g","g",1,1.42409801128088,NA,NA,NA
"experimental",5,8,"ld","lower","efficient","w","w","g","g",1,0.558745751128299,NA,NA,NA
"experimental",5,9,"ld","lower","egect","nw","nw","h","h",1,0.623923364764778,NA,NA,NA
"experimental",5,10,"ld","lower","fallacy","w","w","g","g",1,0.581826194160385,NA,NA,NA
"experimental",5,11,"ld","lower","plashed","nw","nw","h","h",1,0.621793860744219,NA,NA,NA
"experimental",5,12,"ld","lower","tharcely","nw","nw","h","h",1,0.611820960213663,NA,NA,NA
"experimental",5,13,"ld","lower","showdown","w","w","g","g",1,0.514423694083234,NA,NA,NA
"experimental",5,14,"ld","lower","harder","w","w","g","g",1,0.525066686561331,NA,NA,NA
"experimental",5,15,"ld","lower","dazid","nw","nw","h","h",1,0.566952868713997,NA,NA,NA
"experimental",5,16,"ld","lower","gigglod","nw","nw","h","h",1,0.814745338226203,NA,NA,NA
"experimental",5,17,"ld","lower","landing","w","w","g","g",1,0.653395640169038,NA,NA,NA
"experimental",5,18,"ld","lower","hostade","nw","nw","h","h",1,0.785835698625306,NA,NA,NA
"experimental",5,19,"ld","lower","lonnote","nw","nw","h","h",1,0.753207954025129,NA,NA,NA
"experimental",5,20,"ld","lower","ahead","w","w","g","g",1,0.681817501084879,NA,NA,NA
"experimental",5,21,"ld","lower","amplifier","w","w","g","g",1,0.573812256276142,NA,NA,NA
"experimental",5,22,"ld","lower","grested","nw","nw","h","h",1,0.565794998081401,NA,NA,NA
"experimental",5,23,"ld","lower","germeated","nw","nw","h","h",1,0.846409901045263,NA,NA,NA
"experimental",5,24,"ld","lower","hegacy","nw","nw","h","h",1,0.627709988155402,NA,NA,NA
"experimental",5,25,"ld","lower","armada","w","w","g","g",1,0.904814756126143,NA,NA,NA
"experimental",5,26,"ld","lower","fisco","nw","nw","h","h",1,0.627374942152528,NA,NA,NA
"experimental",5,27,"ld","lower","mennel","nw","nw","h","h",1,0.713286167650949,NA,NA,NA
"experimental",5,28,"ld","lower","retain","w","w","g","g",1,0.539924618031364,NA,NA,NA
"experimental",5,29,"ld","lower","amidst","w","w","g","g",1,0.645265492610633,NA,NA,NA
"experimental",5,30,"ld","lower","suddenly","w","w","g","g",1,0.521385708329035,NA,NA,NA
"experimental",6,1,"ld","lower","reprint","w","w","g","g",1,0.587607699533692,NA,NA,NA
"experimental",6,2,"ld","lower","gepealed","nw","nw","h","h",1,0.698871945787687,NA,NA,NA
"experimental",6,3,"ld","lower","grieving","w","w","g","g",1,0.46997425914742,NA,NA,NA
"experimental",6,4,"ld","lower","attract","w","w","g","g",1,0.465880359348375,NA,NA,NA
"experimental",6,5,"ld","lower","arrive","w","w","g","g",1,0.670574746094644,NA,NA,NA
"experimental",6,6,"ld","lower","podes","nw","nw","h","h",1,0.610524543531938,NA,NA,NA
"experimental",6,7,"ld","lower","mandlers","nw","nw","h","g",0,0.529153040319216,NA,NA,NA
"experimental",6,8,"ld","lower","midday","w","w","g","g",1,0.627094831666909,NA,NA,NA
"experimental",6,9,"ld","lower","pracking","nw","nw","h","h",1,0.760267161793308,NA,NA,NA
"experimental",6,10,"ld","lower","parent","w","w","g","g",1,0.504807874094695,NA,NA,NA
"experimental",6,11,"ld","lower","jungle","w","w","g","g",1,0.64345443318598,NA,NA,NA
"experimental",6,12,"ld","lower","puggers","nw","nw","h","h",1,0.576711158704711,NA,NA,NA
"experimental",6,13,"ld","lower","caterpillar","target","target","q","q",1,0.776731502934126,1,NA,NA
"experimental",6,14,"ld","lower","bedding","aftertar1","w","g","g",1,0.616654677811312,NA,NA,NA
"experimental",6,15,"ld","lower","module","aftertar2","w","g","g",1,0.711313622101443,NA,NA,NA
"experimental",6,16,"ld","lower","bengths","aftertar3","nw","h","h",1,0.801933903916506,NA,NA,NA
"experimental",6,17,"ld","lower","bluads","nw","nw","h","h",1,0.59261286407127,NA,NA,NA
"experimental",6,18,"ld","lower","brimitive","nw","nw","h","h",1,0.6950744560163,NA,NA,NA
"experimental",6,19,"ld","lower","stooping","nw","w","g","g",1,0.778432993247407,NA,NA,NA
"experimental",6,20,"ld","lower","withep","w","nw","h","h",1,0.584966873051599,NA,NA,NA
"experimental",6,21,"ld","lower","renown","nw","w","g","g",1,1.36823678913061,NA,NA,NA
"experimental",6,22,"ld","lower","relaying","w","w","g","g",1,0.536970478249714,NA,NA,NA
"experimental",6,23,"ld","lower","theery","w","nw","h","h",1,0.642780719063012,NA,NA,NA
"experimental",6,24,"ld","lower","require","nw","w","g","g",1,0.648093461873941,NA,NA,NA
"experimental",6,25,"ld","lower","phraining","w","nw","h","h",1,0.573384846240515,NA,NA,NA
"experimental",6,26,"ld","lower","galashes","nw","nw","h","h",1,0.645324653887656,NA,NA,NA
"experimental",6,27,"ld","lower","elpired","nw","nw","h","h",1,0.625908285874175,NA,NA,NA
"experimental",6,28,"ld","lower","frogmy","nw","nw","h","h",1,0.67969946708763,NA,NA,NA
"experimental",6,29,"ld","lower","correct","nw","w","g","g",1,0.4995974561607,NA,NA,NA
"experimental",6,30,"ld","lower","expected","w","w","g","g",1,0.700666101969546,NA,NA,NA
"experimental",7,1,"ld","lower","upstairs","w","w","g","g",1,0.569341957947472,NA,NA,NA
"experimental",7,2,"ld","lower","coupling","w","w","g","g",1,0.58538130382658,NA,NA,NA
"experimental",7,3,"ld","lower","tenpince","nw","nw","h","h",1,0.655734019703232,NA,NA,NA
"experimental",7,4,"ld","lower","fards","nw","nw","h","h",1,0.652283649687888,NA,NA,NA
"experimental",7,5,"ld","lower","pretzel","w","w","g","g",1,0.464934382645879,NA,NA,NA
"experimental",7,6,"ld","lower","distrust","w","w","g","g",1,0.901566017389996,NA,NA,NA
"experimental",7,7,"ld","lower","incorrect","w","w","g","g",1,0.496240959386341,NA,NA,NA
"experimental",7,8,"ld","lower","mustled","nw","nw","h","g",0,0.731529270997271,NA,NA,NA
"experimental",7,9,"ld","lower","gumdrep","nw","nw","h","h",1,0.621508317010012,NA,NA,NA
"experimental",7,10,"ld","lower","pepperoni","w","w","g","g",1,0.786061779217562,NA,NA,NA
"experimental",7,11,"ld","lower","unspoken","w","w","g","g",1,0.489637836784823,NA,NA,NA
"experimental",7,12,"ld","lower","antwers","nw","nw","h","h",1,0.947760106209898,NA,NA,NA
"experimental",7,13,"ld","lower","binder","w","w","g","g",1,0.58107822664897,NA,NA,NA
"experimental",7,14,"ld","lower","veclors","nw","nw","h","h",1,0.621059174300171,NA,NA,NA
"experimental",7,15,"ld","lower","greakable","nw","nw","h","h",1,0.754332018230343,NA,NA,NA
"experimental",7,16,"ld","lower","huzzles","nw","nw","h","h",1,0.570993945992086,NA,NA,NA
"experimental",7,17,"ld","lower","brouhuha","nw","nw","h","h",1,0.626394857186824,NA,NA,NA
"experimental",7,18,"ld","lower","sludding","nw","nw","h","h",1,0.703677290090127,NA,NA,NA
"experimental",7,19,"ld","lower","hackal","nw","nw","h","h",1,0.586219220655039,NA,NA,NA
"experimental",7,20,"ld","lower","olerates","nw","nw","h","h",1,1.16161664252286,NA,NA,NA
"experimental",7,21,"ld","lower","railway","w","w","g","g",1,0.641283274802845,NA,NA,NA
"experimental",7,22,"ld","lower","ilterfere","nw","nw","h","h",1,0.638554611912696,NA,NA,NA
"experimental",7,23,"ld","lower","fetching","w","w","g","g",1,0.771753806155175,NA,NA,NA
"experimental",7,24,"ld","lower","reloant","nw","nw","h","h",1,0.715746793721337,NA,NA,NA
"experimental",7,25,"ld","lower","chyme","nw","nw","h","h",1,1.27043505304027,NA,NA,NA
"experimental",7,26,"ld","lower","violate","w","w","g","g",1,0.578383973916061,NA,NA,NA
"experimental",7,27,"ld","lower","martial","w","w","g","g",1,0.634419963287655,NA,NA,NA
"experimental",7,28,"ld","lower","couple","w","w","g","g",1,0.591639419610146,NA,NA,NA
"experimental",7,29,"ld","lower","persona","w","w","g","g",1,0.598973908403423,NA,NA,NA
"experimental",7,30,"ld","lower","submit","w","w","g","g",1,0.51736062875716,NA,NA,NA
"experimental",8,1,"ld","lower","ifling","nw","nw","h","h",1,0.622666187671712,NA,NA,NA
"experimental",8,2,"ld","lower","lecked","nw","nw","h","h",1,0.820770431077108,NA,NA,NA
"experimental",8,3,"ld","lower","maximized","w","w","g","g",1,0.577635402703891,NA,NA,NA
"experimental",8,4,"ld","lower","duries","nw","nw","h","h",1,0.921734880568692,NA,NA,NA
"experimental",8,5,"ld","lower","living","w","w","g","g",1,0.546153756877175,NA,NA,NA
"experimental",8,6,"ld","lower","unmarked","w","w","g","g",1,0.786963686812669,NA,NA,NA
"experimental",8,7,"ld","lower","official","w","w","g","g",1,0.481346203072462,NA,NA,NA
"experimental",8,8,"ld","lower","knowledge","w","w","g","g",1,0.500384965154808,NA,NA,NA
"experimental",8,9,"ld","lower","bickering","w","w","g","g",1,0.655369694926776,NA,NA,NA
"experimental",8,10,"ld","lower","tracing","w","w","g","g",1,0.564008086133981,NA,NA,NA
"experimental",8,11,"ld","lower","passet","nw","nw","h","h",1,0.764595291955629,NA,NA,NA
"experimental",8,12,"ld","lower","slending","nw","nw","h","g",0,1.14918643623241,NA,NA,NA
"experimental",8,13,"ld","lower","nores","nw","nw","h","h",1,0.710456689179409,NA,NA,NA
"experimental",8,14,"ld","lower","redefloy","nw","nw","h","h",1,0.848200435109902,NA,NA,NA
"experimental",8,15,"ld","lower","derived","w","w","g","g",1,0.485448252642527,NA,NA,NA
"experimental",8,16,"ld","lower","ignore","w","w","g","g",1,0.456752318044892,NA,NA,NA
"experimental",8,17,"ld","lower","deserve","w","w","g","g",1,0.445404219732154,NA,NA,NA
"experimental",8,18,"ld","lower","arrow","w","w","g","g",1,0.48268216123688,NA,NA,NA
"experimental",8,19,"ld","lower","cayward","nw","nw","h","h",1,0.67803148139501,NA,NA,NA
"experimental",8,20,"ld","lower","blueberry","w","w","g","g",1,0.753381212067325,NA,NA,NA
"experimental",8,21,"ld","lower","mubby","nw","nw","h","h",1,0.64929117585416,NA,NA,NA
"experimental",8,22,"ld","lower","buzzer","w","w","g","g",1,0.54998958070064,NA,NA,NA
"experimental",8,23,"ld","lower","levels","w","w","g","q",0,1.59770103549818,NA,NA,NA
"experimental",8,24,"ld","lower","imotope","nw","nw","h","h",1,2.61104733601678,NA,NA,NA
"experimental",8,25,"ld","lower","sullen","w","w","g","g",1,2.25025532350992,NA,NA,NA
"experimental",8,26,"ld","lower","edasion","nw","nw","h","h",1,0.630793014977826,NA,NA,NA
"experimental",8,27,"ld","lower","noblin","nw","nw","h","h",1,0.604047289525624,NA,NA,NA
"experimental",8,28,"ld","lower","schides","nw","nw","h","h",1,1.68202335818205,NA,NA,NA
"experimental",8,29,"ld","lower","corg","nw","nw","h","h",1,0.837312044081045,NA,NA,NA
"experimental",8,30,"ld","lower","phambled","nw","nw","h","h",1,0.650114302319707,NA,NA,NA
"experimental",9,1,"hd","upper","mabit","nw","nw","h","h",1,0.718148862186354,NA,NA,NA
"experimental",9,2,"hd","upper","grefab","nw","nw","h","h",1,0.520168374525383,NA,NA,NA
"experimental",9,3,"hd","upper","aggepting","nw","nw","h","h",1,0.665511929488275,NA,NA,NA
"experimental",9,4,"hd","upper","skiing","w","w","g","g",1,0.629458264185814,NA,NA,NA
"experimental",9,5,"hd","upper","aicline","nw","nw","h","h",1,0.625868744420586,NA,NA,NA
"experimental",9,6,"hd","upper","resume","w","w","g","g",1,0.639078008098295,NA,NA,NA
"experimental",9,7,"hd","upper","impirt","nw","nw","h","h",1,0.643675986124435,NA,NA,NA
"experimental",9,8,"hd","upper","sefraud","nw","nw","h","h",1,0.552408250543522,NA,NA,NA
"experimental",9,9,"hd","upper","thaken","nw","nw","h","h",1,0.577021151722874,NA,NA,NA
"experimental",9,10,"hd","upper","rawhide","w","w","g","g",1,0.816324582032394,NA,NA,NA
"experimental",9,11,"hd","upper","egcused","nw","nw","h","h",1,0.725132911000401,NA,NA,NA
"experimental",9,12,"hd","upper","innocent","w","w","g","g",1,1.09462887502741,NA,NA,NA
"experimental",9,13,"hd","upper","asthmatic","w","w","g","g",1,0.858155526861083,NA,NA,NA
"experimental",9,14,"hd","upper","manage","w","w","g","g",1,0.517294223245699,NA,NA,NA
"experimental",9,15,"hd","upper","stalemate","w","w","g","g",1,0.77507830754621,NA,NA,NA
"experimental",9,16,"hd","upper","intrude","w","w","g","g",1,0.894422897195909,NA,NA,NA
"experimental",9,17,"hd","upper","perform","w","w","g","g",1,0.497122643486364,NA,NA,NA
"experimental",9,18,"hd","upper","handbook","w","w","g","g",1,0.515701396478107,NA,NA,NA
"experimental",9,19,"hd","upper","rebool","nw","nw","h","h",1,0.59775265067583,NA,NA,NA
"experimental",9,20,"hd","upper","seighing","nw","nw","h","h",1,0.660310264996951,NA,NA,NA
"experimental",9,21,"hd","upper","agony","w","w","g","g",1,0.576257790147793,NA,NA,NA
"experimental",9,22,"hd","upper","stable","w","w","g","g",1,0.439578041608911,NA,NA,NA
"experimental",9,23,"hd","upper","heaviest","w","w","g","g",1,0.779388327122433,NA,NA,NA
"experimental",9,24,"hd","upper","thrapping","nw","nw","h","h",1,0.946702145651216,NA,NA,NA
"experimental",9,25,"hd","upper","puyer","nw","nw","h","h",1,0.691174641397083,NA,NA,NA
"experimental",9,26,"hd","upper","brank","nw","nw","h","h",1,0.605904229130829,NA,NA,NA
"experimental",9,27,"hd","upper","hutting","nw","nw","h","h",1,1.25983763884869,NA,NA,NA
"experimental",9,28,"hd","upper","monkey","target","target","q","g",0,0.479819781845436,NA,NA,NA
"experimental",9,29,"hd","upper","staircase","aftertar1","w","g","g",1,2.47509774623904,NA,NA,NA
"experimental",9,30,"hd","upper","alarm","aftertar2","w","g","g",1,0.845503465796355,NA,NA,NA
"experimental",10,1,"hd","upper","primal","w","w","g","g",1,0.818161599978339,NA,NA,NA
"experimental",10,2,"hd","upper","forgery","w","w","g","g",1,0.800692120828899,NA,NA,NA
"experimental",10,3,"hd","upper","otiates","nw","nw","h","h",1,0.695180101145525,NA,NA,NA
"experimental",10,4,"hd","upper","amms","nw","nw","h","h",1,0.633860949601512,NA,NA,NA
"experimental",10,5,"hd","upper","provide","w","w","g","g",1,0.655072983005084,NA,NA,NA
"experimental",10,6,"hd","upper","accessory","w","w","g","g",1,0.50626124930568,NA,NA,NA
"experimental",10,7,"hd","upper","esdings","nw","nw","h","h",1,0.564164742769208,NA,NA,NA
"experimental",10,8,"hd","upper","managed","w","w","g","g",1,0.532120159303304,NA,NA,NA
"experimental",10,9,"hd","upper","nameplate","w","w","g","g",1,1.15731628195499,NA,NA,NA
"experimental",10,10,"hd","upper","eggays","nw","nw","h","h",1,0.605355478095589,NA,NA,NA
"experimental",10,11,"hd","upper","emotion","w","w","g","g",1,0.45929564916878,NA,NA,NA
"experimental",10,12,"hd","upper","anterior","w","w","g","g",1,1.35122973384568,NA,NA,NA
"experimental",10,13,"hd","upper","downtrund","nw","nw","h","h",1,0.695907241519308,NA,NA,NA
"experimental",10,14,"hd","upper","moozy","nw","nw","h","h",1,0.577616386581212,NA,NA,NA
"experimental",10,15,"hd","upper","culer","nw","nw","h","h",1,0.656905473297229,NA,NA,NA
"experimental",10,16,"hd","upper","scack","nw","nw","h","h",1,0.812778527702903,NA,NA,NA
"experimental",10,17,"hd","upper","image","w","w","g","g",1,0.562791657896014,NA,NA,NA
"experimental",10,18,"hd","upper","formation","w","w","g","g",1,0.538797535380581,NA,NA,NA
"experimental",10,19,"hd","upper","rillains","nw","nw","h","h",1,0.69145112982369,NA,NA,NA
"experimental",10,20,"hd","upper","result","w","w","g","g",1,0.830071126663825,NA,NA,NA
"experimental",10,21,"hd","upper","frader","nw","nw","h","h",1,0.555326772824628,NA,NA,NA
"experimental",10,22,"hd","upper","capobly","nw","nw","h","h",1,0.786159576411592,NA,NA,NA
"experimental",10,23,"hd","upper","smabled","nw","nw","h","h",1,0.767909228830831,NA,NA,NA
"experimental",10,24,"hd","upper","booster","w","w","g","g",1,0.5923424125358,NA,NA,NA
"experimental",10,25,"hd","upper","balign","nw","nw","h","h",1,0.639501796016702,NA,NA,NA
"experimental",10,26,"hd","upper","boulder","w","w","g","g",1,0.524242654530099,NA,NA,NA
"experimental",10,27,"hd","upper","undue","w","w","g","g",1,0.541619769617682,NA,NA,NA
"experimental",10,28,"hd","upper","dolphin","target","target","q","q",1,0.758326007955475,1,NA,NA
"experimental",10,29,"hd","upper","planofoad","aftertar1","nw","h","h",1,0.97420761056128,NA,NA,NA
"experimental",10,30,"hd","upper","lancos","aftertar2","nw","h","h",1,0.541554873343557,NA,NA,NA
"experimental",11,1,"hd","upper","wienegs","nw","nw","h","h",1,0.51766730149393,NA,NA,NA
"experimental",11,2,"hd","upper","ephically","nw","nw","h","h",1,0.847648665687302,NA,NA,NA
"experimental",11,3,"hd","upper","gerby","nw","nw","h","h",1,0.572261385736056,NA,NA,NA
"experimental",11,4,"hd","upper","organize","w","w","g","g",1,0.563604823575588,NA,NA,NA
"experimental",11,5,"hd","upper","labitable","nw","nw","h","h",1,0.85959773385548,NA,NA,NA
"experimental",11,6,"hd","upper","deadly","w","w","g","g",1,0.871553744451376,NA,NA,NA
"experimental",11,7,"hd","upper","repayment","w","w","g","g",1,0.841983973688912,NA,NA,NA
"experimental",11,8,"hd","upper","euphoric","w","w","g","g",1,0.590558217169018,NA,NA,NA
"experimental",11,9,"hd","upper","eightiech","nw","nw","h","h",1,0.765149174287217,NA,NA,NA
"experimental",11,10,"hd","upper","machinery","w","w","g","g",1,0.541131689125905,NA,NA,NA
"experimental",11,11,"hd","upper","army","w","w","g","g",1,0.701754850510042,NA,NA,NA
"experimental",11,12,"hd","upper","nostril","w","w","g","g",1,0.52736793938675,NA,NA,NA
"experimental",11,13,"hd","upper","valif","nw","nw","h","h",1,0.592524423991563,NA,NA,NA
"experimental",11,14,"hd","upper","fracture","w","w","g","g",1,0.51984811888542,NA,NA,NA
"experimental",11,15,"hd","upper","poyride","nw","nw","h","h",1,0.665711146022659,NA,NA,NA
"experimental",11,16,"hd","upper","integral","w","w","g","g",1,0.485607324051671,NA,NA,NA
"experimental",11,17,"hd","upper","allained","nw","nw","h","h",1,0.79207630752353,NA,NA,NA
"experimental",11,18,"hd","upper","infusion","w","w","g","g",1,0.646657291741576,NA,NA,NA
"experimental",11,19,"hd","upper","oppose","w","w","g","g",1,0.62719232699601,NA,NA,NA
"experimental",11,20,"hd","upper","hodels","nw","nw","h","h",1,0.608605726069072,NA,NA,NA
"experimental",11,21,"hd","upper","warmer","w","w","g","g",1,0.574524908151943,NA,NA,NA
"experimental",11,22,"hd","upper","sonnet","w","w","g","g",1,1.26188987103524,NA,NA,NA
"experimental",11,23,"hd","upper","filter","w","w","g","g",1,0.625786643038737,NA,NA,NA
"experimental",11,24,"hd","upper","ebciting","nw","nw","h","h",1,0.591065011947649,NA,NA,NA
"experimental",11,25,"hd","upper","gorilla","target","target","q","q",1,0.57373317333986,1,NA,NA
"experimental",11,26,"hd","upper","mogus","aftertar1","nw","h","h",1,0.604163499170681,NA,NA,NA
"experimental",11,27,"hd","upper","derisury","aftertar2","nw","h","h",1,0.834073567995802,NA,NA,NA
"experimental",11,28,"hd","upper","defensa","aftertar3","nw","h","h",1,0.719314580783248,NA,NA,NA
"experimental",11,29,"hd","upper","erony","nw","nw","h","h",1,0.776645779464161,NA,NA,NA
"experimental",11,30,"hd","upper","ireology","nw","nw","h","h",1,0.79999456112273,NA,NA,NA
"experimental",12,1,"hd","upper","slooch","nw","nw","h","h",1,0.582209535088623,NA,NA,NA
"experimental",12,2,"hd","upper","selongs","nw","nw","h","h",1,0.572255952545675,NA,NA,NA
"experimental",12,3,"hd","upper","abraid","nw","nw","h","h",1,0.987784519296838,NA,NA,NA
"experimental",12,4,"hd","upper","delegate","w","w","g","g",1,0.595175814960385,NA,NA,NA
"experimental",12,5,"hd","upper","shivering","w","w","g","g",1,0.52216265280731,NA,NA,NA
"experimental",12,6,"hd","upper","veirs","nw","nw","h","h",1,0.55532405624399,NA,NA,NA
"experimental",12,7,"hd","upper","miurnal","nw","nw","h","h",1,0.515352163871285,NA,NA,NA
"experimental",12,8,"hd","upper","fidelity","w","w","g","g",1,0.709347717114724,NA,NA,NA
"experimental",12,9,"hd","upper","culinary","w","w","g","g",1,0.575386670563603,NA,NA,NA
"experimental",12,10,"hd","upper","brother","w","w","g","g",1,0.6457239924639,NA,NA,NA
"experimental",12,11,"hd","upper","irregular","w","w","g","g",1,0.522248979948927,NA,NA,NA
"experimental",12,12,"hd","upper","prawls","nw","nw","h","g",0,0.739534455438843,NA,NA,NA
"experimental",12,13,"hd","upper","cutout","w","w","g","g",1,0.588197199365823,NA,NA,NA
"experimental",12,14,"hd","upper","warden","w","w","g","g",1,0.706806800735649,NA,NA,NA
"experimental",12,15,"hd","upper","analysis","w","w","g","g",1,0.508834462874802,NA,NA,NA
"experimental",12,16,"hd","upper","deeper","w","w","g","g",1,0.534750421269564,NA,NA,NA
"experimental",12,17,"hd","upper","ofsters","nw","nw","h","h",1,0.840073305997066,NA,NA,NA
"experimental",12,18,"hd","upper","tablet","w","w","g","g",1,0.57271384872729,NA,NA,NA
"experimental",12,19,"hd","upper","finstrel","nw","nw","h","h",1,0.611159018008038,NA,NA,NA
"experimental",12,20,"hd","upper","newstrint","nw","nw","h","h",1,0.689109429978998,NA,NA,NA
"experimental",12,21,"hd","upper","roughly","w","w","g","g",1,0.611588239087723,NA,NA,NA
"experimental",12,22,"hd","upper","dounger","nw","nw","h","h",1,0.729563064174727,NA,NA,NA
"experimental",12,23,"hd","upper","wimpid","nw","nw","h","h",1,0.570794125756947,NA,NA,NA
"experimental",12,24,"hd","upper","tibs","nw","nw","h","h",1,0.617976751178503,NA,NA,NA
"experimental",12,25,"hd","upper","happen","w","w","g","g",1,0.471972461382393,NA,NA,NA
"experimental",12,26,"hd","upper","setwixt","nw","nw","h","h",1,0.833850203984184,NA,NA,NA
"experimental",12,27,"hd","upper","harfing","nw","nw","h","h",1,0.655509448348312,NA,NA,NA
"experimental",12,28,"hd","upper","acroad","nw","nw","h","h",1,0.556194572127424,NA,NA,NA
"experimental",12,29,"hd","upper","ladybug","target","target","q","g",0,0.579253584262915,NA,NA,NA
"experimental",12,30,"hd","upper","alchemist","aftertar1","w","g","g",1,0.802405383030418,NA,NA,NA
"experimental",13,1,"hd","upper","mineluyer","nw","nw","h","h",1,0.696993575314991,NA,NA,NA
"experimental",13,2,"hd","upper","gigoho","nw","nw","h","h",1,0.626774877804564,NA,NA,NA
"experimental",13,3,"hd","upper","ifkling","nw","nw","h","h",1,0.583974110661075,NA,NA,NA
"experimental",13,4,"hd","upper","lavilion","nw","nw","h","h",1,0.703423741768347,NA,NA,NA
"experimental",13,5,"hd","upper","ounwit","nw","nw","h","h",1,0.552981149026891,NA,NA,NA
"experimental",13,6,"hd","upper","crudios","nw","nw","h","h",1,0.840930842619855,NA,NA,NA
"experimental",13,7,"hd","upper","contusiok","nw","nw","h","h",1,0.581395765737398,NA,NA,NA
"experimental",13,8,"hd","upper","resent","w","w","g","g",1,0.588563938916195,NA,NA,NA
"experimental",13,9,"hd","upper","triangle","w","w","g","g",1,0.643053887208225,NA,NA,NA
"experimental",13,10,"hd","upper","railroad","w","w","g","g",1,0.51969146222109,NA,NA,NA
"experimental",13,11,"hd","upper","despise","w","w","g","g",1,0.553007409384008,NA,NA,NA
"experimental",13,12,"hd","upper","handle","w","w","g","g",1,0.488988270109985,NA,NA,NA
"experimental",13,13,"hd","upper","clooped","nw","nw","h","h",1,0.562756342231296,NA,NA,NA
"experimental",13,14,"hd","upper","stelled","nw","nw","h","h",1,0.730733612232143,NA,NA,NA
"experimental",13,15,"hd","upper","chone","nw","nw","h","h",1,0.514746062661288,NA,NA,NA
"experimental",13,16,"hd","upper","paterways","nw","nw","h","h",1,0.6771431567322,NA,NA,NA
"experimental",13,17,"hd","upper","potent","w","w","g","g",1,0.841098365635844,NA,NA,NA
"experimental",13,18,"hd","upper","intercede","w","w","g","h",0,1.41387518454576,NA,NA,NA
"experimental",13,19,"hd","upper","glates","nw","nw","h","h",1,0.683865507453447,NA,NA,NA
"experimental",13,20,"hd","upper","marvel","w","w","g","g",1,0.519064835680183,NA,NA,NA
"experimental",13,21,"hd","upper","other","w","w","g","g",1,0.601016179745784,NA,NA,NA
"experimental",13,22,"hd","upper","medium","w","w","g","g",1,0.526907930325251,NA,NA,NA
"experimental",13,23,"hd","upper","apop","nw","nw","h","h",1,0.592042984033469,NA,NA,NA
"experimental",13,24,"hd","upper","sording","nw","nw","h","h",1,0.806680992507609,NA,NA,NA
"experimental",13,25,"hd","upper","melodic","w","w","g","g",1,0.668618198222248,NA,NA,NA
"experimental",13,26,"hd","upper","hangar","w","w","g","h",0,0.60852603946114,NA,NA,NA
"experimental",13,27,"hd","upper","tredits","nw","nw","h","h",1,0.606581263506087,NA,NA,NA
"experimental",13,28,"hd","upper","holdup","w","w","g","h",0,1.01262893420062,NA,NA,NA
"experimental",13,29,"hd","upper","ready","w","w","g","g",1,0.67451048005023,NA,NA,NA
"experimental",13,30,"hd","upper","seldom","w","w","g","g",1,0.621820422937162,NA,NA,NA
"experimental",14,1,"ld","lower","mitten","w","w","g","g",1,0.59469377133064,NA,NA,NA
"experimental",14,2,"ld","lower","chrayed","nw","nw","h","h",1,0.953343904257054,NA,NA,NA
"experimental",14,3,"ld","lower","ronic","nw","nw","h","h",1,0.777346357615897,NA,NA,NA
"experimental",14,4,"ld","lower","whirlpool","w","w","g","g",1,0.791448171745287,NA,NA,NA
"experimental",14,5,"ld","lower","casino","w","w","g","g",1,0.76644076150842,NA,NA,NA
"experimental",14,6,"ld","lower","pamine","nw","nw","h","h",1,0.646114577626577,NA,NA,NA
"experimental",14,7,"ld","lower","pleamed","nw","nw","h","h",1,0.802868712402415,NA,NA,NA
"experimental",14,8,"ld","lower","anonymous","w","w","g","g",1,0.664823425060604,NA,NA,NA
"experimental",14,9,"ld","lower","buttress","w","w","g","g",1,0.700737035134807,NA,NA,NA
"experimental",14,10,"ld","lower","senior","w","w","g","g",1,0.663491390878335,NA,NA,NA
"experimental",14,11,"ld","lower","vergas","nw","nw","h","h",1,0.65135185958934,NA,NA,NA
"experimental",14,12,"ld","lower","dorth","nw","nw","h","h",1,0.600002891995246,NA,NA,NA
"experimental",14,13,"ld","lower","venturous","w","w","g","g",1,1.31070426097722,NA,NA,NA
"experimental",14,14,"ld","lower","exploit","w","w","g","g",1,0.663744637364289,NA,NA,NA
"experimental",14,15,"ld","lower","giving","w","w","g","g",1,0.483610329189105,NA,NA,NA
"experimental",14,16,"ld","lower","etber","nw","nw","h","h",1,0.566921175195603,NA,NA,NA
"experimental",14,17,"ld","lower","tinker","w","w","g","g",1,0.98289073491469,NA,NA,NA
"experimental",14,18,"ld","lower","snorls","nw","nw","h","h",1,0.830204843252432,NA,NA,NA
"experimental",14,19,"ld","lower","reddar","nw","nw","h","h",1,0.643514801835408,NA,NA,NA
"experimental",14,20,"ld","lower","fravity","nw","nw","h","h",1,0.576152748719323,NA,NA,NA
"experimental",14,21,"ld","lower","ulcer","w","w","g","h",0,0.583568433328765,NA,NA,NA
"experimental",14,22,"ld","lower","mantos","nw","nw","h","h",1,0.718746511789504,NA,NA,NA
"experimental",14,23,"ld","lower","horks","nw","nw","h","h",1,0.775637019367423,NA,NA,NA
"experimental",14,24,"ld","lower","serving","w","w","g","g",1,0.551085573504679,NA,NA,NA
"experimental",14,25,"ld","lower","checkout","w","w","g","g",1,0.878828166431049,NA,NA,NA
"experimental",14,26,"ld","lower","dialect","w","w","g","g",1,0.92213421917404,NA,NA,NA
"experimental",14,27,"ld","lower","mestowal","nw","nw","h","h",1,0.658250486769248,NA,NA,NA
"experimental",14,28,"ld","lower","spiud","nw","nw","h","h",1,0.57466435970855,NA,NA,NA
"experimental",14,29,"ld","lower","mounting","w","w","g","g",1,0.718607965769479,NA,NA,NA
"experimental",14,30,"ld","lower","treenery","nw","nw","h","h",1,0.808448284631595,NA,NA,NA
"experimental",15,1,"ld","lower","joadbed","nw","nw","h","h",1,0.574014189391164,NA,NA,NA
"experimental",15,2,"ld","lower","chappef","nw","nw","h","h",1,0.541330603795359,NA,NA,NA
"experimental",15,3,"ld","lower","static","w","w","g","g",1,0.557943753665313,NA,NA,NA
"experimental",15,4,"ld","lower","rearrange","w","w","g","g",1,0.637886632845039,NA,NA,NA
"experimental",15,5,"ld","lower","theles","nw","nw","h","h",1,0.71453127101995,NA,NA,NA
"experimental",15,6,"ld","lower","borrent","nw","nw","h","h",1,0.764520736673148,NA,NA,NA
"experimental",15,7,"ld","lower","sooled","nw","nw","h","h",1,0.555553758924361,NA,NA,NA
"experimental",15,8,"ld","lower","dontrite","nw","nw","h","h",1,0.811556968139485,NA,NA,NA
"experimental",15,9,"ld","lower","funtair","nw","nw","h","h",1,0.537491157854674,NA,NA,NA
"experimental",15,10,"ld","lower","corduroy","w","w","g","g",1,0.690051784564275,NA,NA,NA
"experimental",15,11,"ld","lower","flooted","nw","nw","h","h",1,0.588719388149912,NA,NA,NA
"experimental",15,12,"ld","lower","comply","w","w","g","g",1,0.827386532968376,NA,NA,NA
"experimental",15,13,"ld","lower","frose","nw","nw","h","h",1,0.56068237737054,NA,NA,NA
"experimental",15,14,"ld","lower","gazes","w","w","g","g",1,1.24065882150899,NA,NA,NA
"experimental",15,15,"ld","lower","alber","nw","nw","h","h",1,0.645316805952461,NA,NA,NA
"experimental",15,16,"ld","lower","actual","w","w","g","g",1,0.615846341621364,NA,NA,NA
"experimental",15,17,"ld","lower","coster","nw","nw","h","h",1,2.79796768381493,NA,NA,NA
"experimental",15,18,"ld","lower","outset","w","w","g","g",1,0.61348804042791,NA,NA,NA
"experimental",15,19,"ld","lower","tuckel","nw","nw","h","h",1,0.707459385826951,NA,NA,NA
"experimental",15,20,"ld","lower","snays","nw","nw","h","h",1,0.901441657973919,NA,NA,NA
"experimental",15,21,"ld","lower","overwork","w","w","g","g",1,0.655466586613329,NA,NA,NA
"experimental",15,22,"ld","lower","colored","w","w","g","g",1,0.73137291619787,NA,NA,NA
"experimental",15,23,"ld","lower","region","w","w","g","g",1,0.532704225974157,NA,NA,NA
"experimental",15,24,"ld","lower","deakers","nw","nw","h","h",1,0.621137049864046,NA,NA,NA
"experimental",15,25,"ld","lower","parlayid","nw","nw","h","h",1,0.786453873559367,NA,NA,NA
"experimental",15,26,"ld","lower","airline","w","w","g","g",1,0.752996060095029,NA,NA,NA
"experimental",15,27,"ld","lower","inducing","w","w","g","g",1,0.58491435230826,NA,NA,NA
"experimental",15,28,"ld","lower","oppose","w","w","g","g",1,0.535583810415119,NA,NA,NA
"experimental",15,29,"ld","lower","daylight","w","w","g","g",1,0.552183679188602,NA,NA,NA
"experimental",15,30,"ld","lower","expounded","w","w","g","g",1,1.24824897153303,NA,NA,NA
"experimental",16,1,"ld","lower","aviation","w","w","g","g",1,0.636330630979501,NA,NA,NA
"experimental",16,2,"ld","lower","togglo","nw","nw","h","h",1,0.617014776769793,NA,NA,NA
"experimental",16,3,"ld","lower","oginous","nw","nw","h","h",1,0.679004020290449,NA,NA,NA
"experimental",16,4,"ld","lower","stretches","w","w","g","g",1,0.601250711944886,NA,NA,NA
"experimental",16,5,"ld","lower","huntry","nw","nw","h","h",1,0.927149042690871,NA,NA,NA
"experimental",16,6,"ld","lower","prame","nw","nw","h","h",1,0.705181374913082,NA,NA,NA
"experimental",16,7,"ld","lower","contain","w","w","g","g",1,0.915602331544505,NA,NA,NA
"experimental",16,8,"ld","lower","trises","nw","nw","h","h",1,0.572488673671614,NA,NA,NA
"experimental",16,9,"ld","lower","unversed","w","w","g","g",1,0.819878484297078,NA,NA,NA
"experimental",16,10,"ld","lower","rualify","nw","nw","h","h",1,0.769061666331254,NA,NA,NA
"experimental",16,11,"ld","lower","absent","w","w","g","g",1,0.54436714676558,NA,NA,NA
"experimental",16,12,"ld","lower","turning","w","w","g","g",1,0.617212484125048,NA,NA,NA
"experimental",16,13,"ld","lower","maiden","w","w","g","g",1,0.774411233986029,NA,NA,NA
"experimental",16,14,"ld","lower","frowsed","nw","nw","h","h",1,0.861647853133036,NA,NA,NA
"experimental",16,15,"ld","lower","houted","nw","nw","h","h",1,0.665566261275671,NA,NA,NA
"experimental",16,16,"ld","lower","vintnel","nw","nw","h","h",1,0.717686740215868,NA,NA,NA
"experimental",16,17,"ld","lower","hatred","w","w","g","g",1,0.65407327824505,NA,NA,NA
"experimental",16,18,"ld","lower","slooping","nw","nw","h","h",1,0.977921187877655,NA,NA,NA
"experimental",16,19,"ld","lower","acting","w","w","g","g",1,0.993242448661476,NA,NA,NA
"experimental",16,20,"ld","lower","foster","w","w","g","g",1,0.855799338576617,NA,NA,NA
"experimental",16,21,"ld","lower","latter","w","w","g","g",1,0.635771919129184,NA,NA,NA
"experimental",16,22,"ld","lower","razelle","nw","nw","h","h",1,1.31249268216197,NA,NA,NA
"experimental",16,23,"ld","lower","brongs","nw","nw","h","h",1,0.866386791924015,NA,NA,NA
"experimental",16,24,"ld","lower","frequency","w","w","g","g",1,0.518456621561199,NA,NA,NA
"experimental",16,25,"ld","lower","superstar","w","w","g","g",1,0.64678738618386,NA,NA,NA
"experimental",16,26,"ld","lower","rabbit","target","target","q","q",1,0.570225453091552,1,NA,NA
"experimental",16,27,"ld","lower","loneliest","aftertar1","w","g","h",0,1.99344377810485,NA,NA,NA
"experimental",16,28,"ld","lower","donastic","aftertar2","nw","h","h",1,0.841014453209937,NA,NA,NA
"experimental",16,29,"ld","lower","glocked","aftertar3","nw","h","h",1,0.933914556982927,NA,NA,NA
"experimental",16,30,"ld","lower","caloric","nw","w","g","g",1,0.606470487022307,NA,NA,NA
"experimental",17,1,"ld","lower","optional","w","w","g","g",1,0.596065950667253,NA,NA,NA
"experimental",17,2,"ld","lower","publish","w","w","g","g",1,0.610664296953473,NA,NA,NA
"experimental",17,3,"ld","lower","release","w","w","g","g",1,0.568596706987591,NA,NA,NA
"experimental",17,4,"ld","lower","statute","w","w","g","g",1,0.679961467045359,NA,NA,NA
"experimental",17,5,"ld","lower","rantho","nw","nw","h","h",1,0.555269422591664,NA,NA,NA
"experimental",17,6,"ld","lower","oalis","nw","nw","h","h",1,0.667236963607138,NA,NA,NA
"experimental",17,7,"ld","lower","gradielts","nw","nw","h","h",1,0.702525154454634,NA,NA,NA
"experimental",17,8,"ld","lower","vivid","w","w","g","g",1,0.559617776278174,NA,NA,NA
"experimental",17,9,"ld","lower","fuack","nw","nw","h","h",1,0.591554903512588,NA,NA,NA
"experimental",17,10,"ld","lower","painter","w","w","g","g",1,0.53411353204865,NA,NA,NA
"experimental",17,11,"ld","lower","mopping","w","w","g","g",1,0.81477974835434,NA,NA,NA
"experimental",17,12,"ld","lower","pakened","nw","nw","h","h",1,0.660781744139967,NA,NA,NA
"experimental",17,13,"ld","lower","paranoid","w","w","g","g",1,0.7527385877911,NA,NA,NA
"experimental",17,14,"ld","lower","peags","nw","nw","h","h",1,0.560729163029464,NA,NA,NA
"experimental",17,15,"ld","lower","portify","nw","nw","h","h",1,1.04069763855659,NA,NA,NA
"experimental",17,16,"ld","lower","wrecber","nw","nw","h","h",1,0.572054623102304,NA,NA,NA
"experimental",17,17,"ld","lower","owner","w","w","g","g",1,0.579718121007318,NA,NA,NA
"experimental",17,18,"ld","lower","ascending","w","w","g","g",1,0.683845887630014,NA,NA,NA
"experimental",17,19,"ld","lower","scrib","nw","nw","h","h",1,0.558243484003469,NA,NA,NA
"experimental",17,20,"ld","lower","pregs","nw","nw","h","h",1,0.622251153254183,NA,NA,NA
"experimental",17,21,"ld","lower","trecious","nw","nw","h","h",1,0.931498301855754,NA,NA,NA
"experimental",17,22,"ld","lower","standard","w","w","g","g",1,0.50086489590467,NA,NA,NA
"experimental",17,23,"ld","lower","cartles","nw","nw","h","h",1,0.830787400685949,NA,NA,NA
"experimental",17,24,"ld","lower","deficit","w","w","g","g",1,0.940171767259017,NA,NA,NA
"experimental",17,25,"ld","lower","figure","w","w","g","g",1,0.468785600503907,NA,NA,NA
"experimental",17,26,"ld","lower","guitar","w","w","g","g",1,0.543149812991032,NA,NA,NA
"experimental",17,27,"ld","lower","crimb","nw","nw","h","h",1,0.719875103648519,NA,NA,NA
"experimental",17,28,"ld","lower","erithets","nw","nw","h","h",1,0.712997303693555,NA,NA,NA
"experimental",17,29,"ld","lower","elalt","nw","nw","h","h",1,0.762999144935748,NA,NA,NA
"experimental",17,30,"ld","lower","obtuse","w","w","g","g",1,0.66695172173786,NA,NA,NA
"experimental",18,1,"ld","lower","terming","w","w","g","g",1,0.847500158823095,NA,NA,NA
"experimental",18,2,"ld","lower","halents","nw","nw","h","h",1,0.531189274770441,NA,NA,NA
"experimental",18,3,"ld","lower","leather","w","w","g","g",1,0.620518573065056,NA,NA,NA
"experimental",18,4,"ld","lower","dusmy","nw","nw","h","h",1,0.569785365660209,NA,NA,NA
"experimental",18,5,"ld","lower","surfaced","w","w","g","g",1,0.976053683785722,NA,NA,NA
"experimental",18,6,"ld","lower","scrooner","nw","nw","h","h",1,0.655187683441909,NA,NA,NA
"experimental",18,7,"ld","lower","seasoning","w","w","g","g",1,0.811964758351678,NA,NA,NA
"experimental",18,8,"ld","lower","dialogues","w","w","g","g",1,0.85845284248353,NA,NA,NA
"experimental",18,9,"ld","lower","stranded","w","w","g","g",1,1.14143329087528,NA,NA,NA
"experimental",18,10,"ld","lower","halms","nw","nw","h","h",1,0.965966686519096,NA,NA,NA
"experimental",18,11,"ld","lower","lifetime","w","w","g","g",1,0.581922784011113,NA,NA,NA
"experimental",18,12,"ld","lower","gunrunker","nw","nw","h","h",1,0.757239070459036,NA,NA,NA
"experimental",18,13,"ld","lower","peanimate","nw","nw","h","h",1,0.813268721132772,NA,NA,NA
"experimental",18,14,"ld","lower","exclusion","w","w","g","g",1,0.523190127161797,NA,NA,NA
"experimental",18,15,"ld","lower","naxis","nw","nw","h","h",1,0.508441462967312,NA,NA,NA
"experimental",18,16,"ld","lower","scabry","nw","nw","h","h",1,0.65443971590139,NA,NA,NA
"experimental",18,17,"ld","lower","rangel","nw","nw","h","h",1,0.578409630601527,NA,NA,NA
"experimental",18,18,"ld","lower","fivalve","nw","nw","h","h",1,0.593738739320543,NA,NA,NA
"experimental",18,19,"ld","lower","coverall","w","w","g","g",1,1.46341248904355,NA,NA,NA
"experimental",18,20,"ld","lower","ecistle","nw","nw","h","h",1,0.547303779603681,NA,NA,NA
"experimental",18,21,"ld","lower","favoting","nw","nw","h","h",1,0.803955348092131,NA,NA,NA
"experimental",18,22,"ld","lower","revising","w","w","g","g",1,0.633876645471901,NA,NA,NA
"experimental",18,23,"ld","lower","rejoiced","w","w","g","g",1,0.614551132312045,NA,NA,NA
"experimental",18,24,"ld","lower","ludictous","nw","nw","h","h",1,1.20447777834488,NA,NA,NA
"experimental",18,25,"ld","lower","compose","w","w","g","g",1,0.546435980300885,NA,NA,NA
"experimental",18,26,"ld","lower","elormity","nw","nw","h","h",1,0.827047864848282,NA,NA,NA
"experimental",18,27,"ld","lower","bloodless","w","w","g","g",1,0.775614682963351,NA,NA,NA
"experimental",18,28,"ld","lower","profats","nw","nw","h","h",1,0.597724579274654,NA,NA,NA
"experimental",18,29,"ld","lower","unlined","w","w","g","g",1,0.716704240447143,NA,NA,NA
"experimental",18,30,"ld","lower","matter","w","w","g","g",1,0.535216769058025,NA,NA,NA
"experimental",19,1,"hd","upper","computer","w","w","g","g",1,0.663893747929251,NA,NA,NA
"experimental",19,2,"hd","upper","slimped","nw","nw","h","h",1,0.723055625829147,NA,NA,NA
"experimental",19,3,"hd","upper","graciap","nw","nw","h","h",1,0.628166375128785,NA,NA,NA
"experimental",19,4,"hd","upper","elvisages","nw","nw","h","h",1,0.537492063391255,NA,NA,NA
"experimental",19,5,"hd","upper","mystery","w","w","g","g",1,0.626058301975718,NA,NA,NA
"experimental",19,6,"hd","upper","graiking","nw","nw","h","h",1,0.519362453109352,NA,NA,NA
"experimental",19,7,"hd","upper","infancy","w","w","g","g",1,0.624676161794923,NA,NA,NA
"experimental",19,8,"hd","upper","scatter","w","w","g","g",1,0.91001430770848,NA,NA,NA
"experimental",19,9,"hd","upper","urgent","w","w","g","g",1,0.535962020017905,NA,NA,NA
"experimental",19,10,"hd","upper","duplex","w","w","g","g",1,0.600563414889621,NA,NA,NA
"experimental",19,11,"hd","upper","reses","nw","nw","h","h",1,0.757672819192521,NA,NA,NA
"experimental",19,12,"hd","upper","nimp","nw","nw","h","h",1,0.693625004816568,NA,NA,NA
"experimental",19,13,"hd","upper","rander","nw","nw","h","h",1,1.27219721383881,NA,NA,NA
"experimental",19,14,"hd","upper","havel","nw","nw","h","h",1,0.539489661925472,NA,NA,NA
"experimental",19,15,"hd","upper","robbery","w","w","g","g",1,0.588138641760452,NA,NA,NA
"experimental",19,16,"hd","upper","kangaroo","target","target","q","q",1,0.746786842879374,1,NA,NA
"experimental",19,17,"hd","upper","fomes","aftertar1","nw","h","h",1,0.618350734934211,NA,NA,NA
"experimental",19,18,"hd","upper","bailmenz","aftertar2","nw","h","h",1,0.631502044736408,NA,NA,NA
"experimental",19,19,"hd","upper","brudent","aftertar3","nw","h","h",1,0.837424027908128,NA,NA,NA
"experimental",19,20,"hd","upper","arbitrary","nw","w","g","g",1,0.761856366414577,NA,NA,NA
"experimental",19,21,"hd","upper","preight","w","nw","h","h",1,0.617825225868728,NA,NA,NA
"experimental",19,22,"hd","upper","handcuff","nw","w","g","g",1,0.518954662868055,NA,NA,NA
"experimental",19,23,"hd","upper","pillage","w","w","g","h",0,0.696214216091903,NA,NA,NA
"experimental",19,24,"hd","upper","outrank","w","w","g","g",1,0.682812678220216,NA,NA,NA
"experimental",19,25,"hd","upper","awful","w","w","g","g",1,0.550288103695493,NA,NA,NA
"experimental",19,26,"hd","upper","splinging","w","nw","h","h",1,1.1186202809331,NA,NA,NA
"experimental",19,27,"hd","upper","unbridled","nw","w","g","g",1,0.912182145839324,NA,NA,NA
"experimental",19,28,"hd","upper","inside","w","w","g","g",1,0.578055870340904,NA,NA,NA
"experimental",19,29,"hd","upper","thamp","w","nw","h","h",1,0.53655936778523,NA,NA,NA
"experimental",19,30,"hd","upper","fuestion","nw","nw","h","h",1,0.785020420036744,NA,NA,NA
"experimental",20,1,"hd","upper","pammed","nw","nw","h","h",1,0.599562200863147,NA,NA,NA
"experimental",20,2,"hd","upper","mamps","nw","nw","h","h",1,0.64622384487302,NA,NA,NA
"experimental",20,3,"hd","upper","itfidels","nw","nw","h","h",1,0.651104046322871,NA,NA,NA
"experimental",20,4,"hd","upper","rootsie","nw","nw","h","h",1,0.717844906059327,NA,NA,NA
"experimental",20,5,"hd","upper","apticle","nw","nw","h","h",1,0.599084383051377,NA,NA,NA
"experimental",20,6,"hd","upper","sequence","w","w","g","g",1,0.557695638533914,NA,NA,NA
"experimental",20,7,"hd","upper","populace","w","w","g","g",1,1.1085652790789,NA,NA,NA
"experimental",20,8,"hd","upper","fragment","w","w","g","g",1,0.622965314309113,NA,NA,NA
"experimental",20,9,"hd","upper","planar","w","w","g","g",1,0.68487366384943,NA,NA,NA
"experimental",20,10,"hd","upper","mebase","nw","nw","h","h",1,0.599575481988722,NA,NA,NA
"experimental",20,11,"hd","upper","cookbook","w","w","g","g",1,0.629931252507959,NA,NA,NA
"experimental",20,12,"hd","upper","strenuous","w","w","g","g",1,0.859607392834732,NA,NA,NA
"experimental",20,13,"hd","upper","iolize","nw","nw","h","h",1,0.934600646636682,NA,NA,NA
"experimental",20,14,"hd","upper","typical","w","w","g","g",1,0.511193669604836,NA,NA,NA
"experimental",20,15,"hd","upper","regards","w","w","g","g",1,0.513151424820535,NA,NA,NA
"experimental",20,16,"hd","upper","ounside","nw","nw","h","h",1,0.627234886895167,NA,NA,NA
"experimental",20,17,"hd","upper","cemoir","nw","nw","h","h",1,0.576426520536188,NA,NA,NA
"experimental",20,18,"hd","upper","number","w","w","g","g",1,1.03170512485667,NA,NA,NA
"experimental",20,19,"hd","upper","contund","nw","nw","h","h",1,0.621041063714074,NA,NA,NA
"experimental",20,20,"hd","upper","miteous","nw","nw","h","h",1,0.85839066276094,NA,NA,NA
"experimental",20,21,"hd","upper","peahem","nw","nw","h","h",1,0.550532294873847,NA,NA,NA
"experimental",20,22,"hd","upper","epthuse","nw","nw","h","h",1,0.525428294757148,NA,NA,NA
"experimental",20,23,"hd","upper","giraffe","target","target","q","q",1,0.766670464217896,1,NA,NA
"experimental",20,24,"hd","upper","antonym","aftertar1","w","g","g",1,0.758580159948906,NA,NA,NA
"experimental",20,25,"hd","upper","command","aftertar2","w","g","g",1,0.566593071591342,NA,NA,NA
"experimental",20,26,"hd","upper","offonents","aftertar3","nw","h","h",1,0.598551629722351,NA,NA,NA
"experimental",20,27,"hd","upper","pocket","nw","w","g","g",1,0.71725359512493,NA,NA,NA
"experimental",20,28,"hd","upper","trocess","w","nw","h","h",1,0.550511769513832,NA,NA,NA
"experimental",20,29,"hd","upper","butcher","nw","w","g","g",1,0.870455940574175,NA,NA,NA
"experimental",20,30,"hd","upper","hotplate","w","w","g","g",1,0.68058326409664,NA,NA,NA
"experimental",21,1,"hd","upper","causality","w","w","g","g",1,0.579983441217337,NA,NA,NA
"experimental",21,2,"hd","upper","remade","w","w","g","g",1,0.731292324053356,NA,NA,NA
"experimental",21,3,"hd","upper","charcoal","w","w","g","g",1,0.788628654088825,NA,NA,NA
"experimental",21,4,"hd","upper","plapping","nw","nw","h","h",1,0.587235224957112,NA,NA,NA
"experimental",21,5,"hd","upper","recipus","nw","nw","h","h",1,0.657875899312785,NA,NA,NA
"experimental",21,6,"hd","upper","finish","w","w","g","g",1,0.716888062976068,NA,NA,NA
"experimental",21,7,"hd","upper","gymnasium","w","w","g","g",1,0.686969965143362,NA,NA,NA
"experimental",21,8,"hd","upper","pallir","nw","nw","h","h",1,0.569376066239784,NA,NA,NA
"experimental",21,9,"hd","upper","roodies","nw","nw","h","h",1,0.760732905910118,NA,NA,NA
"experimental",21,10,"hd","upper","vaporize","w","w","g","g",1,0.664697556465399,NA,NA,NA
"experimental",21,11,"hd","upper","lizard","target","target","q","q",1,0.564643466146663,1,NA,NA
"experimental",21,12,"hd","upper","protest","aftertar1","w","g","g",1,0.54862072164542,NA,NA,NA
"experimental",21,13,"hd","upper","slowning","aftertar2","nw","h","h",1,0.709325984411407,NA,NA,NA
"experimental",21,14,"hd","upper","stifle","aftertar3","w","g","h",0,0.599248283921042,NA,NA,NA
"experimental",21,15,"hd","upper","shurk","w","nw","h","h",1,0.997026959172217,NA,NA,NA
"experimental",21,16,"hd","upper","pressing","nw","w","g","g",1,0.787715276441304,NA,NA,NA
"experimental",21,17,"hd","upper","bureaug","w","nw","h","h",1,0.706190436845645,NA,NA,NA
"experimental",21,18,"hd","upper","goblet","nw","w","g","g",1,0.788174078188604,NA,NA,NA
"experimental",21,19,"hd","upper","volder","w","nw","h","h",1,1.05884445388801,NA,NA,NA
"experimental",21,20,"hd","upper","anemic","nw","w","g","g",1,0.765566321642837,NA,NA,NA
"experimental",21,21,"hd","upper","praiged","w","nw","h","h",1,0.774085545126582,NA,NA,NA
"experimental",21,22,"hd","upper","pived","nw","nw","h","h",1,0.574062182480702,NA,NA,NA
"experimental",21,23,"hd","upper","ameld","nw","nw","h","h",1,0.637359312706394,NA,NA,NA
"experimental",21,24,"hd","upper","cherry","nw","w","g","g",1,0.593074080505176,NA,NA,NA
"experimental",21,25,"hd","upper","country","w","w","g","g",1,0.759651099768234,NA,NA,NA
"experimental",21,26,"hd","upper","listless","w","w","g","g",1,0.735604154673638,NA,NA,NA
"experimental",21,27,"hd","upper","atble","w","nw","h","h",1,0.616192857647547,NA,NA,NA
"experimental",21,28,"hd","upper","traze","nw","nw","h","h",1,0.662271038687322,NA,NA,NA
"experimental",21,29,"hd","upper","volume","nw","w","g","g",1,0.51424409734318,NA,NA,NA
"experimental",21,30,"hd","upper","dingly","w","nw","h","h",1,0.596171897661407,NA,NA,NA
"experimental",22,1,"hd","upper","addition","w","w","g","g",1,0.554359667090466,NA,NA,NA
"experimental",22,2,"hd","upper","telecast","w","w","g","g",1,0.722311280405847,NA,NA,NA
"experimental",22,3,"hd","upper","worps","nw","nw","h","h",1,0.555595715151867,NA,NA,NA
"experimental",22,4,"hd","upper","teliever","nw","nw","h","h",1,0.723616752395174,NA,NA,NA
"experimental",22,5,"hd","upper","tapling","nw","nw","h","h",1,0.540926133864559,NA,NA,NA
"experimental",22,6,"hd","upper","supplier","w","w","g","g",1,0.661572573415469,NA,NA,NA
"experimental",22,7,"hd","upper","purport","w","w","g","h",0,0.625616403471213,NA,NA,NA
"experimental",22,8,"hd","upper","gettle","nw","nw","h","h",1,0.702040394215146,NA,NA,NA
"experimental",22,9,"hd","upper","illness","w","w","g","g",1,0.670932128472487,NA,NA,NA
"experimental",22,10,"hd","upper","childhood","w","w","g","g",1,0.586008232232416,NA,NA,NA
"experimental",22,11,"hd","upper","dabble","w","w","g","g",1,0.705002683738712,NA,NA,NA
"experimental",22,12,"hd","upper","cegalia","nw","nw","h","h",1,0.651670002378523,NA,NA,NA
"experimental",22,13,"hd","upper","saturate","w","w","g","g",1,0.583920986246085,NA,NA,NA
"experimental",22,14,"hd","upper","spigat","nw","nw","h","h",1,0.646382312581409,NA,NA,NA
"experimental",22,15,"hd","upper","advantage","w","w","g","g",1,0.603056941850809,NA,NA,NA
"experimental",22,16,"hd","upper","squirrel","target","target","q","q",1,0.52100930979941,1,NA,NA
"experimental",22,17,"hd","upper","cogantly","aftertar1","nw","h","h",1,1.06619856250472,NA,NA,NA
"experimental",22,18,"hd","upper","tusied","aftertar2","nw","h","h",1,0.677375576022314,NA,NA,NA
"experimental",22,19,"hd","upper","antique","aftertar3","w","g","g",1,0.600708601501537,NA,NA,NA
"experimental",22,20,"hd","upper","hanling","w","nw","h","h",1,0.558583963196725,NA,NA,NA
"experimental",22,21,"hd","upper","harmful","nw","w","g","g",1,0.510510900203371,NA,NA,NA
"experimental",22,22,"hd","upper","befriend","w","w","g","g",1,0.688537437061314,NA,NA,NA
"experimental",22,23,"hd","upper","peadgear","w","nw","h","h",1,0.627174518245738,NA,NA,NA
"experimental",22,24,"hd","upper","index","nw","w","g","g",1,0.528500455227913,NA,NA,NA
"experimental",22,25,"hd","upper","chining","w","nw","h","h",1,0.881718013552018,NA,NA,NA
"experimental",22,26,"hd","upper","resonant","nw","w","g","g",1,0.612209130631527,NA,NA,NA
"experimental",22,27,"hd","upper","mitro","w","nw","h","h",1,0.571072727063438,NA,NA,NA
"experimental",22,28,"hd","upper","insole","nw","w","g","g",1,0.865333660884062,NA,NA,NA
"experimental",22,29,"hd","upper","pircus","w","nw","h","h",1,0.6293731443875,NA,NA,NA
"experimental",22,30,"hd","upper","ralliep","nw","nw","h","h",1,0.610674257768551,NA,NA,NA
"experimental",23,1,"hd","upper","picnic","w","w","g","g",1,0.936482337361667,NA,NA,NA
"experimental",23,2,"hd","upper","draze","nw","nw","h","h",1,0.648940132174175,NA,NA,NA
"experimental",23,3,"hd","upper","brimitar","nw","nw","h","h",1,0.589466450182954,NA,NA,NA
"experimental",23,4,"hd","upper","ragtam","nw","nw","h","h",1,0.492164868308464,NA,NA,NA
"experimental",23,5,"hd","upper","sustain","w","w","g","g",1,0.654766612133244,NA,NA,NA
"experimental",23,6,"hd","upper","reconcile","w","w","g","g",1,0.970782293501543,NA,NA,NA
"experimental",23,7,"hd","upper","misobeyed","nw","nw","h","h",1,1.03408546061837,NA,NA,NA
"experimental",23,8,"hd","upper","virulent","w","w","g","h",0,0.606690832588356,NA,NA,NA
"experimental",23,9,"hd","upper","enacted","w","w","g","g",1,0.74874339075177,NA,NA,NA
"experimental",23,10,"hd","upper","plogging","nw","nw","h","h",1,0.548363551206421,NA,NA,NA
"experimental",23,11,"hd","upper","describe","w","w","g","g",1,0.589017609279836,NA,NA,NA
"experimental",23,12,"hd","upper","bropic","nw","nw","h","h",1,0.539558482152643,NA,NA,NA
"experimental",23,13,"hd","upper","punctual","w","w","g","g",1,0.564287291112123,NA,NA,NA
"experimental",23,14,"hd","upper","mosary","nw","nw","h","h",1,0.652218451548833,NA,NA,NA
"experimental",23,15,"hd","upper","sopes","nw","nw","h","h",1,0.552192432660377,NA,NA,NA
"experimental",23,16,"hd","upper","enabled","w","w","g","g",1,0.92821062533767,NA,NA,NA
"experimental",23,17,"hd","upper","phonology","w","w","g","g",1,0.825476167083252,NA,NA,NA
"experimental",23,18,"hd","upper","dorte","nw","nw","h","h",1,0.558811251132283,NA,NA,NA
"experimental",23,19,"hd","upper","sarlock","nw","nw","h","h",1,0.638736623397563,NA,NA,NA
"experimental",23,20,"hd","upper","efcorted","nw","nw","h","h",1,0.722478199721081,NA,NA,NA
"experimental",23,21,"hd","upper","usually","w","w","g","g",1,0.523700544086751,NA,NA,NA
"experimental",23,22,"hd","upper","gewer","nw","nw","h","h",1,0.580994314223062,NA,NA,NA
"experimental",23,23,"hd","upper","rumblos","nw","nw","h","h",1,0.539080060640117,NA,NA,NA
"experimental",23,24,"hd","upper","removable","w","w","g","g",1,0.531801111006644,NA,NA,NA
"experimental",23,25,"hd","upper","audience","w","w","g","g",1,0.509631630848162,NA,NA,NA
"experimental",23,26,"hd","upper","uncounted","w","w","g","g",1,0.879790140839759,NA,NA,NA
"experimental",23,27,"hd","upper","companion","w","w","g","g",1,0.691605975414859,NA,NA,NA
"experimental",23,28,"hd","upper","markot","nw","nw","h","h",1,0.589374086150201,NA,NA,NA
"experimental",23,29,"hd","upper","hubris","w","w","g","h",0,0.620033209153917,NA,NA,NA
"experimental",23,30,"hd","upper","igiom","nw","nw","h","h",1,0.721147372911219,NA,NA,NA
"experimental",24,1,"ld","lower","demon","w","w","g","g",1,0.674997655034531,NA,NA,NA
"experimental",24,2,"ld","lower","criminal","w","w","g","g",1,0.558306871098466,NA,NA,NA
"experimental",24,3,"ld","lower","amaze","w","w","g","g",1,0.534336594166234,NA,NA,NA
"experimental",24,4,"ld","lower","cessation","w","w","g","g",1,0.854160329821752,NA,NA,NA
"experimental",24,5,"ld","lower","destroy","w","w","g","g",1,0.48192423285218,NA,NA,NA
"experimental",24,6,"ld","lower","confined","w","w","g","g",1,0.613181367691141,NA,NA,NA
"experimental",24,7,"ld","lower","nelvet","nw","nw","h","h",1,0.699145415739622,NA,NA,NA
"experimental",24,8,"ld","lower","contact","w","w","g","g",1,0.485782091272995,NA,NA,NA
"experimental",24,9,"ld","lower","bookend","w","w","g","g",1,0.736413698235992,NA,NA,NA
"experimental",24,10,"ld","lower","doxing","nw","nw","h","h",1,0.977158430003328,NA,NA,NA
"experimental",24,11,"ld","lower","mixture","w","w","g","g",1,0.480430410680128,NA,NA,NA
"experimental",24,12,"ld","lower","ghists","nw","nw","h","h",1,0.627709988155402,NA,NA,NA
"experimental",24,13,"ld","lower","dentures","w","w","g","g",1,0.56781493301969,NA,NA,NA
"experimental",24,14,"ld","lower","birn","nw","nw","h","h",1,0.574151528067887,NA,NA,NA
"experimental",24,15,"ld","lower","larger","w","w","g","g",1,0.51788825073163,NA,NA,NA
"experimental",24,16,"ld","lower","gremieres","nw","nw","h","h",1,0.743842060270254,NA,NA,NA
"experimental",24,17,"ld","lower","hivinity","nw","nw","h","h",1,0.600592089991551,NA,NA,NA
"experimental",24,18,"ld","lower","previous","w","w","g","g",1,0.56659156238311,NA,NA,NA
"experimental",24,19,"ld","lower","golemic","nw","nw","h","h",1,0.606475014647003,NA,NA,NA
"experimental",24,20,"ld","lower","sunhess","nw","nw","h","h",1,0.660503746534232,NA,NA,NA
"experimental",24,21,"ld","lower","oleandur","nw","nw","h","h",1,0.592494843353052,NA,NA,NA
"experimental",24,22,"ld","lower","bettled","nw","nw","h","h",1,0.903114473185269,NA,NA,NA
"experimental",24,23,"ld","lower","elbalm","nw","nw","h","h",1,1.09609553130576,NA,NA,NA
"experimental",24,24,"ld","lower","dricked","nw","nw","h","h",1,0.610670937487157,NA,NA,NA
"experimental",24,25,"ld","lower","senalize","nw","nw","h","g",0,0.680667176522547,NA,NA,NA
"experimental",24,26,"ld","lower","standard","w","w","g","g",1,0.49199010108714,NA,NA,NA
"experimental",24,27,"ld","lower","artifact","w","w","g","g",1,0.678633356787032,NA,NA,NA
"experimental",24,28,"ld","lower","beggarlan","nw","nw","h","h",1,0.593967536522541,NA,NA,NA
"experimental",24,29,"ld","lower","ringlat","nw","nw","h","h",1,0.680586282542208,NA,NA,NA
"experimental",24,30,"ld","lower","preclude","w","w","g","g",1,0.715951443416998,NA,NA,NA
"experimental",25,1,"ld","lower","bentler","nw","nw","h","h",1,0.581437721935799,NA,NA,NA
"experimental",25,2,"ld","lower","enunciate","w","w","g","g",1,0.756728653534083,NA,NA,NA
"experimental",25,3,"ld","lower","tining","nw","nw","h","h",1,0.627548803866375,NA,NA,NA
"experimental",25,4,"ld","lower","located","w","w","g","g",1,0.576819822279504,NA,NA,NA
"experimental",25,5,"ld","lower","shillac","nw","nw","h","h",1,0.736819073703373,NA,NA,NA
"experimental",25,6,"ld","lower","opert","nw","nw","h","h",1,1.20121243820176,NA,NA,NA
"experimental",25,7,"ld","lower","sponto","nw","nw","h","h",1,0.527018706779927,NA,NA,NA
"experimental",25,8,"ld","lower","lanthers","nw","nw","h","h",1,0.632296496129129,NA,NA,NA
"experimental",25,9,"ld","lower","decency","w","w","g","g",1,0.621512844692916,NA,NA,NA
"experimental",25,10,"ld","lower","gallon","w","w","g","g",1,0.866833519918146,NA,NA,NA
"experimental",25,11,"ld","lower","zears","nw","nw","h","h",1,0.494753475912148,NA,NA,NA
"experimental",25,12,"ld","lower","blerapies","nw","nw","h","h",1,0.721447706921026,NA,NA,NA
"experimental",25,13,"ld","lower","stagger","w","w","g","g",1,0.602697144728154,NA,NA,NA
"experimental",25,14,"ld","lower","extend","w","w","g","g",1,0.488768528244691,NA,NA,NA
"experimental",25,15,"ld","lower","create","w","w","g","g",1,0.58742176409578,NA,NA,NA
"experimental",25,16,"ld","lower","serfume","nw","nw","h","h",1,0.648981182835996,NA,NA,NA
"experimental",25,17,"ld","lower","gelented","nw","nw","h","h",1,1.18964339068043,NA,NA,NA
"experimental",25,18,"ld","lower","sengry","nw","nw","h","h",1,0.636333347560139,NA,NA,NA
"experimental",25,19,"ld","lower","gairs","nw","nw","h","h",1,0.608955260540824,NA,NA,NA
"experimental",25,20,"ld","lower","talent","w","w","g","g",1,0.49492703579017,NA,NA,NA
"experimental",25,21,"ld","lower","handed","w","w","g","g",1,0.889550241845427,NA,NA,NA
"experimental",25,22,"ld","lower","collision","w","w","g","g",1,0.580208918108838,NA,NA,NA
"experimental",25,23,"ld","lower","reason","w","w","g","g",1,0.539547917665914,NA,NA,NA
"experimental",25,24,"ld","lower","ausht","nw","nw","h","h",1,0.579277731740149,NA,NA,NA
"experimental",25,25,"ld","lower","carnival","w","w","g","g",1,0.48253938939888,NA,NA,NA
"experimental",25,26,"ld","lower","sputter","w","w","g","g",1,0.5978066806274,NA,NA,NA
"experimental",25,27,"ld","lower","shockwave","w","w","g","g",1,0.763199568813434,NA,NA,NA
"experimental",25,28,"ld","lower","moyeur","nw","nw","h","h",1,0.555290249787504,NA,NA,NA
"experimental",25,29,"ld","lower","baults","nw","nw","h","h",1,0.571846653125249,NA,NA,NA
"experimental",25,30,"ld","lower","thesis","w","w","g","g",1,0.667878078616923,NA,NA,NA
"experimental",26,1,"ld","lower","butler","w","w","g","g",1,0.581918256357312,NA,NA,NA
"experimental",26,2,"ld","lower","sonkers","nw","nw","h","h",1,0.805183246353408,NA,NA,NA
"experimental",26,3,"ld","lower","ganter","nw","nw","h","h",1,0.571129171730718,NA,NA,NA
"experimental",26,4,"ld","lower","pressures","w","w","g","g",1,0.538461282005301,NA,NA,NA
"experimental",26,5,"ld","lower","snocks","nw","nw","h","h",1,0.571081782341935,NA,NA,NA
"experimental",26,6,"ld","lower","curtail","w","w","g","g",1,0.546410625480348,NA,NA,NA
"experimental",26,7,"ld","lower","cripet","nw","nw","h","h",1,0.643039700575173,NA,NA,NA
"experimental",26,8,"ld","lower","slears","nw","nw","h","h",1,0.823630093887914,NA,NA,NA
"experimental",26,9,"ld","lower","arrested","w","w","g","g",1,0.468134826485766,NA,NA,NA
"experimental",26,10,"ld","lower","orange","w","w","g","g",1,0.535315169981914,NA,NA,NA
"experimental",26,11,"ld","lower","quickel","nw","nw","h","h",1,0.768121424654964,NA,NA,NA
"experimental",26,12,"ld","lower","yash","nw","nw","h","h",1,0.599294767773245,NA,NA,NA
"experimental",26,13,"ld","lower","flacked","nw","nw","h","h",1,0.557906928792363,NA,NA,NA
"experimental",26,14,"ld","lower","jiggling","w","w","g","g",1,0.613933561020531,NA,NA,NA
"experimental",26,15,"ld","lower","prohibit","w","w","g","g",1,0.571878346672747,NA,NA,NA
"experimental",26,16,"ld","lower","churnad","nw","nw","h","h",1,0.6351637050102,NA,NA,NA
"experimental",26,17,"ld","lower","tinion","nw","nw","h","h",1,0.742640422366094,NA,NA,NA
"experimental",26,18,"ld","lower","ronvince","nw","nw","h","h",1,0.623317867226433,NA,NA,NA
"experimental",26,19,"ld","lower","visible","w","w","g","g",1,0.636254566488788,NA,NA,NA
"experimental",26,20,"ld","lower","chiffol","nw","nw","h","h",1,0.601366921589943,NA,NA,NA
"experimental",26,21,"ld","lower","solidity","w","w","g","g",1,2.58336891495856,NA,NA,NA
"experimental",26,22,"ld","lower","aligning","w","w","g","g",1,0.974676976766204,NA,NA,NA
"experimental",26,23,"ld","lower","student","w","w","g","g",1,0.558001707569929,NA,NA,NA
"experimental",26,24,"ld","lower","eaglot","nw","nw","h","h",1,1.72590532779577,NA,NA,NA
"experimental",26,25,"ld","lower","runabouk","nw","nw","h","h",1,1.17433963678195,NA,NA,NA
"experimental",26,26,"ld","lower","kiner","nw","nw","h","h",1,0.653686013363767,NA,NA,NA
"experimental",26,27,"ld","lower","laser","w","w","g","g",1,0.585434730077395,NA,NA,NA
"experimental",26,28,"ld","lower","dishwater","w","w","g","g",1,0.528080289426725,NA,NA,NA
"experimental",26,29,"ld","lower","garment","w","w","g","g",1,1.28941133362241,NA,NA,NA
"experimental",26,30,"ld","lower","coyote","target","target","q","q",1,0.676052597118542,1,NA,NA
"experimental",27,1,"ld","lower","expired","w","w","g","g",1,0.66306549005094,NA,NA,NA
"experimental",27,2,"ld","lower","noils","nw","nw","h","h",1,0.5789191419899,NA,NA,NA
"experimental",27,3,"ld","lower","nopping","nw","nw","h","h",1,0.634441696020076,NA,NA,NA
"experimental",27,4,"ld","lower","infested","w","w","g","g",1,0.662897967064055,NA,NA,NA
"experimental",27,5,"ld","lower","roaned","nw","nw","h","h",1,0.625673753704177,NA,NA,NA
"experimental",27,6,"ld","lower","extruded","w","w","g","h",0,1.10217616331647,NA,NA,NA
"experimental",27,7,"ld","lower","vorm","nw","nw","h","h",1,0.721822294348385,NA,NA,NA
"experimental",27,8,"ld","lower","dests","nw","nw","h","h",1,0.563366065558512,NA,NA,NA
"experimental",27,9,"ld","lower","actively","w","w","g","g",1,0.570582835498499,NA,NA,NA
"experimental",27,10,"ld","lower","swatches","w","w","g","g",1,0.657708980026655,NA,NA,NA
"experimental",27,11,"ld","lower","arpired","nw","nw","h","h",1,0.65371167002013,NA,NA,NA
"experimental",27,12,"ld","lower","function","w","w","g","g",1,0.521612694428768,NA,NA,NA
"experimental",27,13,"ld","lower","measure","w","w","g","g",1,0.506860709952889,NA,NA,NA
"experimental",27,14,"ld","lower","incidonts","nw","nw","h","h",1,0.676988914841786,NA,NA,NA
"experimental",27,15,"ld","lower","defeat","w","w","g","g",1,0.520191918330966,NA,NA,NA
"experimental",27,16,"ld","lower","shests","nw","nw","h","h",1,0.49747187612229,NA,NA,NA
"experimental",27,17,"ld","lower","subpoena","w","w","g","h",0,0.604079284908948,NA,NA,NA
"experimental",27,18,"ld","lower","twarfs","nw","nw","h","h",1,1.25003135582665,NA,NA,NA
"experimental",27,19,"ld","lower","earmaff","nw","nw","h","h",1,0.805682495061774,NA,NA,NA
"experimental",27,20,"ld","lower","teamwork","w","w","g","g",1,0.843650450202404,NA,NA,NA
"experimental",27,21,"ld","lower","glamorous","w","w","g","g",1,0.648286339710467,NA,NA,NA
"experimental",27,22,"ld","lower","greft","nw","nw","h","h",1,0.764952372497646,NA,NA,NA
"experimental",27,23,"ld","lower","purpose","w","w","g","g",1,0.772892056964338,NA,NA,NA
"experimental",27,24,"ld","lower","guivers","nw","nw","h","h",1,0.684399468154879,NA,NA,NA
"experimental",27,25,"ld","lower","sength","nw","nw","h","h",1,0.726927369018085,NA,NA,NA
"experimental",27,26,"ld","lower","uncarled","nw","nw","h","h",1,0.856203204835765,NA,NA,NA
"experimental",27,27,"ld","lower","posing","w","w","g","g",1,0.667329931282438,NA,NA,NA
"experimental",27,28,"ld","lower","trophy","w","w","g","g",1,0.557398322940571,NA,NA,NA
"experimental",27,29,"ld","lower","volition","w","w","g","g",1,0.869254604505841,NA,NA,NA
"experimental",27,30,"ld","lower","schinter","nw","nw","h","h",1,0.657334996241843,NA,NA,NA
"experimental",28,1,"ld","lower","moral","w","w","g","g",1,0.606245915638283,NA,NA,NA
"experimental",28,2,"ld","lower","ubefully","nw","nw","h","h",1,0.707423466490582,NA,NA,NA
"experimental",28,3,"ld","lower","glapula","nw","nw","h","h",1,0.749334701627959,NA,NA,NA
"experimental",28,4,"ld","lower","consonant","w","w","g","g",1,0.869969671155559,NA,NA,NA
"experimental",28,5,"ld","lower","spaceship","w","w","g","g",1,0.545177595864516,NA,NA,NA
"experimental",28,6,"ld","lower","pariah","w","w","g","g",1,1.04980817291653,NA,NA,NA
"experimental",28,7,"ld","lower","metebing","nw","nw","h","h",1,0.638442326249788,NA,NA,NA
"experimental",28,8,"ld","lower","ugifies","nw","nw","h","h",1,0.667227304598782,NA,NA,NA
"experimental",28,9,"ld","lower","leuter","nw","nw","h","h",1,0.81446070005768,NA,NA,NA
"experimental",28,10,"ld","lower","catacomb","w","w","g","g",1,1.05949492604122,NA,NA,NA
"experimental",28,11,"ld","lower","airmen","w","w","g","g",1,0.767367420252413,NA,NA,NA
"experimental",28,12,"ld","lower","halter","w","w","g","g",1,0.662660114583559,NA,NA,NA
"experimental",28,13,"ld","lower","inforl","nw","nw","h","h",1,0.682646362634841,NA,NA,NA
"experimental",28,14,"ld","lower","intersect","w","w","g","g",1,0.685962110583205,NA,NA,NA
"experimental",28,15,"ld","lower","reforest","w","w","g","g",1,0.936661934101721,NA,NA,NA
"experimental",28,16,"ld","lower","gensions","nw","nw","h","h",1,0.921372970507946,NA,NA,NA
"experimental",28,17,"ld","lower","colicky","w","w","g","h",0,1.02543614269234,NA,NA,NA
"experimental",28,18,"ld","lower","begut","nw","nw","h","h",1,0.662937810382573,NA,NA,NA
"experimental",28,19,"ld","lower","atsless","nw","nw","h","h",1,0.658604247029871,NA,NA,NA
"experimental",28,20,"ld","lower","grenavier","nw","nw","h","h",1,0.790904552064603,NA,NA,NA
"experimental",28,21,"ld","lower","mining","w","w","g","g",1,0.613552936702035,NA,NA,NA
"experimental",28,22,"ld","lower","ezulated","nw","nw","h","h",1,0.691448715078877,NA,NA,NA
"experimental",28,23,"ld","lower","massacre","w","w","g","g",1,0.598024611448636,NA,NA,NA
"experimental",28,24,"ld","lower","lenie","nw","nw","h","h",1,0.56461207443499,NA,NA,NA
"experimental",28,25,"ld","lower","nature","w","w","g","g",1,0.52478717971826,NA,NA,NA
"experimental",28,26,"ld","lower","obviously","w","w","g","g",1,0.573968912911369,NA,NA,NA
"experimental",28,27,"ld","lower","bullet","w","w","g","g",1,0.501253368158359,NA,NA,NA
"experimental",28,28,"ld","lower","rascaps","nw","nw","h","h",1,0.655302685743663,NA,NA,NA
"experimental",28,29,"ld","lower","pigned","nw","nw","h","h",1,0.674236708233366,NA,NA,NA
"experimental",28,30,"ld","lower","unwose","nw","nw","h","h",1,0.901498404506128,NA,NA,NA
"experimental",29,1,"hd","upper","boutique","w","w","g","g",1,0.743384465924464,NA,NA,NA
"experimental",29,2,"hd","upper","unrealon","nw","nw","h","h",1,0.944010005856398,NA,NA,NA
"experimental",29,3,"hd","upper","athcan","nw","nw","h","h",1,1.14373816581792,NA,NA,NA
"experimental",29,4,"hd","upper","bother","w","w","g","g",1,0.520432487362996,NA,NA,NA
"experimental",29,5,"hd","upper","podges","nw","nw","h","h",1,0.561624731926713,NA,NA,NA
"experimental",29,6,"hd","upper","retona","nw","nw","h","h",1,0.656398678518599,NA,NA,NA
"experimental",29,7,"hd","upper","plunging","w","w","g","g",1,0.644400711724302,NA,NA,NA
"experimental",29,8,"hd","upper","gures","nw","nw","h","h",1,0.585538564133458,NA,NA,NA
"experimental",29,9,"hd","upper","calming","w","w","g","g",1,0.568806488037808,NA,NA,NA
"experimental",29,10,"hd","upper","butterfly","target","target","q","q",1,0.680097598320572,1,NA,NA
"experimental",29,11,"hd","upper","threaded","aftertar1","w","g","g",1,1.04335868850467,NA,NA,NA
"experimental",29,12,"hd","upper","seartfelt","aftertar2","nw","h","h",1,0.759158189757727,NA,NA,NA
"experimental",29,13,"hd","upper","buaint","aftertar3","nw","h","h",1,0.639043899835087,NA,NA,NA
"experimental",29,14,"hd","upper","truthful","nw","w","g","g",1,0.507645502366358,NA,NA,NA
"experimental",29,15,"hd","upper","misest","w","nw","h","h",1,0.749559876712738,NA,NA,NA
"experimental",29,16,"hd","upper","entropy","nw","w","g","g",1,1.09421806636965,NA,NA,NA
"experimental",29,17,"hd","upper","omission","w","w","g","g",1,0.560857748263516,NA,NA,NA
"experimental",29,18,"hd","upper","aqueduct","w","w","g","h",0,1.26488234486897,NA,NA,NA
"experimental",29,19,"hd","upper","usage","w","w","g","g",1,1.29280918292352,NA,NA,NA
"experimental",29,20,"hd","upper","porghum","w","nw","h","h",1,0.654592146747746,NA,NA,NA
"experimental",29,21,"hd","upper","exemplify","nw","w","g","g",1,0.610550803889055,NA,NA,NA
"experimental",29,22,"hd","upper","slogan","w","w","g","g",1,0.721395488042617,NA,NA,NA
"experimental",29,23,"hd","upper","chesume","w","nw","h","h",1,0.745700207218761,NA,NA,NA
"experimental",29,24,"hd","upper","plymie","nw","nw","h","h",1,0.546403381245909,NA,NA,NA
"experimental",29,25,"hd","upper","axis","nw","w","g","g",1,0.579007582040504,NA,NA,NA
"experimental",29,26,"hd","upper","entertain","w","w","g","g",1,0.506218991242349,NA,NA,NA
"experimental",29,27,"hd","upper","tiery","w","nw","h","h",1,0.972196429065662,NA,NA,NA
"experimental",29,28,"hd","upper","preserve","nw","w","g","g",1,0.571529717708472,NA,NA,NA
"experimental",29,29,"hd","upper","susher","w","nw","h","h",1,0.968775941524655,NA,NA,NA
"experimental",29,30,"hd","upper","etcess","nw","nw","h","h",1,0.576128299435368,NA,NA,NA
"experimental",30,1,"hd","upper","crazy","w","w","g","g",1,0.544302552298177,NA,NA,NA
"experimental",30,2,"hd","upper","hecture","nw","nw","h","h",1,0.592978396220133,NA,NA,NA
"experimental",30,3,"hd","upper","turntable","w","w","g","g",1,0.783579420443857,NA,NA,NA
"experimental",30,4,"hd","upper","twenties","w","w","g","g",1,0.662040430441266,NA,NA,NA
"experimental",30,5,"hd","upper","acidic","w","w","g","g",1,0.809974705887726,NA,NA,NA
"experimental",30,6,"hd","upper","shamrock","w","w","g","g",1,0.647839913552161,NA,NA,NA
"experimental",30,7,"hd","upper","snife","nw","nw","h","h",1,0.676476083201123,NA,NA,NA
"experimental",30,8,"hd","upper","miability","nw","nw","h","h",1,0.775873966311337,NA,NA,NA
"experimental",30,9,"hd","upper","hemoter","nw","nw","h","h",1,0.567223622114398,NA,NA,NA
"experimental",30,10,"hd","upper","flieves","nw","nw","h","h",1,0.558452057681279,NA,NA,NA
"experimental",30,11,"hd","upper","unsmilung","nw","nw","h","h",1,0.670479061780497,NA,NA,NA
"experimental",30,12,"hd","upper","surdens","nw","nw","h","h",1,0.705800455412827,NA,NA,NA
"experimental",30,13,"hd","upper","scarlet","w","w","g","g",1,0.691682643577224,NA,NA,NA
"experimental",30,14,"hd","upper","ordinary","w","w","g","g",1,0.693385039427085,NA,NA,NA
"experimental",30,15,"hd","upper","maintain","w","w","g","g",1,0.527941441570874,NA,NA,NA
"experimental",30,16,"hd","upper","ensues","w","w","g","g",1,0.67324998267577,NA,NA,NA
"experimental",30,17,"hd","upper","rodeo","w","w","g","g",1,0.540588673145976,NA,NA,NA
"experimental",30,18,"hd","upper","ottans","nw","nw","h","h",1,0.701265260780929,NA,NA,NA
"experimental",30,19,"hd","upper","moisture","w","w","g","g",1,0.582680712395813,NA,NA,NA
"experimental",30,20,"hd","upper","goltish","nw","nw","h","h",1,0.59014197534998,NA,NA,NA
"experimental",30,21,"hd","upper","decant","w","w","g","h",0,1.12547272609663,NA,NA,NA
"experimental",30,22,"hd","upper","micron","w","w","g","h",0,0.783113072626293,NA,NA,NA
"experimental",30,23,"hd","upper","drobate","nw","nw","h","h",1,0.757518275466282,NA,NA,NA
"experimental",30,24,"hd","upper","crocodile","target","target","q","q",1,0.861243685038062,1,NA,NA
"experimental",30,25,"hd","upper","thorifies","aftertar1","nw","h","h",1,0.881314147321973,NA,NA,NA
"experimental",30,26,"hd","upper","target","aftertar2","w","g","g",1,0.56455110211391,NA,NA,NA
"experimental",30,27,"hd","upper","yellep","aftertar3","nw","h","h",1,0.540579014166724,NA,NA,NA
"experimental",30,28,"hd","upper","series","nw","w","g","g",1,0.613269204070093,NA,NA,NA
"experimental",30,29,"hd","upper","sporidic","w","nw","h","h",1,0.587263296387391,NA,NA,NA
"experimental",30,30,"hd","upper","amkles","nw","nw","h","h",1,0.761934241978452,NA,NA,NA
"experimental",31,1,"hd","upper","parody","w","w","g","g",1,0.585327273875009,NA,NA,NA
"experimental",31,2,"hd","upper","abstain","w","w","g","g",1,0.632068604463711,NA,NA,NA
"experimental",31,3,"hd","upper","fictional","w","w","g","g",1,0.81331520495587,NA,NA,NA
"experimental",31,4,"hd","upper","glassware","w","w","g","g",1,0.515308396599721,NA,NA,NA
"experimental",31,5,"hd","upper","treason","w","w","g","g",1,0.613266487489454,NA,NA,NA
"experimental",31,6,"hd","upper","shazer","nw","nw","h","h",1,0.530343510006787,NA,NA,NA
"experimental",31,7,"hd","upper","rarely","w","w","g","g",1,0.483586785412626,NA,NA,NA
"experimental",31,8,"hd","upper","sazer","nw","nw","h","h",1,0.677706396207213,NA,NA,NA
"experimental",31,9,"hd","upper","lasprey","nw","nw","h","h",1,0.56104187265737,NA,NA,NA
"experimental",31,10,"hd","upper","unstatle","nw","nw","h","h",1,0.689297176490072,NA,NA,NA
"experimental",31,11,"hd","upper","yearnungs","nw","nw","h","h",1,0.524705078365514,NA,NA,NA
"experimental",31,12,"hd","upper","baseline","w","w","g","g",1,0.678127769380808,NA,NA,NA
"experimental",31,13,"hd","upper","mullet","w","w","g","g",1,0.529342597845243,NA,NA,NA
"experimental",31,14,"hd","upper","gackpedal","nw","nw","h","h",1,0.586804494669195,NA,NA,NA
"experimental",31,15,"hd","upper","elephant","target","target","q","q",1,0.71338517224649,1,NA,NA
"experimental",31,16,"hd","upper","disease","aftertar1","w","g","g",1,0.530439798021689,NA,NA,NA
"experimental",31,17,"hd","upper","nogwhell","aftertar2","nw","h","h",1,0.675823799945647,NA,NA,NA
"experimental",31,18,"hd","upper","egpended","aftertar3","nw","h","h",1,0.671009702200536,NA,NA,NA
"experimental",31,19,"hd","upper","committed","nw","w","g","g",1,0.53031272199587,NA,NA,NA
"experimental",31,20,"hd","upper","afford","w","w","g","g",1,0.587526201852597,NA,NA,NA
"experimental",31,21,"hd","upper","gablus","w","nw","h","h",1,0.554231987392996,NA,NA,NA
"experimental",31,22,"hd","upper","thacked","nw","nw","h","h",1,0.570213379367488,NA,NA,NA
"experimental",31,23,"hd","upper","widely","nw","w","g","g",1,0.593508131074486,NA,NA,NA
"experimental",31,24,"hd","upper","nollow","w","nw","h","h",1,0.536131655913778,NA,NA,NA
"experimental",31,25,"hd","upper","postal","nw","w","g","g",1,0.687909301283071,NA,NA,NA
"experimental",31,26,"hd","upper","peems","w","nw","h","h",1,0.602422165538883,NA,NA,NA
"experimental",31,27,"hd","upper","budget","nw","w","g","g",1,0.472447562613524,NA,NA,NA
"experimental",31,28,"hd","upper","bloves","w","nw","h","h",1,0.515722223673947,NA,NA,NA
"experimental",31,29,"hd","upper","bulmed","nw","nw","h","h",1,0.597726390318712,NA,NA,NA
"experimental",31,30,"hd","upper","equitable","nw","w","g","g",1,0.548340912966523,NA,NA,NA
"experimental",32,1,"hd","upper","prominent","w","w","g","g",1,0.612095335702179,NA,NA,NA
"experimental",32,2,"hd","upper","currowing","nw","nw","h","h",1,0.618611829355359,NA,NA,NA
"experimental",32,3,"hd","upper","clattest","nw","nw","h","h",1,0.64779433523654,NA,NA,NA
"experimental",32,4,"hd","upper","dehydrate","w","w","g","g",1,0.58851021080045,NA,NA,NA
"experimental",32,5,"hd","upper","cavern","w","w","g","g",1,0.739103725150926,NA,NA,NA
"experimental",32,6,"hd","upper","glaims","nw","nw","h","h",1,0.61971989585436,NA,NA,NA
"experimental",32,7,"hd","upper","vopings","nw","nw","h","h",1,0.5451151143061,NA,NA,NA
"experimental",32,8,"hd","upper","rapport","w","w","g","h",0,0.537737763777841,NA,NA,NA
"experimental",32,9,"hd","upper","browting","nw","nw","h","h",1,0.642361156991683,NA,NA,NA
"experimental",32,10,"hd","upper","sweeping","w","w","g","g",1,0.446949053439312,NA,NA,NA
"experimental",32,11,"hd","upper","urgency","w","w","g","g",1,0.482746453839354,NA,NA,NA
"experimental",32,12,"hd","upper","batire","nw","nw","h","h",1,0.573922730894992,NA,NA,NA
"experimental",32,13,"hd","upper","grummer","nw","nw","h","h",1,0.61323328470462,NA,NA,NA
"experimental",32,14,"hd","upper","breiled","nw","nw","h","h",1,0.635193285677815,NA,NA,NA
"experimental",32,15,"hd","upper","trewl","nw","nw","h","h",1,0.583971092215506,NA,NA,NA
"experimental",32,16,"hd","upper","recount","w","w","g","h",0,0.550548292550957,NA,NA,NA
"experimental",32,17,"hd","upper","suburb","w","w","g","g",1,0.550523541402072,NA,NA,NA
"experimental",32,18,"hd","upper","angry","w","w","g","g",1,0.470469282066915,NA,NA,NA
"experimental",32,19,"hd","upper","pegend","nw","nw","h","h",1,0.561744261853164,NA,NA,NA
"experimental",32,20,"hd","upper","dreaded","w","w","g","g",1,0.680809646524722,NA,NA,NA
"experimental",32,21,"hd","upper","epic","w","w","g","g",1,0.788150232547196,NA,NA,NA
"experimental",32,22,"hd","upper","attended","w","w","g","g",1,0.474711085058516,NA,NA,NA
"experimental",32,23,"hd","upper","demise","w","w","g","g",1,0.47001500800252,NA,NA,NA
"experimental",32,24,"hd","upper","hasks","nw","nw","h","h",1,0.496110864973161,NA,NA,NA
"experimental",32,25,"hd","upper","lutton","nw","nw","h","h",1,0.690751155343605,NA,NA,NA
"experimental",32,26,"hd","upper","spider","target","target","q","g",0,0.421922928886488,NA,NA,NA
"experimental",32,27,"hd","upper","kraums","aftertar1","nw","h","h",1,0.515775348088937,NA,NA,NA
"experimental",32,28,"hd","upper","lovud","aftertar2","nw","h","h",1,0.573887113394449,NA,NA,NA
"experimental",32,29,"hd","upper","condensed","aftertar3","w","g","g",1,1.24520005297381,NA,NA,NA
"experimental",32,30,"hd","upper","observer","w","w","g","g",1,0.528796261583921,NA,NA,NA
"experimental",33,1,"hd","upper","adok","nw","nw","h","h",1,0.546660551684909,NA,NA,NA
"experimental",33,2,"hd","upper","uncorked","w","w","g","g",1,1.22731946338899,NA,NA,NA
"experimental",33,3,"hd","upper","helpful","w","w","g","g",1,0.456625242048176,NA,NA,NA
"experimental",33,4,"hd","upper","except","w","w","g","g",1,0.524571965506766,NA,NA,NA
"experimental",33,5,"hd","upper","ethical","w","w","g","g",1,0.581001558457501,NA,NA,NA
"experimental",33,6,"hd","upper","slutches","nw","nw","h","h",1,0.69218641993939,NA,NA,NA
"experimental",33,7,"hd","upper","fuintets","nw","nw","h","h",1,0.582817145506851,NA,NA,NA
"experimental",33,8,"hd","upper","gounts","nw","nw","h","h",1,0.526155736966757,NA,NA,NA
"experimental",33,9,"hd","upper","talate","nw","nw","h","h",1,0.53542564457166,NA,NA,NA
"experimental",33,10,"hd","upper","undimmec","nw","nw","h","h",1,0.616092042007949,NA,NA,NA
"experimental",33,11,"hd","upper","prillway","nw","nw","h","h",1,0.574064899032237,NA,NA,NA
"experimental",33,12,"hd","upper","splum","nw","nw","h","h",1,0.589381632220466,NA,NA,NA
"experimental",33,13,"hd","upper","rowel","nw","nw","h","h",1,0.532017532619648,NA,NA,NA
"experimental",33,14,"hd","upper","fallint","nw","nw","h","h",1,0.548483382968698,NA,NA,NA
"experimental",33,15,"hd","upper","sprea","nw","nw","h","h",1,0.635909559670836,NA,NA,NA
"experimental",33,16,"hd","upper","record","w","w","g","g",1,0.664734079473419,NA,NA,NA
"experimental",33,17,"hd","upper","migmarole","nw","nw","h","h",1,0.853385196387535,NA,NA,NA
"experimental",33,18,"hd","upper","rivet","w","w","g","h",0,0.553627697227057,NA,NA,NA
"experimental",33,19,"hd","upper","exit","w","w","g","g",1,1.33753752097255,NA,NA,NA
"experimental",33,20,"hd","upper","encrusted","w","w","g","g",1,0.810274436225882,NA,NA,NA
"experimental",33,21,"hd","upper","tritical","nw","nw","h","h",1,0.752134297654266,NA,NA,NA
"experimental",33,22,"hd","upper","erlighten","nw","nw","h","h",1,0.872135094512487,NA,NA,NA
"experimental",33,23,"hd","upper","tragedy","w","w","g","g",1,0.570698743278626,NA,NA,NA
"experimental",33,24,"hd","upper","vented","w","w","g","g",1,0.561809158127289,NA,NA,NA
"experimental",33,25,"hd","upper","argue","w","w","g","g",1,0.473705041542416,NA,NA,NA
"experimental",33,26,"hd","upper","satisfies","w","w","g","g",1,0.541059850424062,NA,NA,NA
"experimental",33,27,"hd","upper","hardest","w","w","g","g",1,0.509671172301751,NA,NA,NA
"experimental",33,28,"hd","upper","minimum","w","w","g","g",1,0.66364714197698,NA,NA,NA
"experimental",33,29,"hd","upper","gonesty","nw","nw","h","h",1,0.531632380647352,NA,NA,NA
"experimental",33,30,"hd","upper","arranged","w","w","g","g",1,0.46092680998845,NA,NA,NA
"experimental",34,1,"ld","lower","penalize","w","w","g","g",1,0.600623783539049,NA,NA,NA
"experimental",34,2,"ld","lower","maunches","nw","nw","h","h",1,0.622469687717967,NA,NA,NA
"experimental",34,3,"ld","lower","guffy","nw","nw","h","h",1,0.53983497057925,NA,NA,NA
"experimental",34,4,"ld","lower","potatoes","w","w","g","g",1,0.547229828021955,NA,NA,NA
"experimental",34,5,"ld","lower","chraps","nw","nw","h","h",1,0.499886018311372,NA,NA,NA
"experimental",34,6,"ld","lower","scrobby","nw","nw","h","h",1,0.614749141444918,NA,NA,NA
"experimental",34,7,"ld","lower","apology","w","w","g","g",1,0.541505974717438,NA,NA,NA
"experimental",34,8,"ld","lower","welayed","nw","nw","h","h",1,0.653581877442775,NA,NA,NA
"experimental",34,9,"ld","lower","plartly","nw","nw","h","h",1,0.633363210130483,NA,NA,NA
"experimental",34,10,"ld","lower","outflow","w","w","g","g",1,1.02263141534058,NA,NA,NA
"experimental",34,11,"ld","lower","entitle","w","w","g","g",1,0.659935677569592,NA,NA,NA
"experimental",34,12,"ld","lower","permute","w","w","g","g",1,0.703960117185488,NA,NA,NA
"experimental",34,13,"ld","lower","hangar","w","w","g","h",0,0.665884705871576,NA,NA,NA
"experimental",34,14,"ld","lower","detrabe","nw","nw","h","h",1,0.621891054266598,NA,NA,NA
"experimental",34,15,"ld","lower","latpin","nw","nw","h","h",1,0.579182349261828,NA,NA,NA
"experimental",34,16,"ld","lower","company","w","w","g","g",1,0.586470656067831,NA,NA,NA
"experimental",34,17,"ld","lower","caution","w","w","g","g",1,0.536250280303648,NA,NA,NA
"experimental",34,18,"ld","lower","sodent","nw","nw","h","h",1,0.656695088575361,NA,NA,NA
"experimental",34,19,"ld","lower","paying","w","w","g","g",1,0.980701465916354,NA,NA,NA
"experimental",34,20,"ld","lower","failure","w","w","g","g",1,0.507949156686664,NA,NA,NA
"experimental",34,21,"ld","lower","intended","w","w","g","g",1,0.493991019902751,NA,NA,NA
"experimental",34,22,"ld","lower","poughest","nw","nw","h","h",1,0.544681063736789,NA,NA,NA
"experimental",34,23,"ld","lower","brials","nw","nw","h","h",1,0.545322178746574,NA,NA,NA
"experimental",34,24,"ld","lower","potter","w","w","g","g",1,0.626022080803523,NA,NA,NA
"experimental",34,25,"ld","lower","aefated","nw","nw","h","h",1,0.775240397371817,NA,NA,NA
"experimental",34,26,"ld","lower","forbid","w","w","g","g",1,0.685621027718298,NA,NA,NA
"experimental",34,27,"ld","lower","drauns","nw","nw","h","h",1,0.49623220594367,NA,NA,NA
"experimental",34,28,"ld","lower","pranny","nw","nw","h","h",1,0.722837695007911,NA,NA,NA
"experimental",34,29,"ld","lower","smallash","nw","nw","h","h",1,0.874980872526066,NA,NA,NA
"experimental",34,30,"ld","lower","ergonomic","w","w","g","g",1,1.03834929814911,NA,NA,NA
"experimental",35,1,"ld","lower","tunneg","nw","nw","h","h",1,0.523037394479616,NA,NA,NA
"experimental",35,2,"ld","lower","elpousal","nw","nw","h","h",1,0.780308043438708,NA,NA,NA
"experimental",35,3,"ld","lower","riosk","nw","nw","h","h",1,0.555561908695381,NA,NA,NA
"experimental",35,4,"ld","lower","fassed","nw","nw","h","h",1,0.795576783537399,NA,NA,NA
"experimental",35,5,"ld","lower","saucer","w","w","g","g",1,0.650123659463134,NA,NA,NA
"experimental",35,6,"ld","lower","engineer","w","w","g","g",1,0.710794753598748,NA,NA,NA
"experimental",35,7,"ld","lower","haurded","nw","nw","h","h",1,0.608819431072334,NA,NA,NA
"experimental",35,8,"ld","lower","realize","w","w","g","g",1,0.526750669989269,NA,NA,NA
"experimental",35,9,"ld","lower","century","w","w","g","g",1,0.528058858588338,NA,NA,NA
"experimental",35,10,"ld","lower","elderly","w","w","g","g",1,0.79250492490246,NA,NA,NA
"experimental",35,11,"ld","lower","sheerio","nw","nw","h","h",1,0.751075129723176,NA,NA,NA
"experimental",35,12,"ld","lower","humanize","w","w","g","g",1,1.29432141751749,NA,NA,NA
"experimental",35,13,"ld","lower","trembles","w","w","g","g",1,0.537017263966845,NA,NA,NA
"experimental",35,14,"ld","lower","godomy","nw","nw","h","h",1,0.713623930234462,NA,NA,NA
"experimental",35,15,"ld","lower","blanned","nw","nw","h","h",1,0.819591733219568,NA,NA,NA
"experimental",35,16,"ld","lower","unamufed","nw","nw","h","h",1,0.664895565598272,NA,NA,NA
"experimental",35,17,"ld","lower","chemical","w","w","g","g",1,0.596898434305331,NA,NA,NA
"experimental",35,18,"ld","lower","sliding","w","w","g","g",1,0.737583642621757,NA,NA,NA
"experimental",35,19,"ld","lower","dredigest","nw","nw","h","h",1,0.913844094699016,NA,NA,NA
"experimental",35,20,"ld","lower","whirling","w","w","g","g",1,0.652968230162514,NA,NA,NA
"experimental",35,21,"ld","lower","padicals","nw","nw","h","h",1,0.87311457580654,NA,NA,NA
"experimental",35,22,"ld","lower","walnut","w","w","g","g",1,0.596392545063281,NA,NA,NA
"experimental",35,23,"ld","lower","cassette","w","w","g","g",1,0.71503384000971,NA,NA,NA
"experimental",35,24,"ld","lower","presently","w","w","g","g",1,0.597053581761429,NA,NA,NA
"experimental",35,25,"ld","lower","clarms","nw","nw","h","h",1,0.675633035047213,NA,NA,NA
"experimental",35,26,"ld","lower","nomma","nw","nw","h","h",1,0.655048231885303,NA,NA,NA
"experimental",35,27,"ld","lower","graveyard","w","w","g","g",1,0.546986240515253,NA,NA,NA
"experimental",35,28,"ld","lower","dileting","nw","nw","h","h",1,0.690678109269356,NA,NA,NA
"experimental",35,29,"ld","lower","minister","w","w","g","g",1,0.557170129439328,NA,NA,NA
"experimental",35,30,"ld","lower","shimble","nw","nw","h","h",1,0.877146597777028,NA,NA,NA
"experimental",36,1,"ld","lower","airbis","nw","nw","h","h",1,0.761017845914466,NA,NA,NA
"experimental",36,2,"ld","lower","rudder","w","w","g","g",1,1.4560692468076,NA,NA,NA
"experimental",36,3,"ld","lower","cills","nw","nw","h","h",1,0.547969645791454,NA,NA,NA
"experimental",36,4,"ld","lower","hustle","w","w","g","g",1,0.580569017096423,NA,NA,NA
"experimental",36,5,"ld","lower","bumbo","nw","nw","h","h",1,0.875939828518312,NA,NA,NA
"experimental",36,6,"ld","lower","rationale","w","w","g","g",1,0.791253180999774,NA,NA,NA
"experimental",36,7,"ld","lower","retreat","w","w","g","g",1,0.564638938492863,NA,NA,NA
"experimental",36,8,"ld","lower","restock","w","w","g","g",1,0.540648739930475,NA,NA,NA
"experimental",36,9,"ld","lower","surface","w","w","g","g",1,0.469988445809577,NA,NA,NA
"experimental",36,10,"ld","lower","congraks","nw","nw","h","h",1,0.665925152861746,NA,NA,NA
"experimental",36,11,"ld","lower","arcients","nw","nw","h","h",1,0.780868868168909,NA,NA,NA
"experimental",36,12,"ld","lower","cervical","w","w","g","g",1,0.780123617209028,NA,NA,NA
"experimental",36,13,"ld","lower","recollect","w","w","g","g",1,0.547314645984443,NA,NA,NA
"experimental",36,14,"ld","lower","divider","w","w","g","g",1,0.612058510858333,NA,NA,NA
"experimental",36,15,"ld","lower","probable","w","w","g","g",1,0.617991541483207,NA,NA,NA
"experimental",36,16,"ld","lower","daining","nw","nw","h","h",1,0.623327526205685,NA,NA,NA
"experimental",36,17,"ld","lower","ilcurring","nw","nw","h","h",1,0.580689150723629,NA,NA,NA
"experimental",36,18,"ld","lower","summon","w","w","g","g",1,0.579920355987269,NA,NA,NA
"experimental",36,19,"ld","lower","combat","w","w","g","g",1,0.515247122442815,NA,NA,NA
"experimental",36,20,"ld","lower","racile","nw","nw","h","h",1,0.717174814082682,NA,NA,NA
"experimental",36,21,"ld","lower","tycoon","w","w","g","g",1,0.661590985866496,NA,NA,NA
"experimental",36,22,"ld","lower","pender","nw","nw","h","h",1,0.593525638018036,NA,NA,NA
"experimental",36,23,"ld","lower","flougy","nw","nw","h","h",1,0.616087816219078,NA,NA,NA
"experimental",36,24,"ld","lower","squadroim","nw","nw","h","h",1,0.750234496343182,NA,NA,NA
"experimental",36,25,"ld","lower","digar","nw","nw","h","h",1,0.582734138646629,NA,NA,NA
"experimental",36,26,"ld","lower","jaguar","target","target","q","q",1,0.750033468706533,1,NA,NA
"experimental",36,27,"ld","lower","category","aftertar1","w","g","g",1,0.510717964672949,NA,NA,NA
"experimental",36,28,"ld","lower","chonemic","aftertar2","nw","h","h",1,0.664734079473419,NA,NA,NA
"experimental",36,29,"ld","lower","icepick","aftertar3","w","g","h",0,0.52473073505098,NA,NA,NA
"experimental",36,30,"ld","lower","fudden","w","nw","h","h",1,0.821080122201238,NA,NA,NA
"experimental",37,1,"ld","lower","brighten","w","w","g","g",1,0.530859360122122,NA,NA,NA
"experimental",37,2,"ld","lower","loached","nw","nw","h","h",1,0.892205556796398,NA,NA,NA
"experimental",37,3,"ld","lower","smolvers","nw","nw","h","h",1,0.606817304884316,NA,NA,NA
"experimental",37,4,"ld","lower","huffle","nw","nw","h","h",1,0.684044198627817,NA,NA,NA
"experimental",37,5,"ld","lower","frunted","nw","nw","h","h",1,0.622482365142787,NA,NA,NA
"experimental",37,6,"ld","lower","diatonic","w","w","g","g",1,0.835696880938485,NA,NA,NA
"experimental",37,7,"ld","lower","neally","nw","nw","h","h",1,0.639678676147014,NA,NA,NA
