"procedure","block","trial","PMdemand","context","stim","role","word_type","correct_key","response","correct","reaction_time","pressedQ","pressedQ_blank","pressedQ_fix"
"LDTpractice",1,1,NA,"upper","infinity","","w","g","g",1,1.06588259743876,NA,NA,NA
"LDTpractice",2,1,NA,"upper","overshoot","","w","g","g",1,0.810736358733266,NA,NA,NA
"LDTpractice",3,1,NA,"upper","grimace","","w","g","g",1,2.14643099544628,NA,NA,NA
"LDTpractice",4,1,NA,"upper","treeps","","nw","h","h",1,0.835246813454432,NA,NA,NA
"LDTpractice",5,1,NA,"upper","turative","","nw","h","g",0,1.58335598849226,NA,NA,NA
"LDTpractice",6,1,NA,"upper","raestro","","nw","h","h",1,0.6228963702888,NA,NA,NA
"LDTpractice",7,1,NA,"upper","sponsor","","w","g","g",1,0.692339678978897,NA,NA,NA
"LDTpractice",8,1,NA,"upper","revival","","w","g","h",0,0.66182559641311,NA,NA,NA
"LDTpractice",9,1,NA,"upper","grutch","","nw","h","g",0,1.41015294674435,NA,NA,NA
"LDTpractice",10,1,NA,"upper","unscrew","","w","g","g",1,1.88037731636723,NA,NA,NA
"LDTpractice",11,1,NA,"upper","hiring","","w","g","g",1,0.683785485918634,NA,NA,NA
"LDTpractice",12,1,NA,"upper","crinklo","","nw","h","h",1,0.662914486441878,NA,NA,NA
"LDTpractice",13,1,NA,"upper","lumbigo","","nw","h","g",0,0.778364972095005,NA,NA,NA
"LDTpractice",14,1,NA,"upper","trotch","","nw","h","g",0,0.73788534400228,NA,NA,NA
"LDTpractice",1,2,NA,"lower","busted","","w","g","g",1,1.02747977300896,NA,NA,NA
"LDTpractice",2,2,NA,"lower","slumber","","w","g","g",1,0.592133322890732,NA,NA,NA
"LDTpractice",3,2,NA,"lower","tricycle","","w","g","g",1,1.08692542236531,NA,NA,NA
"LDTpractice",4,2,NA,"lower","grocus","","nw","h","h",1,0.761717435758328,NA,NA,NA
"LDTpractice",5,2,NA,"lower","julled","","nw","h","h",1,0.760324292161386,NA,NA,NA
"LDTpractice",6,2,NA,"lower","lurshing","","nw","h","g",0,0.96266946135438,NA,NA,NA
"LDTpractice",7,2,NA,"lower","summary","","w","g","g",1,0.57067368052958,NA,NA,NA
"LDTpractice",8,2,NA,"lower","reputable","","w","g","g",1,0.625113878806587,NA,NA,NA
"LDTpractice",9,2,NA,"lower","curlecs","","nw","h","h",1,0.630574551469181,NA,NA,NA
"LDTpractice",10,2,NA,"lower","umpire","","w","g","h",0,0.676114588291966,NA,NA,NA
"LDTpractice",11,2,NA,"lower","picture","","w","g","g",1,0.50245301425457,NA,NA,NA
"LDTpractice",12,2,NA,"lower","hasking","","nw","h","g",0,0.857638749628677,NA,NA,NA
"LDTpractice",13,2,NA,"lower","alolition","","nw","h","h",1,1.51679166666872,NA,NA,NA
"LDTpractice",14,2,NA,"lower","latador","","nw","h","g",0,1.43902161018923,NA,NA,NA
"experimental",1,1,"ld","lower","filter","w","w","g","g",1,0.962347661072272,NA,NA,NA
"experimental",1,2,"ld","lower","filny","nw","nw","h","h",1,1.0911617972597,NA,NA,NA
"experimental",1,3,"ld","lower","peanimate","nw","nw","h","h",1,1.70154243864818,NA,NA,NA
"experimental",1,4,"ld","lower","presently","w","w","g","g",1,0.617223812660086,NA,NA,NA
"experimental",1,5,"ld","lower","birn","nw","nw","h","g",0,0.623110903805355,NA,NA,NA
"experimental",1,6,"ld","lower","strenuous","w","w","g","h",0,1.28512294351822,NA,NA,NA
"experimental",1,7,"ld","lower","flieves","nw","nw","h","h",1,0.86465114854218,NA,NA,NA
"experimental",1,8,"ld","lower","perform","w","w","g","g",1,0.533609042031458,NA,NA,NA
"experimental",1,9,"ld","lower","cessation","w","w","g","h",0,1.71951988416549,NA,NA,NA
"experimental",1,10,"ld","lower","apticle","nw","nw","h","h",1,1.17763171769911,NA,NA,NA
"experimental",1,11,"ld","lower","gelfry","nw","nw","h","h",1,0.809692163180443,NA,NA,NA
"experimental",1,12,"ld","lower","riosk","nw","nw","h","h",1,0.872435934346868,NA,NA,NA
"experimental",1,13,"ld","lower","observer","w","w","g","g",1,0.667656405610614,NA,NA,NA
"experimental",1,14,"ld","lower","foster","w","w","g","g",1,1.35960216174135,NA,NA,NA
"experimental",1,15,"ld","lower","suddenly","w","w","g","g",1,0.544361872598529,NA,NA,NA
"experimental",1,16,"ld","lower","system","w","w","g","g",1,0.513763036055025,NA,NA,NA
"experimental",1,17,"ld","lower","comply","w","w","g","h",0,0.884524302295176,NA,NA,NA
"experimental",1,18,"ld","lower","outlaved","nw","nw","h","g",0,1.35993919125758,NA,NA,NA
"experimental",1,19,"ld","lower","uncorked","w","w","g","h",0,0.872672980636708,NA,NA,NA
"experimental",1,20,"ld","lower","ganter","nw","nw","h","h",1,1.79685425219941,NA,NA,NA
"experimental",1,21,"ld","lower","prillway","nw","nw","h","h",1,1.45926622475963,NA,NA,NA
"experimental",1,22,"ld","lower","lindo","nw","nw","h","h",1,0.855949298158521,NA,NA,NA
"experimental",1,23,"ld","lower","revising","w","w","g","g",1,1.65273573169543,NA,NA,NA
"experimental",1,24,"ld","lower","borrent","nw","nw","h","h",1,0.689449104655068,NA,NA,NA
"experimental",1,25,"ld","lower","afternoon","w","w","g","g",1,0.548782984682475,NA,NA,NA
"experimental",1,26,"ld","lower","garment","w","w","g","g",1,0.598003529463313,NA,NA,NA
"experimental",1,27,"ld","lower","ordinary","w","w","g","g",1,0.629057256519445,NA,NA,NA
"experimental",1,28,"ld","lower","valif","nw","nw","h","h",1,0.723714544190443,NA,NA,NA
"experimental",1,29,"ld","lower","gigglod","nw","nw","h","h",1,0.62978859069699,NA,NA,NA
"experimental",1,30,"ld","lower","kraums","nw","nw","h","h",1,1.62696555469302,NA,NA,NA
"experimental",2,1,"ld","lower","ebciting","nw","nw","h","h",1,0.82538389970432,NA,NA,NA
"experimental",2,2,"ld","lower","funtair","nw","nw","h","h",1,0.847488135856111,NA,NA,NA
"experimental",2,3,"ld","lower","ipiocy","nw","nw","h","h",1,1.37997622476541,NA,NA,NA
"experimental",2,4,"ld","lower","corg","nw","nw","h","h",1,0.59600353409769,NA,NA,NA
"experimental",2,5,"ld","lower","squadroim","nw","nw","h","h",1,1.63377633182972,NA,NA,NA
"experimental",2,6,"ld","lower","serving","w","w","g","g",1,0.760800040094182,NA,NA,NA
"experimental",2,7,"ld","lower","childhood","w","w","g","g",1,0.505640558592859,NA,NA,NA
"experimental",2,8,"ld","lower","region","w","w","g","g",1,0.876375670282869,NA,NA,NA
"experimental",2,9,"ld","lower","pircus","nw","nw","h","h",1,0.952436411083909,NA,NA,NA
"experimental",2,10,"ld","lower","other","w","w","g","g",1,0.513176048509195,NA,NA,NA
"experimental",2,11,"ld","lower","scrib","nw","nw","h","g",0,1.18792998882418,NA,NA,NA
"experimental",2,12,"ld","lower","record","w","w","g","g",1,0.514305329110357,NA,NA,NA
"experimental",2,13,"ld","lower","digested","w","w","g","g",1,0.709036544765695,NA,NA,NA
"experimental",2,14,"ld","lower","achieve","w","w","g","g",1,0.503752796037588,NA,NA,NA
"experimental",2,15,"ld","lower","mestowal","nw","nw","h","h",1,1.51453111901355,NA,NA,NA
"experimental",2,16,"ld","lower","painter","w","w","g","g",1,0.557261693727924,NA,NA,NA
"experimental",2,17,"ld","lower","hecture","nw","nw","h","g",0,2.33402731618844,NA,NA,NA
"experimental",2,18,"ld","lower","scarlet","w","w","g","q",0,1.0641398436419,NA,NA,NA
"experimental",2,19,"ld","lower","sonnet","w","w","g","h",0,0.851901302230544,NA,NA,NA
"experimental",2,20,"ld","lower","cooray","nw","nw","h","h",1,1.28867863796768,NA,NA,NA
"experimental",2,21,"ld","lower","frader","nw","nw","h","g",0,2.06819777167402,NA,NA,NA
"experimental",2,22,"ld","lower","acidic","w","w","g","g",1,0.68031255902315,NA,NA,NA
"experimental",2,23,"ld","lower","thorifies","nw","nw","h","g",0,2.3564699061244,NA,NA,NA
"experimental",2,24,"ld","lower","apop","nw","nw","h","h",1,0.845277248721686,NA,NA,NA
"experimental",2,25,"ld","lower","poars","nw","nw","h","q",0,1.97770369237696,NA,NA,NA
"experimental",2,26,"ld","lower","primal","w","w","g","g",1,1.92182995991607,NA,NA,NA
"experimental",2,27,"ld","lower","fallint","nw","nw","h","h",1,0.651885543295066,NA,NA,NA
"experimental",2,28,"ld","lower","retreat","w","w","g","g",1,0.616634507634444,NA,NA,NA
"experimental",2,29,"ld","lower","affluent","w","w","g","g",1,0.631345614077873,NA,NA,NA
"experimental",2,30,"ld","lower","ignore","w","w","g","g",1,0.581422869305243,NA,NA,NA
"experimental",3,1,"hd","upper","gepealed","nw","nw","h","h",1,0.900818917725701,NA,NA,NA
"experimental",3,2,"hd","upper","overwork","w","w","g","g",1,0.663516703236382,NA,NA,NA
"experimental",3,3,"hd","upper","emotion","w","w","g","g",1,0.57224162921193,NA,NA,NA
"experimental",3,4,"hd","upper","parlayid","nw","nw","h","h",1,2.46048555646848,NA,NA,NA
"experimental",3,5,"hd","upper","chiffol","nw","nw","h","q",0,1.75320297112921,NA,NA,NA
"experimental",3,6,"hd","upper","peems","nw","nw","h","h",1,1.24993812189496,NA,NA,NA
"experimental",3,7,"hd","upper","flacked","nw","nw","h","g",0,1.91847456294636,NA,NA,NA
"experimental",3,8,"hd","upper","prama","nw","nw","h","h",1,1.56057173405134,NA,NA,NA
"experimental",3,9,"hd","upper","dialogues","w","w","g","g",1,0.993394766745041,NA,NA,NA
"experimental",3,10,"hd","upper","knowledge","w","w","g","g",1,0.536734014109243,NA,NA,NA
"experimental",3,11,"hd","upper","pakened","nw","nw","h","h",1,1.33018392168742,NA,NA,NA
"experimental",3,12,"hd","upper","mabit","nw","nw","h","h",1,0.80430134634662,NA,NA,NA
"experimental",3,13,"hd","upper","beggarlan","nw","nw","h","h",1,3.89022367660073,NA,NA,NA
"experimental",3,14,"hd","upper","intrude","w","w","g","g",1,0.757557538090623,NA,NA,NA
"experimental",3,15,"hd","upper","noblest","w","w","g","g",1,1.05435142070928,NA,NA,NA
"experimental",3,16,"hd","upper","landing","w","w","g","g",1,0.523137952259276,NA,NA,NA
"experimental",3,17,"hd","upper","pastnoss","nw","nw","h","h",1,1.4132590478257,NA,NA,NA
"experimental",3,18,"hd","upper","midday","w","w","g","g",1,1.91600974496396,NA,NA,NA
"experimental",3,19,"hd","upper","favoting","nw","nw","h","h",1,1.67877473772387,NA,NA,NA
"experimental",3,20,"hd","upper","porcupine","target","target","q","q",1,2.36992890488182,1,NA,NA
"experimental",3,21,"hd","upper","module","aftertar1","w","g","g",1,0.761985271587037,NA,NA,NA
"experimental",3,22,"hd","upper","release","aftertar2","w","g","g",1,0.650811220344622,NA,NA,NA
"experimental",3,23,"hd","upper","withep","aftertar3","nw","h","h",1,0.703332204400795,NA,NA,NA
"experimental",3,24,"hd","upper","require","nw","w","g","g",1,0.554100966066471,NA,NA,NA
"experimental",3,25,"hd","upper","galashes","w","nw","h","h",1,1.3147507510148,NA,NA,NA
"experimental",3,26,"hd","upper","imotope","nw","nw","h","g",0,0.820820096341777,NA,NA,NA
"experimental",3,27,"hd","upper","committed","nw","w","g","g",1,0.547227285598638,NA,NA,NA
"experimental",3,28,"hd","upper","prison","w","w","g","g",1,0.46807103799074,NA,NA,NA
"experimental",3,29,"hd","upper","demon","w","w","g","g",1,0.544806499950937,NA,NA,NA
"experimental",3,30,"hd","upper","amms","w","nw","h","h",1,0.770253088878235,NA,NA,NA
"experimental",4,1,"hd","upper","baladroit","nw","nw","h","h",1,1.90577437719912,NA,NA,NA
"experimental",4,2,"hd","upper","maroon","w","w","g","g",1,0.668393699044827,NA,NA,NA
"experimental",4,3,"hd","upper","nollow","nw","nw","h","h",1,1.53660158600542,NA,NA,NA
"experimental",4,4,"hd","upper","category","w","w","g","g",1,0.705977124613128,NA,NA,NA
"experimental",4,5,"hd","upper","ronvince","nw","nw","h","h",1,1.34068712529552,NA,NA,NA
"experimental",4,6,"hd","upper","scrobby","nw","nw","h","g",0,0.726168105800753,NA,NA,NA
"experimental",4,7,"hd","upper","pender","nw","nw","h","h",1,1.22419807229016,NA,NA,NA
"experimental",4,8,"hd","upper","nopping","nw","nw","h","h",1,1.44637103861896,NA,NA,NA
"experimental",4,9,"hd","upper","treason","w","w","g","h",0,1.9227357681084,NA,NA,NA
"experimental",4,10,"hd","upper","extend","w","w","g","g",1,0.56194468238391,NA,NA,NA
"experimental",4,11,"hd","upper","chrik","nw","nw","h","h",1,0.941531950345961,NA,NA,NA
"experimental",4,12,"hd","upper","peadgear","nw","nw","h","q",0,1.23895917033951,NA,NA,NA
"experimental",4,13,"hd","upper","elephant","target","target","q","q",1,0.940373866615118,1,NA,NA
"experimental",4,14,"hd","upper","befriend","aftertar1","w","g","h",0,1.08578356108046,NA,NA,NA
"experimental",4,15,"hd","upper","handbook","aftertar2","w","g","g",1,1.14524146003532,NA,NA,NA
"experimental",4,16,"hd","upper","maiden","aftertar3","w","g","g",1,1.93739357225422,NA,NA,NA
"experimental",4,17,"hd","upper","trooper","w","w","g","g",1,0.595094084128505,NA,NA,NA
"experimental",4,18,"hd","upper","function","w","w","g","g",1,0.586512081164983,NA,NA,NA
"experimental",4,19,"hd","upper","frigs","w","nw","h","h",1,0.825966583332047,NA,NA,NA
"experimental",4,20,"hd","upper","apology","nw","w","g","g",1,0.568091663662926,NA,NA,NA
"experimental",4,21,"hd","upper","trophy","w","w","g","g",1,0.640158704060013,NA,NA,NA
"experimental",4,22,"hd","upper","insole","w","w","g","g",1,1.38963486817374,NA,NA,NA
"experimental",4,23,"hd","upper","imprives","w","nw","h","h",1,0.885054014681373,NA,NA,NA
"experimental",4,24,"hd","upper","lanthers","nw","nw","h","q",0,1.47946713803685,NA,NA,NA
"experimental",4,25,"hd","upper","twenties","nw","w","g","g",1,1.26765435298148,NA,NA,NA
"experimental",4,26,"hd","upper","sunshine","w","w","g","g",1,0.623651541536674,NA,NA,NA
"experimental",4,27,"hd","upper","impirt","w","nw","h","h",1,1.74176813584927,NA,NA,NA
"experimental",4,28,"hd","upper","incidonts","nw","nw","h","h",1,0.999293776418199,NA,NA,NA
"experimental",4,29,"hd","upper","curtail","nw","w","g","g",1,0.806590366031742,NA,NA,NA
"experimental",4,30,"hd","upper","spigat","w","nw","h","h",1,4.79756969500158,NA,NA,NA
"experimental",5,1,"hd","upper","ralliep","nw","nw","h","h",1,0.764188875153195,NA,NA,NA
"experimental",5,2,"hd","upper","hackal","nw","nw","h","h",1,2.00499083324394,NA,NA,NA
"experimental",5,3,"hd","upper","angry","w","w","g","g",1,0.595769136343733,NA,NA,NA
"experimental",5,4,"hd","upper","provide","w","w","g","g",1,0.52137566532474,NA,NA,NA
"experimental",5,5,"hd","upper","rasuals","nw","nw","h","h",1,4.14941128980718,NA,NA,NA
"experimental",5,6,"hd","upper","dialect","w","w","g","g",1,1.56513719278155,NA,NA,NA
"experimental",5,7,"hd","upper","usually","w","w","g","g",1,1.07795275651733,NA,NA,NA
"experimental",5,8,"hd","upper","advantage","w","w","g","g",1,0.522031846558093,NA,NA,NA
"experimental",5,9,"hd","upper","nimp","nw","nw","h","g",0,1.10013545631955,NA,NA,NA
"experimental",5,10,"hd","upper","gorilla","target","target","q","g",0,0.582724637526553,1,1,NA
"experimental",5,11,"hd","upper","afford","aftertar1","w","g","g",1,1.14263130219479,NA,NA,NA
"experimental",5,12,"hd","upper","mogus","aftertar2","nw","h","h",1,1.83216819122026,NA,NA,NA
"experimental",5,13,"hd","upper","issue","aftertar3","w","g","g",1,0.566217806059285,NA,NA,NA
"experimental",5,14,"hd","upper","engineer","w","w","g","g",1,0.574892508695484,NA,NA,NA
"experimental",5,15,"hd","upper","brimitar","w","nw","h","h",1,1.95911376690492,NA,NA,NA
"experimental",5,16,"hd","upper","slimped","nw","nw","h","g",0,0.983881132124225,NA,NA,NA
"experimental",5,17,"hd","upper","dishwater","nw","w","g","g",1,0.663197220448637,NA,NA,NA
"experimental",5,18,"hd","upper","frunted","w","nw","h","g",0,1.20297944905178,NA,NA,NA
"experimental",5,19,"hd","upper","euphoric","nw","w","g","g",1,0.665740502081462,NA,NA,NA
"experimental",5,20,"hd","upper","glaims","w","nw","h","h",1,1.13446048850892,NA,NA,NA
"experimental",5,21,"hd","upper","pepperoni","nw","w","g","g",1,1.24783880545874,NA,NA,NA
"experimental",5,22,"hd","upper","planofoad","w","nw","h","h",1,1.34130291595648,NA,NA,NA
"experimental",5,23,"hd","upper","zears","nw","nw","h","g",0,1.0290268642857,NA,NA,NA
"experimental",5,24,"hd","upper","tinion","nw","nw","h","h",1,1.51672942547884,NA,NA,NA
"experimental",5,25,"hd","upper","arbitrary","nw","w","g","g",1,0.726647826595581,NA,NA,NA
"experimental",5,26,"hd","upper","tunneg","w","nw","h","h",1,0.736610392472357,NA,NA,NA
"experimental",5,27,"hd","upper","scatter","nw","w","g","g",1,0.610044554356136,NA,NA,NA
"experimental",5,28,"hd","upper","remover","w","w","g","g",1,0.520800265236176,NA,NA,NA
"experimental",5,29,"hd","upper","reason","w","w","g","g",1,0.498813559024711,NA,NA,NA
"experimental",5,30,"hd","upper","gablus","w","nw","h","h",1,0.878230987960706,NA,NA,NA
"experimental",6,1,"ld","lower","arrow","w","w","g","g",1,0.649724647795665,NA,NA,NA
"experimental",6,2,"ld","lower","phambled","nw","nw","h","h",1,1.26311471774534,NA,NA,NA
"experimental",6,3,"ld","lower","mustled","nw","nw","h","g",0,0.627845539420377,NA,NA,NA
"experimental",6,4,"ld","lower","sefraud","nw","nw","h","h",1,1.14595756497874,NA,NA,NA
"experimental",6,5,"ld","lower","hotplate","w","w","g","g",1,1.18738206756825,NA,NA,NA
"experimental",6,6,"ld","lower","preight","nw","nw","h","h",1,0.810800255305367,NA,NA,NA
"experimental",6,7,"ld","lower","decant","w","w","g","g",1,0.60954000329366,NA,NA,NA
"experimental",6,8,"ld","lower","upstairs","w","w","g","g",1,0.535275980728329,NA,NA,NA
"experimental",6,9,"ld","lower","bullet","w","w","g","g",1,0.584658418840263,NA,NA,NA
"experimental",6,10,"ld","lower","awful","w","w","g","g",1,0.512076233149855,NA,NA,NA
"experimental",6,11,"ld","lower","mitro","nw","nw","h","h",1,0.73081633207039,NA,NA,NA
"experimental",6,12,"ld","lower","begut","nw","nw","h","h",1,0.68489788196166,NA,NA,NA
"experimental",6,13,"ld","lower","innocent","w","w","g","g",1,0.544260896174819,NA,NA,NA
"experimental",6,14,"ld","lower","reborn","w","w","g","g",1,0.465620787072112,NA,NA,NA
"experimental",6,15,"ld","lower","sengry","nw","nw","h","h",1,2.07844274048693,NA,NA,NA
"experimental",6,16,"ld","lower","saturate","w","w","g","g",1,0.546443311250187,NA,NA,NA
"experimental",6,17,"ld","lower","lightels","nw","nw","h","h",1,1.01085176982451,NA,NA,NA
"experimental",6,18,"ld","lower","carnival","w","w","g","g",1,0.721618869516533,NA,NA,NA
"experimental",6,19,"ld","lower","treenery","nw","nw","h","h",1,1.30637864660821,NA,NA,NA
"experimental",6,20,"ld","lower","pranny","nw","nw","h","h",1,0.870492220929009,NA,NA,NA
"experimental",6,21,"ld","lower","hangar","w","w","g","h",0,1.28270745498594,NA,NA,NA
"experimental",6,22,"ld","lower","expensive","w","w","g","g",1,0.566722357121762,NA,NA,NA
"experimental",6,23,"ld","lower","clarms","nw","nw","h","g",0,0.463468168338295,NA,NA,NA
"experimental",6,24,"ld","lower","fictional","w","w","g","g",1,0.788216298358748,NA,NA,NA
"experimental",6,25,"ld","lower","gackpedal","nw","nw","h","h",1,0.786628154397476,NA,NA,NA
"experimental",6,26,"ld","lower","mamps","nw","nw","h","h",1,0.8900670803705,NA,NA,NA
"experimental",6,27,"ld","lower","mitten","w","w","g","q",0,1.02147879370023,NA,NA,NA
"experimental",6,28,"ld","lower","saucer","w","w","g","h",0,2.89971347416576,NA,NA,NA
"experimental",6,29,"ld","lower","sporidic","nw","nw","h","g",0,1.17509671280277,NA,NA,NA
"experimental",6,30,"ld","lower","ucility","nw","nw","h","g",0,0.583093780864147,NA,NA,NA
"experimental",7,1,"hd","upper","servant","w","w","g","g",1,1.13404565748351,NA,NA,NA
"experimental",7,2,"hd","upper","resent","w","w","g","g",1,0.495313153296593,NA,NA,NA
"experimental",7,3,"hd","upper","stable","w","w","g","g",1,0.546657182625495,NA,NA,NA
"experimental",7,4,"hd","upper","eugenifs","nw","nw","h","h",1,0.587981039847364,NA,NA,NA
"experimental",7,5,"hd","upper","caloric","w","w","g","g",1,0.555357377670589,NA,NA,NA
"experimental",7,6,"hd","upper","buzzer","w","w","g","g",1,0.692117530852556,NA,NA,NA
"experimental",7,7,"hd","upper","fomrade","nw","nw","h","h",1,0.702518433725345,NA,NA,NA
"experimental",7,8,"hd","upper","calming","w","w","g","g",1,0.68992419046117,NA,NA,NA
"experimental",7,9,"hd","upper","suspect","w","w","g","g",1,0.525306131297839,NA,NA,NA
"experimental",7,10,"hd","upper","beartiset","nw","nw","h","h",1,1.88752479194955,NA,NA,NA
"experimental",7,11,"hd","upper","trocess","nw","nw","h","h",1,1.17091794415319,NA,NA,NA
"experimental",7,12,"hd","upper","rainfall","w","w","g","g",1,0.595013302983716,NA,NA,NA
"experimental",7,13,"hd","upper","fashing","nw","nw","h","h",1,2.48260204221879,NA,NA,NA
"experimental",7,14,"hd","upper","marinate","w","w","g","g",1,1.51763722009491,NA,NA,NA
"experimental",7,15,"hd","upper","renown","w","w","g","g",1,0.567715898927418,NA,NA,NA
"experimental",7,16,"hd","upper","sooled","nw","nw","h","h",1,0.863811885472387,NA,NA,NA
"experimental",7,17,"hd","upper","courier","w","w","g","g",1,0.572604151137057,NA,NA,NA
"experimental",7,18,"hd","upper","duries","nw","nw","h","g",0,0.708635949762538,NA,NA,NA
"experimental",7,19,"hd","upper","etcess","nw","nw","h","h",1,0.903380739313434,NA,NA,NA
"experimental",7,20,"hd","upper","tipoff","w","w","g","g",1,0.87411909547518,NA,NA,NA
"experimental",7,21,"hd","upper","seighing","nw","nw","h","h",1,1.08626957220258,NA,NA,NA
"experimental",7,22,"hd","upper","corduroy","w","w","g","h",0,0.881639687213465,NA,NA,NA
"experimental",7,23,"hd","upper","irfirm","nw","nw","h","h",1,1.66076186770806,NA,NA,NA
"experimental",7,24,"hd","upper","purport","w","w","g","h",0,3.12162290858396,NA,NA,NA
"experimental",7,25,"hd","upper","fillings","w","w","g","g",1,0.515635238290997,NA,NA,NA
"experimental",7,26,"hd","upper","theery","nw","nw","h","h",1,0.846439636370633,NA,NA,NA
"experimental",7,27,"hd","upper","caterpillar","target","target","q","g",0,0.587743000345654,1,1,NA
"experimental",7,28,"hd","upper","donastic","aftertar1","nw","h","h",1,6.10641883854987,NA,NA,NA
"experimental",7,29,"hd","upper","tapling","aftertar2","nw","h","g",0,1.31729932979215,NA,NA,NA
"experimental",7,30,"hd","upper","blassed","aftertar3","nw","h","g",0,0.575252050970448,NA,NA,NA
"experimental",8,1,"ld","lower","porghum","nw","nw","h","q",0,0.950696305852034,NA,NA,NA
"experimental",8,2,"ld","lower","obtuse","w","w","g","g",1,0.919473732952611,NA,NA,NA
"experimental",8,3,"ld","lower","anemic","w","w","g","h",0,1.17756583471783,NA,NA,NA
"experimental",8,4,"ld","lower","brudent","nw","nw","h","g",0,2.12971757614287,NA,NA,NA
"experimental",8,5,"ld","lower","matter","w","w","g","g",1,0.51590936446155,NA,NA,NA
"experimental",8,6,"ld","lower","ringlat","nw","nw","h","h",1,0.710515104496153,NA,NA,NA
"experimental",8,7,"ld","lower","deficit","w","w","g","g",1,1.76934463212092,NA,NA,NA
"experimental",8,8,"ld","lower","entropy","w","w","g","g",1,0.599722777245915,NA,NA,NA
"experimental",8,9,"ld","lower","latter","w","w","g","g",1,0.927118476043688,NA,NA,NA
"experimental",8,10,"ld","lower","fuhrek","nw","nw","h","h",1,0.944551642081933,NA,NA,NA
"experimental",8,11,"ld","lower","pester","w","w","g","g",1,1.62533172302938,NA,NA,NA
"experimental",8,12,"ld","lower","dusmy","nw","nw","h","g",0,1.09479496214772,NA,NA,NA
"experimental",8,13,"ld","lower","bailmenz","nw","nw","h","h",1,1.07344953902066,NA,NA,NA
"experimental",8,14,"ld","lower","tinker","w","w","g","g",1,0.732913331026793,NA,NA,NA
"experimental",8,15,"ld","lower","fuack","nw","nw","h","h",1,0.622237540505012,NA,NA,NA
"experimental",8,16,"ld","lower","ameld","nw","nw","h","h",1,0.506675484197331,NA,NA,NA
"experimental",8,17,"ld","lower","urgent","w","w","g","g",1,0.692699883395107,NA,NA,NA
"experimental",8,18,"ld","lower","outrank","w","w","g","g",1,1.20760714898643,NA,NA,NA
"experimental",8,19,"ld","lower","previous","w","w","g","g",1,0.718203548851307,NA,NA,NA
"experimental",8,20,"ld","lower","undertake","w","w","g","g",1,0.568295934004709,NA,NA,NA
"experimental",8,21,"ld","lower","dislokes","nw","nw","h","h",1,0.728409120303695,NA,NA,NA
"experimental",8,22,"ld","lower","smabled","nw","nw","h","h",1,0.745793950074585,NA,NA,NA
"experimental",8,23,"ld","lower","houted","nw","nw","h","h",1,0.578590563352918,NA,NA,NA
"experimental",8,24,"ld","lower","oalis","nw","nw","h","h",1,1.00203371378302,NA,NA,NA
"experimental",8,25,"ld","lower","teamwork","w","w","g","g",1,0.615893903479446,NA,NA,NA
"experimental",8,26,"ld","lower","snorls","nw","nw","h","q",0,2.5419947203336,NA,NA,NA
"experimental",8,27,"ld","lower","geadpan","nw","nw","h","h",1,1.42268792845425,NA,NA,NA
"experimental",8,28,"ld","lower","border","w","w","g","g",1,0.636113687767647,NA,NA,NA
"experimental",8,29,"ld","lower","formation","w","w","g","g",1,0.600998059846461,NA,NA,NA
"experimental",8,30,"ld","lower","uncarled","nw","nw","h","h",1,0.679595129797235,NA,NA,NA
"experimental",9,1,"hd","upper","thesis","w","w","g","g",1,5.17921522668621,NA,NA,NA
"experimental",9,2,"hd","upper","ounwit","nw","nw","h","h",1,0.698514470161172,NA,NA,NA
"experimental",9,3,"hd","upper","seldom","w","w","g","g",1,0.589248376752948,NA,NA,NA
"experimental",9,4,"hd","upper","exploit","w","w","g","g",1,0.603107970528072,NA,NA,NA
"experimental",9,5,"hd","upper","unamufed","nw","nw","h","h",1,0.593075879893149,NA,NA,NA
"experimental",9,6,"hd","upper","pleamed","nw","nw","h","g",0,0.775769712417969,NA,NA,NA
"experimental",9,7,"hd","upper","peags","nw","nw","h","h",1,0.65297973046836,NA,NA,NA
"experimental",9,8,"hd","upper","combat","w","w","g","g",1,0.563252078776713,NA,NA,NA
"experimental",9,9,"hd","upper","bingu","nw","nw","h","h",1,0.539353441898129,NA,NA,NA
"experimental",9,10,"hd","upper","exclusion","w","w","g","g",1,0.508037507199333,NA,NA,NA
"experimental",9,11,"hd","upper","deceit","w","w","g","g",1,0.57414528314257,NA,NA,NA
"experimental",9,12,"hd","upper","rualify","nw","nw","h","h",1,2.00656805188919,NA,NA,NA
"experimental",9,13,"hd","upper","rowel","nw","nw","h","h",1,0.738741160588688,NA,NA,NA
"experimental",9,14,"hd","upper","diatonic","w","w","g","g",1,2.05157274812518,NA,NA,NA
"experimental",9,15,"hd","upper","standard","w","w","g","g",1,0.560258541605435,NA,NA,NA
"experimental",9,16,"hd","upper","frequency","w","w","g","g",1,0.632391796068987,NA,NA,NA
"experimental",9,17,"hd","upper","congraks","nw","nw","h","h",1,0.837773541570641,NA,NA,NA
"experimental",9,18,"hd","upper","humanize","w","w","g","g",1,0.610481567069655,NA,NA,NA
"experimental",9,19,"hd","upper","desert","w","w","g","g",1,0.528625441598706,NA,NA,NA
"experimental",9,20,"hd","upper","colicky","w","w","g","h",0,0.778000132675515,NA,NA,NA
"experimental",9,21,"hd","upper","wrecber","nw","nw","h","h",1,0.600554756776546,NA,NA,NA
"experimental",9,22,"hd","upper","catgup","nw","nw","h","h",1,0.711008730228059,NA,NA,NA
"experimental",9,23,"hd","upper","bloodless","w","w","g","g",1,0.665118752163835,NA,NA,NA
"experimental",9,24,"hd","upper","opert","nw","nw","h","h",1,1.51819474238437,NA,NA,NA
"experimental",9,25,"hd","upper","hardest","w","w","g","g",1,0.662602949349093,NA,NA,NA
"experimental",9,26,"hd","upper","guitar","w","w","g","g",1,0.458662352612009,NA,NA,NA
"experimental",9,27,"hd","upper","ubefully","nw","nw","h","h",1,1.22277546343685,NA,NA,NA
"experimental",9,28,"hd","upper","profats","nw","nw","h","h",1,1.03617467092408,NA,NA,NA
"experimental",9,29,"hd","upper","scrooner","nw","nw","h","h",1,2.2079951633059,NA,NA,NA
"experimental",9,30,"hd","upper","doads","nw","nw","h","h",1,1.47007268870948,NA,NA,NA
"experimental",10,1,"ld","lower","deeper","w","w","g","g",1,0.626542115860502,NA,NA,NA
"experimental",10,2,"ld","lower","ireology","nw","nw","h","g",0,2.83909980898898,NA,NA,NA
"experimental",10,3,"ld","lower","iolize","nw","nw","h","h",1,1.58782113292546,NA,NA,NA
"experimental",10,4,"ld","lower","selongs","nw","nw","h","h",1,0.77857950561156,NA,NA,NA
"experimental",10,5,"ld","lower","drauns","nw","nw","h","h",1,0.657988823324558,NA,NA,NA
"experimental",10,6,"ld","lower","vented","w","w","g","g",1,0.678043072475703,NA,NA,NA
"experimental",10,7,"ld","lower","army","w","w","g","g",1,0.513463417475577,NA,NA,NA
"experimental",10,8,"ld","lower","sorping","nw","nw","h","g",0,1.37157035118435,NA,NA,NA
"experimental",10,9,"ld","lower","dazid","nw","nw","h","h",1,0.890994408124243,NA,NA,NA
"experimental",10,10,"ld","lower","bumbo","nw","nw","h","g",0,0.780816216196399,NA,NA,NA
"experimental",10,11,"ld","lower","chraps","nw","nw","h","g",0,0.908154110133182,NA,NA,NA
"experimental",10,12,"ld","lower","retain","w","w","g","g",1,0.534406259190291,NA,NA,NA
"experimental",10,13,"ld","lower","gazes","w","w","g","g",1,0.495623697192059,NA,NA,NA
"experimental",10,14,"ld","lower","forbid","w","w","g","g",1,0.450573644324322,NA,NA,NA
"experimental",10,15,"ld","lower","penalize","w","w","g","g",1,0.655105863595963,NA,NA,NA
"experimental",10,16,"ld","lower","educate","w","w","g","g",1,0.531161770762992,NA,NA,NA
"experimental",10,17,"ld","lower","icepick","w","w","g","h",0,2.72565925082017,NA,NA,NA
"experimental",10,18,"ld","lower","company","w","w","g","g",1,0.638057732270681,NA,NA,NA
"experimental",10,19,"ld","lower","smallash","nw","nw","h","h",1,1.52979676813993,NA,NA,NA
"experimental",10,20,"ld","lower","typical","w","w","g","g",1,0.699271627818234,NA,NA,NA
"experimental",10,21,"ld","lower","intended","w","w","g","g",1,0.60546651497134,NA,NA,NA
"experimental",10,22,"ld","lower","latpin","nw","nw","h","h",1,0.828040738444543,NA,NA,NA
"experimental",10,23,"ld","lower","glocked","nw","nw","h","h",1,0.809470346124726,NA,NA,NA
"experimental",10,24,"ld","lower","giraffe","target","target","q","g",0,0.623513154161628,NA,NA,NA
"experimental",10,25,"ld","lower","rillains","aftertar1","nw","h","h",1,1.99698555465147,NA,NA,NA
"experimental",10,26,"ld","lower","sprea","aftertar2","nw","h","h",1,0.570661099860445,NA,NA,NA
"experimental",10,27,"ld","lower","chappef","aftertar3","nw","h","h",1,0.673953692792566,NA,NA,NA
"experimental",10,28,"ld","lower","loneliest","nw","w","g","g",1,3.01347219083982,NA,NA,NA
"experimental",10,29,"ld","lower","trallion","w","nw","h","h",1,2.07552038341237,NA,NA,NA
"experimental",10,30,"ld","lower","rocket","nw","w","g","g",1,0.702961074654013,NA,NA,NA
"experimental",11,1,"ld","lower","cherry","w","w","g","g",1,0.584973928780528,NA,NA,NA
"experimental",11,2,"ld","lower","moozy","nw","nw","h","h",1,1.43256872000347,NA,NA,NA
"experimental",11,3,"ld","lower","quittint","nw","nw","h","h",1,0.965963941387599,NA,NA,NA
"experimental",11,4,"ld","lower","butcher","w","w","g","g",1,0.773683638777584,NA,NA,NA
"experimental",11,5,"ld","lower","havel","nw","nw","h","g",0,1.27696404834569,NA,NA,NA
"experimental",11,6,"ld","lower","surface","w","w","g","g",1,0.576068801281508,NA,NA,NA
"experimental",11,7,"ld","lower","miteous","nw","nw","h","h",1,1.01425682731497,NA,NA,NA
"experimental",11,8,"ld","lower","vaporize","w","w","g","g",1,0.772229578258703,NA,NA,NA
"experimental",11,9,"ld","lower","amaze","w","w","g","g",1,0.594766324560624,NA,NA,NA
"experimental",11,10,"ld","lower","arrival","w","w","g","g",1,0.610375624601147,NA,NA,NA
"experimental",11,11,"ld","lower","lasprey","nw","nw","h","h",1,0.936637076738407,NA,NA,NA
"experimental",11,12,"ld","lower","plymie","nw","nw","h","h",1,0.689968222795869,NA,NA,NA
"experimental",11,13,"ld","lower","recipus","nw","nw","h","h",1,1.72468193146051,NA,NA,NA
"experimental",11,14,"ld","lower","single","w","w","g","g",1,0.48618091159733,NA,NA,NA
"experimental",11,15,"ld","lower","cobalt","w","w","g","g",1,0.6888985348196,NA,NA,NA
"experimental",11,16,"ld","lower","huffle","nw","nw","h","g",0,0.602660032483982,NA,NA,NA
"experimental",11,17,"ld","lower","disperse","w","w","g","g",1,0.648745342012262,NA,NA,NA
"experimental",11,18,"ld","lower","hutting","nw","nw","h","g",0,0.421445421816316,NA,NA,NA
"experimental",11,19,"ld","lower","legalosm","nw","nw","h","h",1,0.754869247699389,NA,NA,NA
"experimental",11,20,"ld","lower","usage","w","w","g","g",1,0.634990697493777,NA,NA,NA
"experimental",11,21,"ld","lower","manage","w","w","g","g",1,0.512356649633148,NA,NA,NA
"experimental",11,22,"ld","lower","facienda","nw","nw","h","h",1,0.754418661090313,NA,NA,NA
"experimental",11,23,"ld","lower","nameplate","w","w","g","h",0,1.66648441692814,NA,NA,NA
"experimental",11,24,"ld","lower","volder","nw","nw","h","g",0,1.19761511783872,NA,NA,NA
"experimental",11,25,"ld","lower","postal","w","w","g","g",1,0.612368667483679,NA,NA,NA
"experimental",11,26,"ld","lower","jungle","w","w","g","g",1,0.522473494260339,NA,NA,NA
"experimental",11,27,"ld","lower","pillage","w","w","g","g",1,0.483869710194995,NA,NA,NA
"experimental",11,28,"ld","lower","cills","nw","nw","h","h",1,0.895242701546522,NA,NA,NA
"experimental",11,29,"ld","lower","bluads","nw","nw","h","h",1,0.850032741756877,NA,NA,NA
"experimental",11,30,"ld","lower","doxing","nw","nw","h","h",1,0.678722428638139,NA,NA,NA
"experimental",12,1,"ld","lower","stretches","w","w","g","g",1,0.562095319328364,NA,NA,NA
"experimental",12,2,"ld","lower","churnad","nw","nw","h","h",1,0.641868681894266,NA,NA,NA
"experimental",12,3,"ld","lower","envelop","w","w","g","g",1,0.646948292691377,NA,NA,NA
"experimental",12,4,"ld","lower","cutout","w","w","g","g",1,0.555612963886233,NA,NA,NA
"experimental",12,5,"ld","lower","become","w","w","g","g",1,0.483690601191483,NA,NA,NA
"experimental",12,6,"ld","lower","passet","nw","nw","h","h",1,0.775182393786963,NA,NA,NA
"experimental",12,7,"ld","lower","talent","w","w","g","g",1,0.606590829542256,NA,NA,NA
"experimental",12,8,"ld","lower","extruded","w","w","g","g",1,1.51574548469216,NA,NA,NA
"experimental",12,9,"ld","lower","etuip","nw","nw","h","h",1,0.645819012090215,NA,NA,NA
"experimental",12,10,"ld","lower","migmarole","nw","nw","h","h",1,0.890566334303003,NA,NA,NA
"experimental",12,11,"ld","lower","earmaff","nw","nw","h","g",0,1.04529035912128,NA,NA,NA
"experimental",12,12,"ld","lower","arrested","w","w","g","g",1,0.658045436328393,NA,NA,NA
"experimental",12,13,"ld","lower","potatoes","w","w","g","g",1,0.598021738318494,NA,NA,NA
"experimental",12,14,"ld","lower","earterner","nw","nw","h","g",0,1.69285581749864,NA,NA,NA
"experimental",12,15,"ld","lower","vintnel","nw","nw","h","h",1,2.14275479140633,NA,NA,NA
"experimental",12,16,"ld","lower","submit","w","w","g","g",1,0.527391211726354,NA,NA,NA
"experimental",12,17,"ld","lower","sodent","nw","nw","h","g",0,1.84887432696996,NA,NA,NA
"experimental",12,18,"ld","lower","anterior","w","w","g","h",0,3.32572539865214,NA,NA,NA
"experimental",12,19,"ld","lower","newstrint","nw","nw","h","h",1,3.19928934007476,NA,NA,NA
"experimental",12,20,"ld","lower","reloant","nw","nw","h","g",0,1.317927038981,NA,NA,NA
"experimental",12,21,"ld","lower","terrify","w","w","g","g",1,0.606975533155492,NA,NA,NA
"experimental",12,22,"ld","lower","bother","w","w","g","g",1,0.540971051130327,NA,NA,NA
"experimental",12,23,"ld","lower","gestalion","nw","nw","h","h",1,1.70962651194714,NA,NA,NA
"experimental",12,24,"ld","lower","susher","nw","nw","h","h",1,2.9920512836834,NA,NA,NA
"experimental",12,25,"ld","lower","cartles","nw","nw","h","g",0,0.822717128859949,NA,NA,NA
"experimental",12,26,"ld","lower","ethical","w","w","g","g",1,0.588195242307847,NA,NA,NA
"experimental",12,27,"ld","lower","statute","w","w","g","g",1,0.52294262079522,NA,NA,NA
"experimental",12,28,"ld","lower","tracing","w","w","g","g",1,0.475299294703291,NA,NA,NA
"experimental",12,29,"ld","lower","esdings","nw","nw","h","h",1,0.654736389202299,NA,NA,NA
"experimental",12,30,"ld","lower","bentler","nw","nw","h","g",0,1.53884293157898,NA,NA,NA
"experimental",13,1,"hd","upper","visible","w","w","g","g",1,1.61261564589222,NA,NA,NA
"experimental",13,2,"hd","upper","kiner","nw","nw","h","h",1,1.08966502867406,NA,NA,NA
"experimental",13,3,"hd","upper","rander","nw","nw","h","g",0,0.620425593035179,NA,NA,NA
"experimental",13,4,"hd","upper","assent","w","w","g","g",1,0.529877880355343,NA,NA,NA
"experimental",13,5,"hd","upper","sequence","w","w","g","g",1,0.587228848249651,NA,NA,NA
"experimental",13,6,"hd","upper","exit","w","w","g","g",1,0.433980734596844,NA,NA,NA
"experimental",13,7,"hd","upper","preserve","w","w","g","g",1,0.494765232040663,NA,NA,NA
"experimental",13,8,"hd","upper","fomes","nw","nw","h","g",0,0.577475518759456,NA,NA,NA
"experimental",13,9,"hd","upper","unburnid","nw","nw","h","h",1,1.31289841298712,NA,NA,NA
"experimental",13,10,"hd","upper","rarely","w","w","g","g",1,0.483023494642111,NA,NA,NA
"experimental",13,11,"hd","upper","maunches","nw","nw","h","h",1,0.877273532794788,NA,NA,NA
"experimental",13,12,"hd","upper","abhorrent","w","w","g","h",0,1.26472040844965,NA,NA,NA
"experimental",13,13,"hd","upper","computer","w","w","g","g",1,0.500987035193248,NA,NA,NA
"experimental",13,14,"hd","upper","recollect","w","w","g","g",1,0.526359596828115,NA,NA,NA
"experimental",13,15,"hd","upper","erlighten","nw","nw","h","h",1,1.56078957828868,NA,NA,NA
"experimental",13,16,"hd","upper","pimorous","nw","nw","h","g",0,1.9530959030235,NA,NA,NA
"experimental",13,17,"hd","upper","alticles","nw","nw","h","h",1,0.977235227968777,NA,NA,NA
"experimental",13,18,"hd","upper","dealer","w","w","g","g",1,0.615825371947722,NA,NA,NA
"experimental",13,19,"hd","upper","elpired","nw","nw","h","h",1,0.981797375978204,NA,NA,NA
"experimental",13,20,"hd","upper","rabbit","target","target","q","g",0,0.565206717525143,NA,NA,NA
"experimental",13,21,"hd","upper","uncle","aftertar1","w","g","g",1,0.461278800794389,NA,NA,NA
"experimental",13,22,"hd","upper","tiery","aftertar2","nw","h","h",1,0.753349966325914,NA,NA,NA
"experimental",13,23,"hd","upper","stooping","aftertar3","w","g","g",1,0.69742226942617,NA,NA,NA
"experimental",13,24,"hd","upper","paying","w","w","g","g",1,0.5961584749748,NA,NA,NA
"experimental",13,25,"hd","upper","cemoir","w","nw","h","h",1,0.938907556483173,NA,NA,NA
"experimental",13,26,"hd","upper","burning","nw","w","g","g",1,0.627659477933776,NA,NA,NA
"experimental",13,27,"hd","upper","alomalous","w","nw","h","h",1,2.71223832512624,NA,NA,NA
"experimental",13,28,"hd","upper","sefine","nw","nw","h","g",0,0.786218289416865,NA,NA,NA
"experimental",13,29,"hd","upper","bloves","nw","nw","h","h",1,0.984984258189797,NA,NA,NA
"experimental",13,30,"hd","upper","inside","nw","w","g","g",1,0.560363490862073,NA,NA,NA
"experimental",14,1,"hd","upper","seartfelt","nw","nw","h","h",1,1.5204029809247,NA,NA,NA
"experimental",14,2,"hd","upper","splum","nw","nw","h","h",1,0.833834136690712,NA,NA,NA
"experimental",14,3,"hd","upper","plunging","w","w","g","g",1,1.07854007513379,NA,NA,NA
"experimental",14,4,"hd","upper","crazy","w","w","g","g",1,0.577252377406694,NA,NA,NA
"experimental",14,5,"hd","upper","satisfies","w","w","g","g",1,0.56107297440758,NA,NA,NA
"experimental",14,6,"hd","upper","befin","nw","nw","h","h",1,0.761579379453906,NA,NA,NA
"experimental",14,7,"hd","upper","rebool","nw","nw","h","h",1,0.737598968233215,NA,NA,NA
"experimental",14,8,"hd","upper","eightiech","nw","nw","h","h",1,0.882338245442952,NA,NA,NA
"experimental",14,9,"hd","upper","deadly","w","w","g","g",1,0.660747300615185,NA,NA,NA
"experimental",14,10,"hd","upper","wrestle","w","w","g","g",1,0.536861476153717,NA,NA,NA
"experimental",14,11,"hd","upper","pollute","w","w","g","h",0,0.649628637416754,NA,NA,NA
"experimental",14,12,"hd","upper","subpoena","w","w","g","h",0,1.27035588619765,NA,NA,NA
"experimental",14,13,"hd","upper","confined","w","w","g","g",1,0.641757111210609,NA,NA,NA
"experimental",14,14,"hd","upper","acting","w","w","g","g",1,0.454503448185278,NA,NA,NA
"experimental",14,15,"hd","upper","miability","nw","nw","h","h",1,0.946605932957027,NA,NA,NA
"experimental",14,16,"hd","upper","cavern","w","w","g","g",1,1.02735131775262,NA,NA,NA
"experimental",14,17,"hd","upper","brouhuha","nw","nw","h","h",1,0.592806057626149,NA,NA,NA
"experimental",14,18,"hd","upper","monkey","target","target","q","q",1,1.48650171865302,1,NA,NA
"experimental",14,19,"hd","upper","sength","aftertar1","nw","h","h",1,1.57729011942865,NA,NA,NA
"experimental",14,20,"hd","upper","tyena","aftertar2","nw","h","h",1,0.744727241719374,NA,NA,NA
"experimental",14,21,"hd","upper","alarm","aftertar3","w","g","g",1,0.865459622087656,NA,NA,NA
"experimental",14,22,"hd","upper","ludictous","w","nw","h","g",0,1.07757335000497,NA,NA,NA
"experimental",14,23,"hd","upper","yash","nw","nw","h","h",1,0.697024322973448,NA,NA,NA
"experimental",14,24,"hd","upper","huntry","nw","nw","h","g",0,0.571720855703461,NA,NA,NA
"experimental",14,25,"hd","upper","bulmed","nw","nw","h","h",1,1.78710324020358,NA,NA,NA
"experimental",14,26,"hd","upper","widely","nw","w","g","g",1,0.64083607379871,NA,NA,NA
"experimental",14,27,"hd","upper","batire","w","nw","h","g",0,0.93388588297239,NA,NA,NA
"experimental",14,28,"hd","upper","violate","nw","w","g","g",1,0.462295186458505,NA,NA,NA
"experimental",14,29,"hd","upper","jiggling","w","w","g","g",1,0.930457319496782,NA,NA,NA
"experimental",14,30,"hd","upper","elbalm","w","nw","h","g",0,1.49190942008863,NA,NA,NA
"experimental",15,1,"hd","upper","frowsed","nw","nw","h","h",1,1.214075930533,NA,NA,NA
"experimental",15,2,"hd","upper","daylight","w","w","g","g",1,0.484093513689004,NA,NA,NA
"experimental",15,3,"hd","upper","martial","w","w","g","g",1,0.630957268673228,NA,NA,NA
"experimental",15,4,"hd","upper","deakers","nw","nw","h","g",0,0.492340804616106,NA,NA,NA
"experimental",15,5,"hd","upper","expounded","w","w","g","g",1,2.25512201982201,NA,NA,NA
"experimental",15,6,"hd","upper","podges","nw","nw","h","g",0,1.73821608316211,NA,NA,NA
"experimental",15,7,"hd","upper","veclors","nw","nw","h","q",0,0.0188563862611772,NA,NA,NA
"experimental",15,8,"hd","upper","superstar","w","w","g","g",1,0.848301906502456,NA,NA,NA
"experimental",15,9,"hd","upper","shazer","nw","nw","h","h",1,0.973084931349149,NA,NA,NA
"experimental",15,10,"hd","upper","budget","w","w","g","g",1,1.20449376436591,NA,NA,NA
"experimental",15,11,"hd","upper","inducing","w","w","g","g",1,0.546560510105337,NA,NA,NA
"experimental",15,12,"hd","upper","numbled","nw","nw","h","g",0,0.499345919990446,NA,NA,NA
"experimental",15,13,"hd","upper","booster","w","w","g","g",1,0.566090012944187,NA,NA,NA
"experimental",15,14,"hd","upper","aqueduct","w","w","g","g",1,2.41326765564736,NA,NA,NA
"experimental",15,15,"hd","upper","tuckel","nw","nw","h","h",1,0.571161015934194,NA,NA,NA
"experimental",15,16,"hd","upper","partner","w","w","g","g",1,0.626697056737612,NA,NA,NA
"experimental",15,17,"hd","upper","erithets","nw","nw","h","h",1,0.752096534371958,NA,NA,NA
"experimental",15,18,"hd","upper","kangaroo","target","target","q","q",1,0.864071775606135,1,NA,NA
"experimental",15,19,"hd","upper","gaining","aftertar1","w","g","g",1,0.628162704713759,NA,NA,NA
"experimental",15,20,"hd","upper","publish","aftertar2","w","g","g",1,0.569543406687444,NA,NA,NA
"experimental",15,21,"hd","upper","flicking","aftertar3","w","g","g",1,1.664959176298,NA,NA,NA
"experimental",15,22,"hd","upper","persona","w","w","g","g",1,0.821112762438133,NA,NA,NA
"experimental",15,23,"hd","upper","finstrel","w","nw","h","h",1,1.34562470695528,NA,NA,NA
"experimental",15,24,"hd","upper","ilterfere","nw","nw","h","h",1,1.38641189930786,NA,NA,NA
"experimental",15,25,"hd","upper","boutique","nw","w","g","g",1,0.673194879782386,NA,NA,NA
"experimental",15,26,"hd","upper","ebince","w","nw","h","h",1,1.50058809555776,NA,NA,NA
"experimental",15,27,"hd","upper","blipover","nw","nw","h","h",1,1.66274232993601,NA,NA,NA
"experimental",15,28,"hd","upper","flooted","nw","nw","h","g",0,4.15398999131867,NA,NA,NA
"experimental",15,29,"hd","upper","roughly","nw","w","g","g",1,0.554023826713092,NA,NA,NA
"experimental",15,30,"hd","upper","buaint","w","nw","h","h",1,0.586079041269841,NA,NA,NA
"experimental",16,1,"ld","lower","swatches","w","w","g","g",1,0.953810683684424,NA,NA,NA
"experimental",16,2,"ld","lower","pocket","w","w","g","g",1,0.465918419242371,NA,NA,NA
"experimental",16,3,"ld","lower","absent","w","w","g","g",1,0.477007286113803,NA,NA,NA
"experimental",16,4,"ld","lower","yearnungs","nw","nw","h","h",1,0.568255212376243,NA,NA,NA
"experimental",16,5,"ld","lower","dabble","w","w","g","g",1,1.08773455805203,NA,NA,NA
"experimental",16,6,"ld","lower","natch","nw","nw","h","h",1,0.818472808285151,NA,NA,NA
"experimental",16,7,"ld","lower","bedding","w","w","g","g",1,0.73587475437671,NA,NA,NA
"experimental",16,8,"ld","lower","gerby","nw","nw","h","g",0,0.656679109408287,NA,NA,NA
"experimental",16,9,"ld","lower","atsless","nw","nw","h","h",1,0.764682500899653,NA,NA,NA
"experimental",16,10,"ld","lower","phraining","nw","nw","h","h",1,1.20510194041708,NA,NA,NA
"experimental",16,11,"ld","lower","pammed","nw","nw","h","g",0,1.57855745633424,NA,NA,NA
"experimental",16,12,"ld","lower","enunciate","w","w","g","h",0,1.69002152510802,NA,NA,NA
"experimental",16,13,"ld","lower","reddar","nw","nw","h","h",1,2.97292866618955,NA,NA,NA
"experimental",16,14,"ld","lower","oleandur","nw","nw","h","h",1,0.828383065061644,NA,NA,NA
"experimental",16,15,"ld","lower","culer","nw","nw","h","g",0,1.08178092178423,NA,NA,NA
"experimental",16,16,"ld","lower","image","w","w","g","g",1,0.533156469013193,NA,NA,NA
"experimental",16,17,"ld","lower","greft","nw","nw","h","h",1,0.79047817029641,NA,NA,NA
"experimental",16,18,"ld","lower","curricula","w","w","g","g",1,1.18093679197773,NA,NA,NA
"experimental",16,19,"ld","lower","teliever","nw","nw","h","h",1,1.94041359504627,NA,NA,NA
"experimental",16,20,"ld","lower","larger","w","w","g","g",1,0.621117529852199,NA,NA,NA
"experimental",16,21,"ld","lower","airmen","w","w","g","h",0,1.7145875996066,NA,NA,NA
"experimental",16,22,"ld","lower","casino","w","w","g","g",1,0.676665489183506,NA,NA,NA
"experimental",16,23,"ld","lower","oginous","nw","nw","h","g",0,1.39209736866178,NA,NA,NA
"experimental",16,24,"ld","lower","fudden","nw","nw","h","g",0,0.614817594105261,NA,NA,NA
"experimental",16,25,"ld","lower","twarfs","nw","nw","h","g",0,0.876001560900477,NA,NA,NA
"experimental",16,26,"ld","lower","divider","w","w","g","g",1,0.631290325341979,NA,NA,NA
"experimental",16,27,"ld","lower","baults","nw","nw","h","h",1,0.852677993039833,NA,NA,NA
"experimental",16,28,"ld","lower","warmer","w","w","g","g",1,0.584669013100211,NA,NA,NA
"experimental",16,29,"ld","lower","glassware","w","w","g","g",1,1.8395546995016,NA,NA,NA
"experimental",16,30,"ld","lower","expired","w","w","g","g",1,0.64423782058293,NA,NA,NA
"experimental",17,1,"hd","upper","compose","w","w","g","g",1,0.640292456446332,NA,NA,NA
"experimental",17,2,"hd","upper","emission","w","w","g","g",1,0.629100957798073,NA,NA,NA
"experimental",17,3,"hd","upper","venturous","w","w","g","g",1,0.626446767622838,NA,NA,NA
"experimental",17,4,"hd","upper","reconcile","w","w","g","g",1,0.639918678134563,NA,NA,NA
"experimental",17,5,"hd","upper","grested","nw","nw","h","g",0,0.636658298331895,NA,NA,NA
"experimental",17,6,"hd","upper","armada","w","w","g","h",0,0.809407111708424,NA,NA,NA
"experimental",17,7,"hd","upper","mebase","nw","nw","h","h",1,1.05552440260362,NA,NA,NA
"experimental",17,8,"hd","upper","capobly","nw","nw","h","h",1,1.61065537895774,NA,NA,NA
"experimental",17,9,"hd","upper","tining","nw","nw","h","g",0,2.23282245223527,NA,NA,NA
"experimental",17,10,"hd","upper","rumblos","nw","nw","h","h",1,1.5022212650947,NA,NA,NA
"experimental",17,11,"hd","upper","itself","w","w","g","g",1,0.576275720188278,NA,NA,NA
"experimental",17,12,"hd","upper","sarlock","nw","nw","h","g",0,1.36770676138985,NA,NA,NA
"experimental",17,13,"hd","upper","efcorted","nw","nw","h","h",1,0.823167053313227,NA,NA,NA
"experimental",17,14,"hd","upper","populace","w","w","g","g",1,2.06770844984567,NA,NA,NA
"experimental",17,15,"hd","upper","sputter","w","w","g","g",1,0.566994827924646,NA,NA,NA
"experimental",17,16,"hd","upper","pallir","nw","nw","h","h",1,0.60703545686556,NA,NA,NA
"experimental",17,17,"hd","upper","loached","nw","nw","h","g",0,1.30920697972761,NA,NA,NA
"experimental",17,18,"hd","upper","dolphin","target","target","q","g",0,0.54317796540272,1,1,NA
"experimental",17,19,"hd","upper","talate","aftertar1","nw","h","g",0,2.12802150324569,NA,NA,NA
"experimental",17,20,"hd","upper","aviation","aftertar2","w","g","g",1,1.00096104618569,NA,NA,NA
"experimental",17,21,"hd","upper","removable","aftertar3","w","g","g",1,0.559521579227294,NA,NA,NA
"experimental",17,22,"hd","upper","germeated","w","nw","h","g",0,1.03921952398377,NA,NA,NA
"experimental",17,23,"hd","upper","ronic","nw","nw","h","h",1,0.780021647602553,NA,NA,NA
"experimental",17,24,"hd","upper","accessory","nw","w","g","g",1,0.579438765329542,NA,NA,NA
"experimental",17,25,"hd","upper","located","w","w","g","g",1,0.626941055510542,NA,NA,NA
"experimental",17,26,"hd","upper","gunrunker","w","nw","h","h",1,1.22434904033435,NA,NA,NA
"experimental",17,27,"hd","upper","punctual","nw","w","g","g",1,1.38176665265928,NA,NA,NA
"experimental",17,28,"hd","upper","gelented","w","nw","h","g",0,0.989200768861338,NA,NA,NA
"experimental",17,29,"hd","upper","finish","nw","w","g","g",1,0.547001826751512,NA,NA,NA
"experimental",17,30,"hd","upper","razelle","w","nw","h","h",1,0.731659236917039,NA,NA,NA
"experimental",18,1,"ld","lower","anonymous","w","w","g","g",1,4.40625492564868,NA,NA,NA
"experimental",18,2,"ld","lower","caution","w","w","g","g",1,0.828290696474141,NA,NA,NA
"experimental",18,3,"ld","lower","describe","w","w","g","g",1,0.544685990375001,NA,NA,NA
"experimental",18,4,"ld","lower","fravity","nw","nw","h","g",0,0.657422031057649,NA,NA,NA
"experimental",18,5,"ld","lower","farochial","nw","nw","h","h",1,1.03749332371808,NA,NA,NA
"experimental",18,6,"ld","lower","ulcer","w","w","g","h",0,0.690221822602325,NA,NA,NA
"experimental",18,7,"ld","lower","oppose","w","w","g","g",1,0.780980095965788,NA,NA,NA
"experimental",18,8,"ld","lower","hinsome","nw","nw","h","g",0,1.01250712106412,NA,NA,NA
"experimental",18,9,"ld","lower","mosary","nw","nw","h","g",0,1.65847351014963,NA,NA,NA
"experimental",18,10,"ld","lower","inverted","w","w","g","g",1,0.654630777789862,NA,NA,NA
"experimental",18,11,"ld","lower","emergence","w","w","g","g",1,0.569694043661002,NA,NA,NA
"experimental",18,12,"ld","lower","labitable","nw","nw","h","g",0,2.96115845674649,NA,NA,NA
"experimental",18,13,"ld","lower","alber","nw","nw","h","h",1,0.77730687156145,NA,NA,NA
"experimental",18,14,"ld","lower","hasks","nw","nw","h","g",0,0.664699948290945,NA,NA,NA
"experimental",18,15,"ld","lower","nogwhell","nw","nw","h","h",1,0.716795176020241,NA,NA,NA
"experimental",18,16,"ld","lower","asclibed","nw","nw","h","h",1,1.25489987169567,NA,NA,NA
"experimental",18,17,"ld","lower","gonesty","nw","nw","h","h",1,5.7062125155644,NA,NA,NA
"experimental",18,18,"ld","lower","delegate","w","w","g","g",1,0.628291159970104,NA,NA,NA
"experimental",18,19,"ld","lower","season","w","w","g","g",1,0.618667610018747,NA,NA,NA
"experimental",18,20,"ld","lower","poughest","nw","nw","h","h",1,0.75910396722611,NA,NA,NA
"experimental",18,21,"ld","lower","digest","w","w","g","g",1,0.527213427005336,NA,NA,NA
"experimental",18,22,"ld","lower","implode","w","w","g","g",1,1.66459003297496,NA,NA,NA
"experimental",18,23,"ld","lower","grolific","nw","nw","h","g",0,1.06874039581453,NA,NA,NA
"experimental",18,24,"ld","lower","encrusted","w","w","g","g",1,0.751090080811991,NA,NA,NA
"experimental",18,25,"ld","lower","epic","w","w","g","g",1,0.75127283159236,NA,NA,NA
"experimental",18,26,"ld","lower","equitable","w","w","g","g",1,0.647320746720652,NA,NA,NA
"experimental",18,27,"ld","lower","vergas","nw","nw","h","g",0,0.523929541217512,NA,NA,NA
"experimental",18,28,"ld","lower","airline","w","w","g","g",1,0.581337122130208,NA,NA,NA
"experimental",18,29,"ld","lower","abraid","nw","nw","h","g",0,0.860812720100512,NA,NA,NA
"experimental",18,30,"ld","lower","refebs","nw","nw","h","h",1,0.712824981615995,NA,NA,NA
"experimental",19,1,"hd","upper","mining","w","w","g","g",1,0.922920505312504,NA,NA,NA
"experimental",19,2,"hd","upper","harmful","w","w","g","g",1,0.436303523456445,NA,NA,NA
"experimental",19,3,"hd","upper","joadbed","nw","nw","h","h",1,1.3531820474891,NA,NA,NA
"experimental",19,4,"hd","upper","except","w","w","g","g",1,0.497305202981806,NA,NA,NA
"experimental",19,5,"hd","upper","lentils","w","w","g","h",0,1.73202208991279,NA,NA,NA
"experimental",19,6,"hd","upper","latirizes","nw","nw","h","h",1,2.7015093316295,NA,NA,NA
"experimental",19,7,"hd","upper","neally","nw","nw","h","g",0,0.669929202864296,NA,NA,NA
"experimental",19,8,"hd","upper","argue","w","w","g","g",1,0.497329702164279,NA,NA,NA
"experimental",19,9,"hd","upper","soluced","nw","nw","h","h",1,0.988089366044733,NA,NA,NA
"experimental",19,10,"hd","upper","oppose","w","w","g","g",1,0.554845211983775,NA,NA,NA
"experimental",19,11,"hd","upper","pariah","w","w","g","g",1,1.65898600689252,NA,NA,NA
"experimental",19,12,"hd","upper","glapula","nw","nw","h","q",0,1.22303502249997,NA,NA,NA
"experimental",19,13,"hd","upper","regional","w","w","g","g",1,0.724419392747222,NA,NA,NA
"experimental",19,14,"hd","upper","fullity","nw","nw","h","g",0,0.668717154680053,NA,NA,NA
"experimental",19,15,"hd","upper","flougy","nw","nw","h","h",1,1.21623417748197,NA,NA,NA
"experimental",19,16,"hd","upper","tritical","nw","nw","h","g",0,7.05457323777955,NA,NA,NA
"experimental",19,17,"hd","upper","hustle","w","w","g","g",1,0.626531190529931,NA,NA,NA
"experimental",19,18,"hd","upper","measure","w","w","g","g",1,0.487952468480216,NA,NA,NA
"experimental",19,19,"hd","upper","axis","w","w","g","g",1,0.561467279083445,NA,NA,NA
"experimental",19,20,"hd","upper","tasher","nw","nw","h","g",0,0.617879993893439,NA,NA,NA
"experimental",19,21,"hd","upper","sazer","nw","nw","h","g",0,0.60000716659124,NA,NA,NA
"experimental",19,22,"hd","upper","noils","nw","nw","h","h",1,0.518606593774166,NA,NA,NA
"experimental",19,23,"hd","upper","geissue","nw","nw","h","h",1,0.655988827944384,NA,NA,NA
"experimental",19,24,"hd","upper","retona","nw","nw","h","h",1,0.58808565804793,NA,NA,NA
"experimental",19,25,"hd","upper","disease","w","w","g","g",1,0.562807120368234,NA,NA,NA
"experimental",19,26,"hd","upper","throttle","w","w","g","h",0,0.602871586379479,NA,NA,NA
"experimental",19,27,"hd","upper","leuter","nw","nw","h","h",1,1.27302199490077,NA,NA,NA
"experimental",19,28,"hd","upper","classify","w","w","g","g",1,0.555402403217158,NA,NA,NA
"experimental",19,29,"hd","upper","fuintets","nw","nw","h","h",1,0.731486087184749,NA,NA,NA
"experimental",19,30,"hd","upper","kickoff","w","w","g","g",1,0.684872720623389,NA,NA,NA
"experimental",20,1,"ld","lower","hindsight","w","w","g","g",1,0.879944607557263,NA,NA,NA
"experimental",20,2,"ld","lower","railroad","w","w","g","g",1,0.515417725153384,NA,NA,NA
"experimental",20,3,"ld","lower","footstep","w","w","g","g",1,0.532587028195849,NA,NA,NA
"experimental",20,4,"ld","lower","slears","nw","nw","h","g",0,1.16593169515545,NA,NA,NA
"experimental",20,5,"ld","lower","defensa","nw","nw","h","h",1,0.941930227854755,NA,NA,NA
"experimental",20,6,"ld","lower","dumult","nw","nw","h","h",1,0.726696493919007,NA,NA,NA
"experimental",20,7,"ld","lower","egpended","nw","nw","h","h",1,0.800006372024654,NA,NA,NA
"experimental",20,8,"ld","lower","grummer","nw","nw","h","h",1,1.41479521377187,NA,NA,NA
"experimental",20,9,"ld","lower","veranpah","nw","nw","h","h",1,1.08496879719314,NA,NA,NA
"experimental",20,10,"ld","lower","huests","nw","nw","h","h",1,0.847652015610947,NA,NA,NA
"experimental",20,11,"ld","lower","hubris","w","w","g","h",0,0.763456547778333,NA,NA,NA
"experimental",20,12,"ld","lower","machinery","w","w","g","g",1,1.53138127035345,NA,NA,NA
"experimental",20,13,"ld","lower","professor","w","w","g","g",1,0.524899908094085,NA,NA,NA
"experimental",20,14,"ld","lower","noblin","nw","nw","h","h",1,0.726341586603667,NA,NA,NA
"experimental",20,15,"ld","lower","irregular","w","w","g","g",1,0.583867492023273,NA,NA,NA
"experimental",20,16,"ld","lower","glattery","nw","nw","h","g",0,0.614534529056982,NA,NA,NA
"experimental",20,17,"ld","lower","slightly","w","w","g","g",1,0.500610939401668,NA,NA,NA
"experimental",20,18,"ld","lower","rapport","w","w","g","h",0,0.990651518688537,NA,NA,NA
"experimental",20,19,"ld","lower","butterfly","target","target","q","g",0,0.51744718576083,NA,NA,NA
"experimental",20,20,"ld","lower","setwixt","aftertar1","nw","h","h",1,0.709846011523041,NA,NA,NA
"experimental",20,21,"ld","lower","orange","aftertar2","w","g","g",1,0.5679350674327,NA,NA,NA
"experimental",20,22,"ld","lower","igiom","aftertar3","nw","h","h",1,1.32736982457573,NA,NA,NA
"experimental",20,23,"ld","lower","parody","nw","w","g","g",1,0.984784953892813,NA,NA,NA
"experimental",20,24,"ld","lower","fidelity","w","w","g","g",1,1.55957819224568,NA,NA,NA
"experimental",20,25,"ld","lower","urique","w","nw","h","g",0,5.29487230014638,NA,NA,NA
"experimental",20,26,"ld","lower","cervical","nw","w","g","h",0,0.841602368978783,NA,NA,NA
"experimental",20,27,"ld","lower","chonemic","w","nw","h","h",1,2.74245643090399,NA,NA,NA
"experimental",20,28,"ld","lower","sording","nw","nw","h","g",0,0.567311331091332,NA,NA,NA
"experimental",20,29,"ld","lower","maximized","nw","w","g","g",1,0.534457575078704,NA,NA,NA
"experimental",20,30,"ld","lower","practice","w","w","g","g",1,0.39130147578544,NA,NA,NA
"experimental",21,1,"ld","lower","miurnal","nw","nw","h","h",1,2.59795188248972,NA,NA,NA
"experimental",21,2,"ld","lower","pexts","nw","nw","h","h",1,0.668700270092813,NA,NA,NA
"experimental",21,3,"ld","lower","nostril","w","w","g","h",0,0.456117084555444,NA,NA,NA
"experimental",21,4,"ld","lower","stifle","w","w","g","g",1,1.46831040177494,NA,NA,NA
"experimental",21,5,"ld","lower","thrapping","nw","nw","h","g",0,0.95076682382205,NA,NA,NA
"experimental",21,6,"ld","lower","poyride","nw","nw","h","h",1,0.678833337151445,NA,NA,NA
"experimental",21,7,"ld","lower","embrace","w","w","g","g",1,0.594253496761667,NA,NA,NA
"experimental",21,8,"ld","lower","kilotin","nw","nw","h","h",1,0.632971500061103,NA,NA,NA
"experimental",21,9,"ld","lower","colored","w","w","g","g",1,0.558307544648414,NA,NA,NA
"experimental",21,10,"ld","lower","culinary","w","w","g","g",1,1.63045933902322,NA,NA,NA
"experimental",21,11,"ld","lower","permeable","w","w","g","g",1,0.691909287663293,NA,NA,NA
"experimental",21,12,"ld","lower","coster","nw","nw","h","g",0,0.526605250954162,NA,NA,NA
"experimental",21,13,"ld","lower","grenavier","nw","nw","h","h",1,0.672025539664901,NA,NA,NA
"experimental",21,14,"ld","lower","fragment","w","w","g","g",1,0.515344889689004,NA,NA,NA
"experimental",21,15,"ld","lower","itfidels","nw","nw","h","h",1,0.724525335230283,NA,NA,NA
"experimental",21,16,"ld","lower","outfit","w","w","g","g",1,0.493868693811237,NA,NA,NA
"experimental",21,17,"ld","lower","gaioty","nw","nw","h","h",1,0.720628307346487,NA,NA,NA
"experimental",21,18,"ld","lower","atble","nw","nw","h","h",1,1.01007276154996,NA,NA,NA
"experimental",21,19,"ld","lower","massacre","w","w","g","h",0,1.02413761884964,NA,NA,NA
"experimental",21,20,"ld","lower","schides","nw","nw","h","h",1,0.909594596771058,NA,NA,NA
"experimental",21,21,"ld","lower","ephically","nw","nw","h","g",0,0.575622518575983,NA,NA,NA
"experimental",21,22,"ld","lower","chight","nw","nw","h","h",1,0.791002254496561,NA,NA,NA
"experimental",21,23,"ld","lower","sheerio","nw","nw","h","h",1,1.23671120335348,NA,NA,NA
"experimental",21,24,"ld","lower","century","w","w","g","g",1,0.56139080185676,NA,NA,NA
"experimental",21,25,"ld","lower","agony","w","w","g","h",0,2.33851497339492,NA,NA,NA
"experimental",21,26,"ld","lower","moral","w","w","g","g",1,0.610323646571487,NA,NA,NA
"experimental",21,27,"ld","lower","govern","w","w","g","g",1,0.672388061575475,NA,NA,NA
"experimental",21,28,"ld","lower","gensions","nw","nw","h","g",0,1.28382283065002,NA,NA,NA
"experimental",21,29,"ld","lower","official","w","w","g","g",1,0.518662213566131,NA,NA,NA
"experimental",21,30,"ld","lower","acorn","w","w","g","g",1,0.896083619983983,NA,NA,NA
"experimental",22,1,"ld","lower","podes","nw","nw","h","h",1,0.730787528955261,NA,NA,NA
"experimental",22,2,"ld","lower","graciap","nw","nw","h","h",1,1.26822478701069,NA,NA,NA
"experimental",22,3,"ld","lower","aefated","nw","nw","h","h",1,0.68765172426356,NA,NA,NA
"experimental",22,4,"ld","lower","contact","w","w","g","g",1,0.602384250960313,NA,NA,NA
"experimental",22,5,"ld","lower","rearrange","w","w","g","g",1,0.680466506702942,NA,NA,NA
"experimental",22,6,"ld","lower","integral","w","w","g","g",1,0.546812785643851,NA,NA,NA
"experimental",22,7,"ld","lower","brother","w","w","g","g",1,1.42765100253746,NA,NA,NA
"experimental",22,8,"ld","lower","destroy","w","w","g","g",1,1.28107163688401,NA,NA,NA
"experimental",22,9,"ld","lower","couple","w","w","g","g",1,0.548479724340723,NA,NA,NA
"experimental",22,10,"ld","lower","bypassed","w","w","g","g",1,0.893237740136101,NA,NA,NA
"experimental",22,11,"ld","lower","erony","nw","nw","h","g",0,3.87207473670423,NA,NA,NA
"experimental",22,12,"ld","lower","ebuating","nw","nw","h","g",0,0.626464976492571,NA,NA,NA
"experimental",22,13,"ld","lower","lancos","nw","nw","h","h",1,0.703834437968908,NA,NA,NA
"experimental",22,14,"ld","lower","whirling","w","w","g","g",1,0.786060037848074,NA,NA,NA
"experimental",22,15,"ld","lower","ofsters","nw","nw","h","h",1,1.75270868325606,NA,NA,NA
"experimental",22,16,"ld","lower","haurded","nw","nw","h","h",1,0.744830535652,NA,NA,NA
"experimental",22,17,"ld","lower","outflow","w","w","g","g",1,0.633709455651115,NA,NA,NA
"experimental",22,18,"ld","lower","nelvet","nw","nw","h","h",1,0.91097549078404,NA,NA,NA
"experimental",22,19,"ld","lower","robbery","w","w","g","g",1,1.41724877536763,NA,NA,NA
"experimental",22,20,"ld","lower","expected","w","w","g","g",1,2.39767755768844,NA,NA,NA
"experimental",22,21,"ld","lower","fallacy","w","w","g","h",0,0.804394046004745,NA,NA,NA
"experimental",22,22,"ld","lower","posing","w","w","g","g",1,0.56242771387042,NA,NA,NA
"experimental",22,23,"ld","lower","temelity","nw","nw","h","h",1,0.762477241965826,NA,NA,NA
"experimental",22,24,"ld","lower","managed","w","w","g","g",1,0.642517579573905,NA,NA,NA
"experimental",22,25,"ld","lower","design","w","w","g","g",1,0.551202446062234,NA,NA,NA
"experimental",22,26,"ld","lower","bettled","nw","nw","h","g",0,3.67044931421697,NA,NA,NA
"experimental",22,27,"ld","lower","huzzles","nw","nw","h","g",0,0.745836989197414,NA,NA,NA
"experimental",22,28,"ld","lower","butled","nw","nw","h","h",1,0.994576687531662,NA,NA,NA
"experimental",22,29,"ld","lower","theles","nw","nw","h","h",1,0.601334096150822,NA,NA,NA
"experimental",22,30,"ld","lower","arpired","nw","nw","h","g",0,1.43141030520201,NA,NA,NA
"experimental",23,1,"hd","upper","pretzel","w","w","g","g",1,4.29276967301848,NA,NA,NA
"experimental",23,2,"hd","upper","ignoble","w","w","g","g",1,0.511300535552436,NA,NA,NA
"experimental",23,3,"hd","upper","resonant","w","w","g","g",1,0.489560807749513,NA,NA,NA
"experimental",23,4,"hd","upper","arrive","w","w","g","g",1,0.467776054400019,NA,NA,NA
"experimental",23,5,"hd","upper","create","w","w","g","g",1,0.463647277341806,NA,NA,NA
"experimental",23,6,"hd","upper","menarthe","nw","nw","h","h",1,0.68388613127172,NA,NA,NA
"experimental",23,7,"hd","upper","tenpince","nw","nw","h","h",1,0.630540120168007,NA,NA,NA
"experimental",23,8,"hd","upper","fisco","nw","nw","h","g",0,0.723007709209924,NA,NA,NA
"experimental",23,9,"hd","upper","veirs","nw","nw","h","g",0,0.86037074131309,NA,NA,NA
"experimental",23,10,"hd","upper","worps","nw","nw","h","g",0,0.928483147610677,NA,NA,NA
"experimental",23,11,"hd","upper","nearsipe","nw","nw","h","h",1,1.37789577932563,NA,NA,NA
"experimental",23,12,"hd","upper","glating","nw","nw","h","h",1,0.74534468773345,NA,NA,NA
"experimental",23,13,"hd","upper","virulent","w","w","g","h",0,0.730039972331724,NA,NA,NA
"experimental",23,14,"hd","upper","sullen","w","w","g","g",1,0.779481340956409,NA,NA,NA
"experimental",23,15,"hd","upper","standard","w","w","g","g",1,0.474863937328337,NA,NA,NA
"experimental",23,16,"hd","upper","blerapies","nw","nw","h","h",1,0.806289092099178,NA,NA,NA
"experimental",23,17,"hd","upper","edasion","nw","nw","h","h",1,1.08356241080037,NA,NA,NA
"experimental",23,18,"hd","upper","quickel","nw","nw","h","h",1,0.966861141758272,NA,NA,NA
"experimental",23,19,"hd","upper","showdown","w","w","g","g",1,0.55109219966107,NA,NA,NA
"experimental",23,20,"hd","upper","harder","w","w","g","g",1,0.502944653562736,NA,NA,NA
"experimental",23,21,"hd","upper","alchemist","w","w","g","h",0,0.753010288244695,NA,NA,NA
"experimental",23,22,"hd","upper","octopus","target","target","q","g",0,0.577116638596635,NA,NA,NA
"experimental",23,23,"hd","upper","dorte","aftertar1","nw","h","g",0,0.815831860920298,NA,NA,NA
"experimental",23,24,"hd","upper","lonnote","aftertar2","nw","h","h",1,0.700954788961099,NA,NA,NA
"experimental",23,25,"hd","upper","senalize","aftertar3","nw","h","g",0,0.870925260809599,NA,NA,NA
"experimental",23,26,"hd","upper","abstain","nw","w","g","g",1,0.538335400880896,NA,NA,NA
"experimental",23,27,"hd","upper","butler","w","w","g","h",0,0.7951406325883,NA,NA,NA
"experimental",23,28,"hd","upper","tharcely","w","nw","h","h",1,1.00084450945724,NA,NA,NA
"experimental",23,29,"hd","upper","mandlers","nw","nw","h","g",0,0.632682806812227,NA,NA,NA
"experimental",23,30,"hd","upper","disuse","nw","w","g","g",1,0.534051020804327,NA,NA,NA
"experimental",24,1,"hd","upper","inforl","nw","nw","h","h",1,0.678778379500727,NA,NA,NA
"experimental",24,2,"hd","upper","skiing","w","w","g","g",1,0.730273376859259,NA,NA,NA
"experimental",24,3,"hd","upper","arrigns","nw","nw","h","h",1,1.01960261861677,NA,NA,NA
"experimental",24,4,"hd","upper","sonkers","nw","nw","h","h",1,0.873060663900105,NA,NA,NA
"experimental",24,5,"hd","upper","halents","nw","nw","h","h",1,0.876458768907469,NA,NA,NA
"experimental",24,6,"hd","upper","overcoat","w","w","g","g",1,0.655879905825714,NA,NA,NA
"experimental",24,7,"hd","upper","ascending","w","w","g","g",1,0.9479540510074,NA,NA,NA
"experimental",24,8,"hd","upper","crudios","nw","nw","h","g",0,1.97973282191379,NA,NA,NA
"experimental",24,9,"hd","upper","planar","w","w","g","g",1,1.46722449136723,NA,NA,NA
"experimental",24,10,"hd","upper","spaceship","w","w","g","g",1,0.622578542854171,NA,NA,NA
"experimental",24,11,"hd","upper","peahem","nw","nw","h","h",1,0.740041273456882,NA,NA,NA
"experimental",24,12,"hd","upper","trecious","nw","nw","h","g",0,1.77306751706055,NA,NA,NA
"experimental",24,13,"hd","upper","ladybug","target","target","q","g",0,0.684413857248728,NA,NA,NA
"experimental",24,14,"hd","upper","restock","aftertar1","w","g","g",1,4.19802796244039,NA,NA,NA
"experimental",24,15,"hd","upper","fetching","aftertar2","w","g","g",1,0.596753408201039,NA,NA,NA
"experimental",24,16,"hd","upper","racile","aftertar3","nw","h","h",1,1.2035306810285,NA,NA,NA
"experimental",24,17,"hd","upper","puyer","nw","nw","h","h",1,0.785924299052567,NA,NA,NA
"experimental",24,18,"hd","upper","gumdrep","nw","nw","h","h",1,0.60835907573346,NA,NA,NA
"experimental",24,19,"hd","upper","sludding","nw","nw","h","g",0,0.614446133287856,NA,NA,NA
"experimental",24,20,"hd","upper","staircase","nw","w","g","g",1,0.636494418577058,NA,NA,NA
"experimental",24,21,"hd","upper","brank","w","nw","h","g",0,0.473284732244792,NA,NA,NA
"experimental",24,22,"hd","upper","stranded","nw","w","g","g",1,0.491765073456918,NA,NA,NA
"experimental",24,23,"hd","upper","potent","w","w","g","g",1,0.926466929799062,NA,NA,NA
"experimental",24,24,"hd","upper","pegend","w","nw","h","h",1,0.847881778376177,NA,NA,NA
"experimental",24,25,"hd","upper","rational","nw","w","g","g",1,0.580641874606954,NA,NA,NA
"experimental",24,26,"hd","upper","laser","w","w","g","g",1,0.588052551014698,NA,NA,NA
"experimental",24,27,"hd","upper","stalemate","w","w","g","g",1,1.78683772186923,NA,NA,NA
"experimental",24,28,"hd","upper","nauling","w","nw","h","h",1,0.713601010269485,NA,NA,NA
"experimental",24,29,"hd","upper","demise","nw","w","g","h",0,0.507696504835621,NA,NA,NA
"experimental",24,30,"hd","upper","aggepting","w","nw","h","h",1,1.42952088730817,NA,NA,NA
"experimental",25,1,"hd","upper","cogantly","nw","nw","h","h",1,0.859158362058224,NA,NA,NA
"experimental",25,2,"hd","upper","regiment","w","w","g","g",1,0.607208937683026,NA,NA,NA
"experimental",25,3,"hd","upper","slowning","nw","nw","h","g",0,1.20532210213423,NA,NA,NA
"experimental",25,4,"hd","upper","felevance","nw","nw","h","g",0,0.619260887906421,NA,NA,NA
"experimental",25,5,"hd","upper","bookend","w","w","g","h",0,1.20774421206443,NA,NA,NA
"experimental",25,6,"hd","upper","explosion","w","w","g","g",1,0.60581645622733,NA,NA,NA
"experimental",25,7,"hd","upper","fracture","w","w","g","g",1,0.963826882943977,NA,NA,NA
"experimental",25,8,"hd","upper","moyeur","nw","nw","h","h",1,0.604007488378556,NA,NA,NA
"experimental",25,9,"hd","upper","supplier","w","w","g","g",1,1.16977707608021,NA,NA,NA
"experimental",25,10,"hd","upper","goblet","w","w","g","g",1,2.72835118301737,NA,NA,NA
"experimental",25,11,"hd","upper","lecked","nw","nw","h","h",1,8.61839977419004,NA,NA,NA
"experimental",25,12,"hd","upper","scabry","nw","nw","h","h",1,0.783911723017809,NA,NA,NA
"experimental",25,13,"hd","upper","catacomb","w","w","g","h",0,0.990589939625352,NA,NA,NA
"experimental",25,14,"hd","upper","rantho","nw","nw","h","h",1,0.605369842465734,NA,NA,NA
"experimental",25,15,"hd","upper","brials","nw","nw","h","g",0,0.715436132653849,NA,NA,NA
"experimental",25,16,"hd","upper","acoustic","w","w","g","g",1,0.949534249288263,NA,NA,NA
"experimental",25,17,"hd","upper","paranoid","w","w","g","g",1,0.557161710516084,NA,NA,NA
"experimental",25,18,"hd","upper","ragtam","nw","nw","h","h",1,0.693294154509204,NA,NA,NA
"experimental",25,19,"hd","upper","rarren","nw","nw","h","h",1,1.20805210739491,NA,NA,NA
"experimental",25,20,"hd","upper","entitle","w","w","g","g",1,0.566148612371762,NA,NA,NA
"experimental",25,21,"hd","upper","blueberry","w","w","g","g",1,0.438207508457708,NA,NA,NA
"experimental",25,22,"hd","upper","sunhess","nw","nw","h","h",1,0.970954494303442,NA,NA,NA
"experimental",25,23,"hd","upper","allained","nw","nw","h","h",1,1.25061814018409,NA,NA,NA
"experimental",25,24,"hd","upper","enabled","w","w","g","g",1,0.701462319644634,NA,NA,NA
"experimental",25,25,"hd","upper","ezulated","nw","nw","h","h",1,4.58362978359219,NA,NA,NA
"experimental",25,26,"hd","upper","chicken","target","target","q","g",0,0.479005295041134,NA,NA,NA
"experimental",25,27,"hd","upper","crundle","aftertar1","nw","h","g",0,0.834492304347805,NA,NA,NA
"experimental",25,28,"hd","upper","burrowing","aftertar2","w","g","g",1,1.2791676518973,NA,NA,NA
"experimental",25,29,"hd","upper","seasoning","aftertar3","w","g","g",1,0.57127457302704,NA,NA,NA
"experimental",25,30,"hd","upper","ufionize","w","nw","h","h",1,0.90686790223117,NA,NA,NA
"experimental",26,1,"ld","lower","troven","nw","nw","h","g",0,1.36483505806245,NA,NA,NA
"experimental",26,2,"ld","lower","balign","nw","nw","h","h",1,0.844949158112286,NA,NA,NA
"experimental",26,3,"ld","lower","vibrate","w","w","g","g",1,0.753686002630275,NA,NA,NA
"experimental",26,4,"ld","lower","glates","nw","nw","h","g",0,0.537763973639812,NA,NA,NA
"experimental",26,5,"ld","lower","parent","w","w","g","g",1,0.457606569601921,NA,NA,NA
"experimental",26,6,"ld","lower","prame","nw","nw","h","g",0,0.405551401374396,NA,NA,NA
"experimental",26,7,"ld","lower","monopoly","w","w","g","g",1,0.763630028566695,NA,NA,NA
"experimental",26,8,"ld","lower","attrove","nw","nw","h","g",0,0.939683254080592,NA,NA,NA
"experimental",26,9,"ld","lower","brighten","w","w","g","g",1,0.540380752878264,NA,NA,NA
"experimental",26,10,"ld","lower","scack","nw","nw","h","g",0,0.461054666229757,NA,NA,NA
"experimental",26,11,"ld","lower","triplet","w","w","g","g",1,0.593053698175936,NA,NA,NA
"experimental",26,12,"ld","lower","boulder","w","w","g","g",1,0.6238273398194,NA,NA,NA
"experimental",26,13,"ld","lower","wimpid","nw","nw","h","h",1,0.653227371018147,NA,NA,NA
"experimental",26,14,"ld","lower","clume","nw","nw","h","h",1,0.801294566364959,NA,NA,NA
"experimental",26,15,"ld","lower","hatred","w","w","g","g",1,3.94253244462016,NA,NA,NA
"experimental",26,16,"ld","lower","drobate","nw","nw","h","h",1,1.12716038954386,NA,NA,NA
"experimental",26,17,"ld","lower","topefuls","nw","nw","h","h",1,0.62463217160257,NA,NA,NA
"experimental",26,18,"ld","lower","atabaster","nw","nw","h","g",0,0.917430036322912,NA,NA,NA
"experimental",26,19,"ld","lower","pigned","nw","nw","h","g",0,0.928234844919643,NA,NA,NA
"experimental",26,20,"ld","lower","comment","w","w","g","g",1,0.577556962045492,NA,NA,NA
"experimental",26,21,"ld","lower","blocking","w","w","g","g",1,0.504931075061904,NA,NA,NA
"experimental",26,22,"ld","lower","halter","w","w","g","g",1,0.489980604819721,NA,NA,NA
"experimental",26,23,"ld","lower","bellicove","nw","nw","h","h",1,0.644758263006224,NA,NA,NA
"experimental",26,24,"ld","lower","hostade","nw","nw","h","g",0,0.969514338721638,NA,NA,NA
"experimental",26,25,"ld","lower","micron","w","w","g","g",1,1.89697088825051,NA,NA,NA
"experimental",26,26,"ld","lower","triangle","w","w","g","g",1,0.595729407927138,NA,NA,NA
"experimental",26,27,"ld","lower","pregs","nw","nw","h","h",1,1.40272770324373,NA,NA,NA
"experimental",26,28,"ld","lower","optional","w","w","g","g",1,0.560562795159058,NA,NA,NA
"experimental",26,29,"ld","lower","happen","w","w","g","g",1,0.50465065856406,NA,NA,NA
"experimental",26,30,"ld","lower","overflow","w","w","g","g",1,3.05785910999111,NA,NA,NA
"experimental",27,1,"hd","upper","consonant","w","w","g","h",0,1.55894452378561,NA,NA,NA
"experimental",27,2,"hd","upper","antique","w","w","g","g",1,0.583081862321706,NA,NA,NA
"experimental",27,3,"hd","upper","stagger","w","w","g","g",1,0.501370414553094,NA,NA,NA
"experimental",27,4,"hd","upper","movie","w","w","g","g",1,0.783372409583535,NA,NA,NA
"experimental",27,5,"hd","upper","sponto","nw","nw","h","g",0,0.574824970346526,NA,NA,NA
"experimental",27,6,"hd","upper","ugifies","nw","nw","h","h",1,0.79819111386314,NA,NA,NA
"experimental",27,7,"hd","upper","condensed","w","w","g","g",1,0.660907538607717,NA,NA,NA
"experimental",27,8,"hd","upper","gremieres","nw","nw","h","h",1,0.801090958149871,NA,NA,NA
"experimental",27,9,"hd","upper","series","w","w","g","g",1,0.615772731776815,NA,NA,NA
"experimental",27,10,"hd","upper","chesume","nw","nw","h","h",1,0.645852781250142,NA,NA,NA
"experimental",27,11,"hd","upper","joses","nw","nw","h","h",1,1.04262723005377,NA,NA,NA
"experimental",27,12,"hd","upper","cegalia","nw","nw","h","h",1,1.00637404473673,NA,NA,NA
"experimental",27,13,"hd","upper","trewl","nw","nw","h","h",1,0.708508487718063,NA,NA,NA
"experimental",27,14,"hd","upper","prawls","nw","nw","h","g",0,0.654578799760202,NA,NA,NA
"experimental",27,15,"hd","upper","truthful","w","w","g","g",1,0.634656647627708,NA,NA,NA
"experimental",27,16,"hd","upper","mixture","w","w","g","g",1,0.463417183520505,NA,NA,NA
"experimental",27,17,"hd","upper","guffy","nw","nw","h","g",0,0.843489138322184,NA,NA,NA
"experimental",27,18,"hd","upper","sweeping","w","w","g","g",1,0.832257249116083,NA,NA,NA
"experimental",27,19,"hd","upper","ergonomic","w","w","g","h",0,1.00564469698293,NA,NA,NA
"experimental",27,20,"hd","upper","cabinet","w","w","g","g",1,0.715789715672145,NA,NA,NA
"experimental",27,21,"hd","upper","amkles","nw","nw","h","h",1,0.900980480000726,NA,NA,NA
"experimental",27,22,"hd","upper","warden","w","w","g","g",1,5.36723465521936,NA,NA,NA
"experimental",27,23,"hd","upper","squirrel","target","target","q","g",0,0.57448926512734,NA,NA,NA
"experimental",27,24,"hd","upper","inversion","aftertar1","w","g","g",1,0.509898453048663,NA,NA,NA
"experimental",27,25,"hd","upper","endgume","aftertar2","nw","h","h",1,0.583988332669833,NA,NA,NA
"experimental",27,26,"hd","upper","plartly","aftertar3","nw","h","h",1,0.781749503221363,NA,NA,NA
"experimental",27,27,"hd","upper","dricked","nw","nw","h","g",0,1.34929097887652,NA,NA,NA
"experimental",27,28,"hd","upper","breiled","nw","nw","h","h",1,1.51787559066724,NA,NA,NA
"experimental",27,29,"hd","upper","permute","nw","w","g","g",1,1.07130089310522,NA,NA,NA
"experimental",27,30,"hd","upper","criminal","w","w","g","g",1,0.610705370563664,NA,NA,NA
"experimental",28,1,"ld","lower","gettle","nw","nw","h","h",1,0.928878114413237,NA,NA,NA
"experimental",28,2,"ld","lower","threaded","w","w","g","g",1,0.626244152634172,NA,NA,NA
"experimental",28,3,"ld","lower","carbled","nw","nw","h","h",1,0.911682987905806,NA,NA,NA
"experimental",28,4,"ld","lower","telecast","w","w","g","g",1,0.961751072492916,NA,NA,NA
"experimental",28,5,"ld","lower","presence","w","w","g","g",1,0.561879461529315,NA,NA,NA
"experimental",28,6,"ld","lower","atch","nw","nw","h","g",0,0.633923327011871,NA,NA,NA
"experimental",28,7,"ld","lower","hanling","nw","nw","h","h",1,0.902756671886891,NA,NA,NA
"experimental",28,8,"ld","lower","grefab","nw","nw","h","h",1,1.35284601119929,NA,NA,NA
"experimental",28,9,"ld","lower","lenie","nw","nw","h","h",1,0.783854778928799,NA,NA,NA
"experimental",28,10,"ld","lower","hegacy","nw","nw","h","g",0,0.758615638609626,NA,NA,NA
"experimental",28,11,"ld","lower","asthmatic","w","w","g","h",0,2.48675366312091,NA,NA,NA
"experimental",28,12,"ld","lower","goltish","nw","nw","h","h",1,0.9135462512495,NA,NA,NA
"experimental",28,13,"ld","lower","adok","nw","nw","h","h",1,0.659594182943692,NA,NA,NA
"experimental",28,14,"ld","lower","handle","w","w","g","g",1,0.495682296619634,NA,NA,NA
"experimental",28,15,"ld","lower","oldest","w","w","g","g",1,0.466390856483486,NA,NA,NA
"experimental",28,16,"ld","lower","lovud","nw","nw","h","h",1,0.958436066110153,NA,NA,NA
"experimental",28,17,"ld","lower","infancy","w","w","g","g",1,0.981506696305587,NA,NA,NA
"experimental",28,18,"ld","lower","repayment","w","w","g","g",1,0.484824847851996,NA,NA,NA
"experimental",28,19,"ld","lower","pracking","nw","nw","h","g",0,0.423591750237392,NA,NA,NA
"experimental",28,20,"ld","lower","nature","w","w","g","g",1,0.453055015852442,NA,NA,NA
"experimental",28,21,"ld","lower","prominent","w","w","g","g",1,0.769110896522761,NA,NA,NA
"experimental",28,22,"ld","lower","index","w","w","g","g",1,3.6005689927988,NA,NA,NA
"experimental",28,23,"ld","lower","ensues","w","w","g","g",1,0.718313464167295,NA,NA,NA
"experimental",28,24,"ld","lower","decantel","nw","nw","h","h",1,0.70429760524712,NA,NA,NA
"experimental",28,25,"ld","lower","calcify","w","w","g","h",0,0.673787495528813,NA,NA,NA
"experimental",28,26,"ld","lower","grieving","w","w","g","g",1,0.669269048783462,NA,NA,NA
"experimental",28,27,"ld","lower","tragedy","w","w","g","g",1,0.560715749612427,NA,NA,NA
"experimental",28,28,"ld","lower","chone","nw","nw","h","g",0,0.504812882980332,NA,NA,NA
"experimental",28,29,"ld","lower","hodels","nw","nw","h","h",1,0.722912029916188,NA,NA,NA
"experimental",28,30,"ld","lower","reses","nw","nw","h","h",1,0.708289319227333,NA,NA,NA
"experimental",29,1,"hd","upper","intersect","w","w","g","g",1,4.35061294237676,NA,NA,NA
"experimental",29,2,"hd","upper","surfaced","w","w","g","g",1,0.590617021167418,NA,NA,NA
"experimental",29,3,"hd","upper","trake","nw","nw","h","g",0,0.389325317475596,NA,NA,NA
"experimental",29,4,"hd","upper","traze","nw","nw","h","g",0,0.708090346000972,NA,NA,NA
"experimental",29,5,"hd","upper","rangel","nw","nw","h","h",1,0.48612396750832,NA,NA,NA
"experimental",29,6,"hd","upper","pived","nw","nw","h","h",1,0.632905948150437,NA,NA,NA
"experimental",29,7,"hd","upper","legalize","w","w","g","g",1,0.981231907993788,NA,NA,NA
"experimental",29,8,"hd","upper","fivalve","nw","nw","h","h",1,1.6366526701313,NA,NA,NA
"experimental",29,9,"hd","upper","sustain","w","w","g","g",1,0.577374211265123,NA,NA,NA
"experimental",29,10,"hd","upper","attended","w","w","g","g",1,0.520806555563468,NA,NA,NA
"experimental",29,11,"hd","upper","mandate","w","w","g","g",1,0.954208630122594,NA,NA,NA
"experimental",29,12,"hd","upper","gymnasium","w","w","g","g",1,0.706242974018096,NA,NA,NA
"experimental",29,13,"hd","upper","metebing","nw","nw","h","h",1,1.25234202295542,NA,NA,NA
"experimental",29,14,"hd","upper","collision","w","w","g","g",1,0.663899089369806,NA,NA,NA
"experimental",29,15,"hd","upper","roodies","nw","nw","h","h",1,0.748203479321091,NA,NA,NA
"experimental",29,16,"hd","upper","rejoiced","w","w","g","g",1,0.700987895994331,NA,NA,NA
"experimental",29,17,"hd","upper","nimono","nw","nw","h","h",1,1.04711687366944,NA,NA,NA
"experimental",29,18,"hd","upper","thaken","nw","nw","h","h",1,0.923924641363556,NA,NA,NA
"experimental",29,19,"hd","upper","slutches","nw","nw","h","q",0,1.717322239856,NA,NA,NA
"experimental",29,20,"hd","upper","minimum","w","w","g","g",1,0.710724009826663,NA,NA,NA
"experimental",29,21,"hd","upper","snife","nw","nw","h","g",0,1.44079945742851,NA,NA,NA
"experimental",29,22,"hd","upper","listless","w","w","g","g",1,0.828668116548215,NA,NA,NA
"experimental",29,23,"hd","upper","turntable","w","w","g","h",0,1.17797470647201,NA,NA,NA
"experimental",29,24,"hd","upper","aicline","nw","nw","h","h",1,0.93740449755569,NA,NA,NA
"experimental",29,25,"hd","upper","causality","w","w","g","g",1,0.682207936202758,NA,NA,NA
"experimental",29,26,"hd","upper","plogging","nw","nw","h","g",0,0.661545842056512,NA,NA,NA
"experimental",29,27,"hd","upper","shillac","nw","nw","h","h",1,0.665754407033091,NA,NA,NA
"experimental",29,28,"hd","upper","heaviest","w","w","g","g",1,0.821703722831444,NA,NA,NA
"experimental",29,29,"hd","upper","clattest","nw","nw","h","h",1,3.02724868597579,NA,NA,NA
"experimental",29,30,"hd","upper","rawhide","w","w","g","h",0,0.631593916754355,NA,NA,NA
"experimental",30,1,"ld","lower","column","w","w","g","g",1,0.81376830006775,NA,NA,NA
"experimental",30,2,"ld","lower","ifkling","nw","nw","h","h",1,0.62785679580702,NA,NA,NA
"experimental",30,3,"ld","lower","gallon","w","w","g","g",1,0.641165488690604,NA,NA,NA
"experimental",30,4,"ld","lower","picnic","w","w","g","g",1,0.470060770167038,NA,NA,NA
"experimental",30,5,"ld","lower","godomy","nw","nw","h","h",1,1.29653327958658,NA,NA,NA
"experimental",30,6,"ld","lower","ecistle","nw","nw","h","h",1,0.779248929640744,NA,NA,NA
"experimental",30,7,"ld","lower","gairs","nw","nw","h","h",1,0.770707317264169,NA,NA,NA
"experimental",30,8,"ld","lower","remain","w","w","g","g",1,0.586070764518809,NA,NA,NA
"experimental",30,9,"ld","lower","detrabe","nw","nw","h","h",1,0.8648481353448,NA,NA,NA
"experimental",30,10,"ld","lower","failure","w","w","g","g",1,0.58892558325897,NA,NA,NA
"experimental",30,11,"ld","lower","mortgage","w","w","g","h",0,1.46067989472067,NA,NA,NA
"experimental",30,12,"ld","lower","cassette","w","w","g","g",1,0.855790715519106,NA,NA,NA
"experimental",30,13,"ld","lower","olgies","nw","nw","h","h",1,0.762810960790375,NA,NA,NA
"experimental",30,14,"ld","lower","jaguar","target","target","q","q",1,0.850982913383632,1,NA,NA
"experimental",30,15,"ld","lower","gewer","aftertar1","nw","h","h",1,1.25512168875139,NA,NA,NA
"experimental",30,16,"ld","lower","appain","aftertar2","nw","h","h",1,4.81134321050195,NA,NA,NA
"experimental",30,17,"ld","lower","define","aftertar3","w","g","g",1,0.545433215927915,NA,NA,NA
"experimental",30,18,"ld","lower","obviously","w","w","g","g",1,0.530084137106314,NA,NA,NA
"experimental",30,19,"ld","lower","jinds","w","nw","h","h",1,0.610537186890724,NA,NA,NA
"experimental",30,20,"ld","lower","medium","nw","w","g","g",1,0.520587055987562,NA,NA,NA
"experimental",30,21,"ld","lower","terming","w","w","g","g",1,1.12198178873223,NA,NA,NA
"experimental",30,22,"ld","lower","unwose","w","nw","h","h",1,0.723370893276297,NA,NA,NA
"experimental",30,23,"ld","lower","walsams","nw","nw","h","h",1,1.32478383487614,NA,NA,NA
"experimental",30,24,"ld","lower","bamboo","nw","w","g","g",1,0.510196416274994,NA,NA,NA
"experimental",30,25,"ld","lower","bengths","w","nw","h","h",1,0.808264588282327,NA,NA,NA
"experimental",30,26,"ld","lower","frose","nw","nw","h","g",0,0.622356394713279,NA,NA,NA
"experimental",30,27,"ld","lower","correct","nw","w","g","g",1,0.602201169123873,NA,NA,NA
"experimental",30,28,"ld","lower","priant","w","nw","h","h",1,0.801018122700043,NA,NA,NA
"experimental",30,29,"ld","lower","handed","nw","w","g","g",1,7.40790862153517,NA,NA,NA
"experimental",30,30,"ld","lower","serfume","w","nw","h","h",1,1.43104976970062,NA,NA,NA
"experimental",31,1,"ld","lower","arcients","nw","nw","h","g",0,1.05146978529228,NA,NA,NA
"experimental",31,2,"ld","lower","golemic","nw","nw","h","h",1,0.991566596843768,NA,NA,NA
"experimental",31,3,"ld","lower","mineluyer","nw","nw","h","h",1,0.606329946167534,NA,NA,NA
"experimental",31,4,"ld","lower","command","w","w","g","g",1,0.676374147369643,NA,NA,NA
"experimental",31,5,"ld","lower","elormity","nw","nw","h","h",1,1.96695251714846,NA,NA,NA
"experimental",31,6,"ld","lower","urgency","w","w","g","g",1,0.671020079331356,NA,NA,NA
"experimental",31,7,"ld","lower","living","w","w","g","g",1,0.522312594126561,NA,NA,NA
"experimental",31,8,"ld","lower","slending","nw","nw","h","g",0,0.643745188062894,NA,NA,NA
"experimental",31,9,"ld","lower","maintain","w","w","g","g",1,0.544417492405046,NA,NA,NA
"experimental",31,10,"ld","lower","cayward","nw","nw","h","h",1,11.6246811699966,NA,NA,NA
"experimental",31,11,"ld","lower","forgive","w","w","g","g",1,0.542032462341012,NA,NA,NA
"experimental",31,12,"ld","lower","sampling","w","w","g","g",1,0.630785443208879,NA,NA,NA
"experimental",31,13,"ld","lower","graveyard","w","w","g","g",1,0.884305795931141,NA,NA,NA
"experimental",31,14,"ld","lower","miracle","w","w","g","g",1,0.439013995579444,NA,NA,NA
"experimental",31,15,"ld","lower","unlined","w","w","g","g",1,0.499838552510482,NA,NA,NA
"experimental",31,16,"ld","lower","metrol","nw","nw","h","g",0,0.382499973260565,NA,NA,NA
"experimental",31,17,"ld","lower","cheathe","nw","nw","h","g",0,0.685879505239427,NA,NA,NA
"experimental",31,18,"ld","lower","intercede","w","w","g","g",1,0.759689961574622,NA,NA,NA
"experimental",31,19,"ld","lower","unmarked","w","w","g","g",1,0.559626197442412,NA,NA,NA
"experimental",31,20,"ld","lower","welayed","nw","nw","h","h",1,1.00774964161974,NA,NA,NA
"experimental",31,21,"ld","lower","potter","w","w","g","g",1,0.766006450823625,NA,NA,NA
"experimental",31,22,"ld","lower","tycoon","w","w","g","g",1,0.781929605436744,NA,NA,NA
"experimental",31,23,"ld","lower","contund","nw","nw","h","h",1,1.06940650915203,NA,NA,NA
"experimental",31,24,"ld","lower","heuls","nw","nw","h","h",1,0.704783616369241,NA,NA,NA
"experimental",31,25,"ld","lower","redefloy","nw","nw","h","h",1,0.65099198470125,NA,NA,NA
"experimental",31,26,"ld","lower","artifact","w","w","g","g",1,0.774275923453388,NA,NA,NA
"experimental",31,27,"ld","lower","levels","w","w","g","g",1,0.580675643766881,NA,NA,NA
"experimental",31,28,"ld","lower","dredigest","nw","nw","h","h",1,0.804095089566545,NA,NA,NA
"experimental",31,29,"ld","lower","currowing","nw","nw","h","h",1,1.48219350153522,NA,NA,NA
"experimental",31,30,"ld","lower","ottans","nw","nw","h","h",1,0.741532413841924,NA,NA,NA
"experimental",32,1,"ld","lower","plashed","nw","nw","h","h",1,0.879138451506151,NA,NA,NA
"experimental",32,2,"ld","lower","contain","w","w","g","g",1,0.513045937899733,NA,NA,NA
"experimental",32,3,"ld","lower","gradielts","nw","nw","h","g",0,0.571428189621656,NA,NA,NA
"experimental",32,4,"ld","lower","mubby","nw","nw","h","h",1,1.1070683983562,NA,NA,NA
"experimental",32,5,"ld","lower","fatho","nw","nw","h","h",1,0.709208370230044,NA,NA,NA
"experimental",32,6,"ld","lower","dentures","w","w","g","h",0,0.607283759556594,NA,NA,NA
"experimental",32,7,"ld","lower","ghists","nw","nw","h","h",1,0.685385879507521,NA,NA,NA
"experimental",32,8,"ld","lower","slooping","nw","nw","h","g",0,1.27147589683591,NA,NA,NA
"experimental",32,9,"ld","lower","duplex","w","w","g","g",1,0.818901875318261,NA,NA,NA
"experimental",32,10,"ld","lower","dorth","nw","nw","h","g",0,0.910649055513204,NA,NA,NA
"experimental",32,11,"ld","lower","tucker","w","w","g","h",0,1.14474220610282,NA,NA,NA
"experimental",32,12,"ld","lower","coupling","w","w","g","g",1,0.953475640591932,NA,NA,NA
"experimental",32,13,"ld","lower","sequence","w","w","g","g",1,1.69767586923263,NA,NA,NA
"experimental",32,14,"ld","lower","figure","w","w","g","g",1,4.42856972246955,NA,NA,NA
"experimental",32,15,"ld","lower","preclude","w","w","g","g",1,0.657925919964327,NA,NA,NA
"experimental",32,16,"ld","lower","smolvers","nw","nw","h","g",0,0.589038147154497,NA,NA,NA
"experimental",32,17,"ld","lower","greakable","nw","nw","h","h",1,1.40378216198587,NA,NA,NA
"experimental",32,18,"ld","lower","schinter","nw","nw","h","h",1,0.633903462803573,NA,NA,NA
"experimental",32,19,"ld","lower","shests","nw","nw","h","h",1,0.742623621365055,NA,NA,NA
"experimental",32,20,"ld","lower","minister","w","w","g","g",1,0.711302720606909,NA,NA,NA
"experimental",32,21,"ld","lower","rewrite","w","w","g","g",1,0.569404688270879,NA,NA,NA
"experimental",32,22,"ld","lower","hivinity","nw","nw","h","h",1,9.22417423523439,NA,NA,NA
"experimental",32,23,"ld","lower","thacked","nw","nw","h","g",0,0.821544478050782,NA,NA,NA
"experimental",32,24,"ld","lower","defeat","w","w","g","g",1,0.554970025477814,NA,NA,NA
"experimental",32,25,"ld","lower","shimble","nw","nw","h","h",1,0.70712626943714,NA,NA,NA
"experimental",32,26,"ld","lower","mullet","w","w","g","g",1,0.812377142894547,NA,NA,NA
"experimental",32,27,"ld","lower","buttress","w","w","g","g",1,1.7073252426635,NA,NA,NA
"experimental",32,28,"ld","lower","bickering","w","w","g","h",0,0.828347309477977,NA,NA,NA
"experimental",32,29,"ld","lower","splinging","nw","nw","h","h",1,2.05787169066025,NA,NA,NA
"experimental",32,30,"ld","lower","infested","w","w","g","g",1,0.621949178312207,NA,NA,NA
"experimental",33,1,"hd","upper","mopping","w","w","g","g",1,0.87550098268548,NA,NA,NA
"experimental",33,2,"hd","upper","otoist","nw","nw","h","h",1,0.566016515338561,NA,NA,NA
"experimental",33,3,"hd","upper","olerates","nw","nw","h","h",1,2.34303805511445,NA,NA,NA
"experimental",33,4,"hd","upper","mystery","w","w","g","g",1,0.598832529343781,NA,NA,NA
"experimental",33,5,"hd","upper","kettle","w","w","g","g",1,0.581456969550345,NA,NA,NA
"experimental",33,6,"hd","upper","perishing","w","w","g","g",1,0.660863837329089,NA,NA,NA
"experimental",33,7,"hd","upper","senior","w","w","g","g",1,0.440902089205338,NA,NA,NA
"experimental",33,8,"hd","upper","analysis","w","w","g","g",1,0.477689952953369,NA,NA,NA
"experimental",33,9,"hd","upper","religious","w","w","g","g",1,0.42509845092718,NA,NA,NA
"experimental",33,10,"hd","upper","odacles","nw","nw","h","h",1,1.22143396679894,NA,NA,NA
"experimental",33,11,"hd","upper","distrust","w","w","g","g",1,0.65781732891628,NA,NA,NA
"experimental",33,12,"hd","upper","brimitive","nw","nw","h","h",1,4.73481599173101,NA,NA,NA
"experimental",33,13,"hd","upper","togglo","nw","nw","h","h",1,0.623124808756984,NA,NA,NA
"experimental",33,14,"hd","upper","realize","w","w","g","g",1,0.964553913217969,NA,NA,NA
"experimental",33,15,"hd","upper","graiking","nw","nw","h","h",1,0.668614522903226,NA,NA,NA
"experimental",33,16,"hd","upper","admire","w","w","g","g",1,0.527088944581919,NA,NA,NA
"experimental",33,17,"hd","upper","fabstand","nw","nw","h","h",1,1.15248958097072,NA,NA,NA
"experimental",33,18,"hd","upper","harfing","nw","nw","h","h",1,0.824532387021463,NA,NA,NA
"experimental",33,19,"hd","upper","padicals","nw","nw","h","h",1,1.39800233760616,NA,NA,NA
"experimental",33,20,"hd","upper","pressures","w","w","g","g",1,0.612718939824845,NA,NA,NA
"experimental",33,21,"hd","upper","etber","nw","nw","h","g",0,0.466858658735873,NA,NA,NA
"experimental",33,22,"hd","upper","gund","nw","nw","h","h",1,0.806932361607323,NA,NA,NA
"experimental",33,23,"hd","upper","crimb","nw","nw","h","g",0,0.748995730435126,NA,NA,NA
"experimental",33,24,"hd","upper","relaying","w","w","g","g",1,0.597689012720366,NA,NA,NA
"experimental",33,25,"hd","upper","tablet","w","w","g","g",1,0.563427877088543,NA,NA,NA
"experimental",33,26,"hd","upper","neliefs","nw","nw","h","h",1,0.763509850075934,NA,NA,NA
"experimental",33,27,"hd","upper","flamingo","target","target","q","g",0,0.715699995635077,NA,NA,NA
"experimental",33,28,"hd","upper","unversed","aftertar1","w","g","g",1,2.49376804845815,NA,NA,NA
"experimental",33,29,"hd","upper","dounger","aftertar2","nw","h","h",1,1.0404242886143,NA,NA,NA
"experimental",33,30,"hd","upper","lofty","aftertar3","w","g","g",1,0.757229116410599,NA,NA,NA
"experimental",34,1,"hd","upper","splatter","w","w","g","g",1,0.844867052699556,NA,NA,NA
"experimental",34,2,"hd","upper","acroad","nw","nw","h","h",1,1.01790522146621,NA,NA,NA
"experimental",34,3,"hd","upper","static","w","w","g","g",1,0.623368807529914,NA,NA,NA
"experimental",34,4,"hd","upper","remade","w","w","g","g",1,1.18873018560407,NA,NA,NA
"experimental",34,5,"hd","upper","encounter","w","w","g","g",1,0.539534206254757,NA,NA,NA
"experimental",34,6,"hd","upper","charcoal","w","w","g","g",1,0.660355313448235,NA,NA,NA
"experimental",34,7,"hd","upper","rationale","w","w","g","g",1,0.543406734941527,NA,NA,NA
"experimental",34,8,"hd","upper","dontrite","nw","nw","h","h",1,0.864130706118885,NA,NA,NA
"experimental",34,9,"hd","upper","otiates","nw","nw","h","h",1,7.90058683748066,NA,NA,NA
"experimental",34,10,"hd","upper","neuran","nw","nw","h","h",1,1.05461958762316,NA,NA,NA
"experimental",34,11,"hd","upper","party","w","w","g","g",1,0.562693563275388,NA,NA,NA
"experimental",34,12,"hd","upper","dominion","w","w","g","g",1,0.497725662193261,NA,NA,NA
"experimental",34,13,"hd","upper","mounting","w","w","g","g",1,0.588464402404497,NA,NA,NA
"experimental",34,14,"hd","upper","fraft","nw","nw","h","h",1,0.73121527172043,NA,NA,NA
"experimental",34,15,"hd","upper","vinegar","w","w","g","g",1,0.564618074626196,NA,NA,NA
"experimental",34,16,"hd","upper","puggers","nw","nw","h","h",1,1.05273348040646,NA,NA,NA
"experimental",34,17,"hd","upper","fuestion","nw","nw","h","h",1,1.0169947782706,NA,NA,NA
"experimental",34,18,"hd","upper","spider","target","target","q","g",0,0.582849119935418,NA,NA,NA
"experimental",34,19,"hd","upper","attract","aftertar1","w","g","g",1,0.558271457979572,NA,NA,NA
"experimental",34,20,"hd","upper","addma","aftertar2","nw","h","g",0,0.486292151195812,NA,NA,NA
"experimental",34,21,"hd","upper","ilcurring","aftertar3","nw","h","h",1,0.920002452156041,NA,NA,NA
"experimental",34,22,"hd","upper","chrayed","nw","nw","h","h",1,0.657457124485518,NA,NA,NA
"experimental",34,23,"hd","upper","airbis","nw","nw","h","h",1,1.16524869723071,NA,NA,NA
"experimental",34,24,"hd","upper","rudder","nw","w","g","g",1,0.605616158718476,NA,NA,NA
"experimental",34,25,"hd","upper","undue","w","w","g","g",1,0.76371345827647,NA,NA,NA
"experimental",34,26,"hd","upper","meteoroid","w","w","g","g",1,0.571793360097217,NA,NA,NA
"experimental",34,27,"hd","upper","plapping","w","nw","h","h",1,1.58731790614547,NA,NA,NA
"experimental",34,28,"hd","upper","iflaid","nw","nw","h","h",1,0.794045783288311,NA,NA,NA
"experimental",34,29,"hd","upper","enacted","nw","w","g","g",1,0.735786689692759,NA,NA,NA
"experimental",34,30,"hd","upper","bureaug","w","nw","h","h",1,0.679860648146132,NA,NA,NA
"experimental",35,1,"hd","upper","holdup","w","w","g","g",1,0.644247421631007,NA,NA,NA
"experimental",35,2,"hd","upper","brongs","nw","nw","h","h",1,0.657044942039647,NA,NA,NA
"experimental",35,3,"hd","upper","sliding","w","w","g","g",1,0.517212788035977,NA,NA,NA
"experimental",35,4,"hd","upper","eyesight","w","w","g","g",1,0.501482647348894,NA,NA,NA
"experimental",35,5,"hd","upper","turning","w","w","g","g",1,0.4715287356521,NA,NA,NA
"experimental",35,6,"hd","upper","vivid","w","w","g","g",1,1.13896668564121,NA,NA,NA
"experimental",35,7,"hd","upper","bamps","nw","nw","h","h",1,0.659763690899126,NA,NA,NA
"experimental",35,8,"hd","upper","markot","nw","nw","h","h",1,0.631777660761145,NA,NA,NA
"experimental",35,9,"hd","upper","castaway","w","w","g","g",1,1.37325748516014,NA,NA,NA
"experimental",35,10,"hd","upper","handcuff","w","w","g","g",1,5.66777823945449,NA,NA,NA
"experimental",35,11,"hd","upper","wienegs","nw","nw","h","h",1,0.727139465903747,NA,NA,NA
"experimental",35,12,"hd","upper","thamp","nw","nw","h","h",1,0.678305942259612,NA,NA,NA
"experimental",35,13,"hd","upper","subber","nw","nw","h","g",0,0.644010044255992,NA,NA,NA
"experimental",35,14,"hd","upper","phonology","w","w","g","g",1,0.60071300835989,NA,NA,NA
"experimental",35,15,"hd","upper","carony","nw","nw","h","g",0,1.59156520634133,NA,NA,NA
"experimental",35,16,"hd","upper","glamorous","w","w","g","g",1,0.630310688473401,NA,NA,NA
"experimental",35,17,"hd","upper","frogmy","nw","nw","h","h",1,0.627717415234656,NA,NA,NA
"experimental",35,18,"hd","upper","tredits","nw","nw","h","h",1,0.657166113742278,NA,NA,NA
"experimental",35,19,"hd","upper","forfeit","w","w","g","g",1,0.980220488389023,NA,NA,NA
"experimental",35,20,"hd","upper","reprint","w","w","g","g",1,0.595625120797195,NA,NA,NA
"experimental",35,21,"hd","upper","infusion","w","w","g","g",1,0.546362861176021,NA,NA,NA
"experimental",35,22,"hd","upper","coyote","target","target","q","h",0,0.627127116982592,NA,NA,NA
"experimental",35,23,"hd","upper","melodic","aftertar1","w","g","g",1,0.816563195097842,NA,NA,NA
"experimental",35,24,"hd","upper","even","aftertar2","w","g","g",1,0.494587778390269,NA,NA,NA
"experimental",35,25,"hd","upper","portify","aftertar3","nw","h","g",0,0.521332957272534,NA,NA,NA
"experimental",35,26,"hd","upper","arranged","nw","w","g","g",1,0.554746221983805,NA,NA,NA
"experimental",35,27,"hd","upper","pripend","w","nw","h","h",1,0.570832925310242,NA,NA,NA
"experimental",35,28,"hd","upper","undimmec","nw","nw","h","h",1,0.601207296233042,NA,NA,NA
"experimental",35,29,"hd","upper","guivers","nw","nw","h","h",1,0.599321520101512,NA,NA,NA
"experimental",35,30,"hd","upper","paterways","nw","nw","h","h",1,1.43810156597465,NA,NA,NA
"experimental",36,1,"ld","lower","clypaper","nw","nw","h","h",1,0.883625446556835,NA,NA,NA
"experimental",36,2,"ld","lower","fassed","nw","nw","h","h",1,1.1500870041782,NA,NA,NA
"experimental",36,3,"ld","lower","illness","w","w","g","g",1,0.534785665688105,NA,NA,NA
"experimental",36,4,"ld","lower","epthuse","nw","nw","h","g",0,1.63890659638855,NA,NA,NA
"experimental",36,5,"ld","lower","antonym","w","w","g","g",1,0.731191103594028,NA,NA,NA
"experimental",36,6,"ld","lower","halms","nw","nw","h","h",1,0.73316428225371,NA,NA,NA
"experimental",36,7,"ld","lower","exemplify","w","w","g","g",1,0.629563131864415,NA,NA,NA
"experimental",36,8,"ld","lower","offonents","nw","nw","h","g",0,0.700024812642368,NA,NA,NA
"experimental",36,9,"ld","lower","seeming","w","w","g","g",1,0.542744925522129,NA,NA,NA
"experimental",36,10,"ld","lower","resume","w","w","g","g",1,0.583536421778263,NA,NA,NA
"experimental",36,11,"ld","lower","shivering","w","w","g","g",1,0.573892014392186,NA,NA,NA
"experimental",36,12,"ld","lower","egcused","nw","nw","h","g",0,0.453280474685016,NA,NA,NA
"experimental",36,13,"ld","lower","egect","nw","nw","h","g",0,1.83341831246798,NA,NA,NA
"experimental",36,14,"ld","lower","number","w","w","g","g",1,0.574786235141801,NA,NA,NA
"experimental",36,15,"ld","lower","slooch","nw","nw","h","h",1,0.854225415387191,NA,NA,NA
"experimental",36,16,"ld","lower","female","w","w","g","g",1,4.10641950067657,NA,NA,NA
"experimental",36,17,"ld","lower","unstatle","nw","nw","h","h",1,0.979525903007016,NA,NA,NA
"experimental",36,18,"ld","lower","unrealon","nw","nw","h","h",1,0.85893191001378,NA,NA,NA
"experimental",36,19,"ld","lower","audience","w","w","g","g",1,0.567207706102636,NA,NA,NA
"experimental",36,20,"ld","lower","shurk","nw","nw","h","g",0,0.606379275632207,NA,NA,NA
"experimental",36,21,"ld","lower","efficient","w","w","g","g",1,0.492460983121418,NA,NA,NA
"experimental",36,22,"ld","lower","walnut","w","w","g","g",1,1.35122078734275,NA,NA,NA
"experimental",36,23,"ld","lower","forgery","w","w","g","g",1,1.42267667206761,NA,NA,NA
"experimental",36,24,"ld","lower","downtrund","nw","nw","h","h",1,0.955958998514689,NA,NA,NA
"experimental",36,25,"ld","lower","coverall","w","w","g","g",1,0.603093734505819,NA,NA,NA
"experimental",36,26,"ld","lower","volume","w","w","g","g",1,0.472962931962684,NA,NA,NA
"experimental",36,27,"ld","lower","baseline","w","w","g","g",1,0.548293331783498,NA,NA,NA
"experimental",36,28,"ld","lower","draze","nw","nw","h","g",0,1.45324869193428,NA,NA,NA
"experimental",36,29,"ld","lower","chining","nw","nw","h","g",0,4.37663407060609,NA,NA,NA
"experimental",36,30,"ld","lower","drine","nw","nw","h","g",0,0.600156148197129,NA,NA,NA
"experimental",37,1,"hd","upper","derisury","nw","nw","h","h",1,0.774900321936002,NA,NA,NA
"experimental",37,2,"hd","upper","amidst","w","w","g","g",1,0.758315357903484,NA,NA,NA
"experimental",37,3,"hd","upper","roaned","nw","nw","h","g",0,1.88645841467951,NA,NA,NA
"experimental",37,4,"hd","upper","vorm","nw","nw","h","h",1,1.04927611383027,NA,NA,NA
"experimental",37,5,"hd","upper","purpose","w","w","g","g",1,0.589956867086585,NA,NA,NA
"experimental",37,6,"hd","upper","organize","w","w","g","g",1,0.451713188129361,NA,NA,NA
"experimental",37,7,"hd","upper","binder","w","w","g","g",1,0.647784576140111,NA,NA,NA
"experimental",37,8,"hd","upper","dests","nw","nw","h","g",0,0.356498047098285,NA,NA,NA
"experimental",37,9,"hd","upper","mennel","nw","nw","h","h",1,0.764568612721632,NA,NA,NA
