"procedure","block","trial","PMdemand","context","stim","role","word_type","correct_key","response","correct","reaction_time","pressedQ","pressedQ_blank","pressedQ_fix"
"LDTpractice",1,1,NA,"lower","overshoot","","w","g","g",1,0.393742154768915,NA,NA,NA
"LDTpractice",2,1,NA,"lower","julled","","nw","h","h",1,0.540683555859687,NA,NA,NA
"LDTpractice",3,1,NA,"lower","umpire","","w","g","g",1,0.391857047020494,NA,NA,NA
"LDTpractice",4,1,NA,"lower","sponsor","","w","g","h",0,0.444323892927969,NA,NA,NA
"LDTpractice",5,1,NA,"lower","alolition","","nw","h","h",1,0.698100315970805,NA,NA,NA
"LDTpractice",6,1,NA,"lower","curlecs","","nw","h","h",1,0.517695438262308,NA,NA,NA
"LDTpractice",7,1,NA,"lower","reputable","","w","g","g",1,0.504042477527037,NA,NA,NA
"LDTpractice",8,1,NA,"lower","grocus","","nw","h","h",1,0.537176540338805,NA,NA,NA
"LDTpractice",9,1,NA,"lower","hiring","","w","g","g",1,0.553978630841812,NA,NA,NA
"LDTpractice",10,1,NA,"lower","raestro","","nw","h","h",1,0.530155887913679,NA,NA,NA
"LDTpractice",11,1,NA,"lower","hasking","","nw","h","h",1,0.579454402041847,NA,NA,NA
"LDTpractice",12,1,NA,"lower","summary","","w","g","g",1,0.394617501604444,NA,NA,NA
"LDTpractice",13,1,NA,"lower","lumbigo","","nw","h","h",1,0.43378033366298,NA,NA,NA
"LDTpractice",14,1,NA,"lower","tricycle","","w","g","g",1,0.669491968458715,NA,NA,NA
"LDTpractice",1,2,NA,"upper","grimace","","w","g","g",1,0.417890338671896,NA,NA,NA
"LDTpractice",2,2,NA,"upper","lurshing","","nw","h","h",1,0.519279273083157,NA,NA,NA
"LDTpractice",3,2,NA,"upper","revival","","w","g","g",1,0.448817494519972,NA,NA,NA
"LDTpractice",4,2,NA,"upper","unscrew","","w","g","g",1,0.459845407953253,NA,NA,NA
"LDTpractice",5,2,NA,"upper","latador","","nw","h","h",1,0.472616731537528,NA,NA,NA
"LDTpractice",6,2,NA,"upper","grutch","","nw","h","h",1,0.731175779542355,NA,NA,NA
"LDTpractice",7,2,NA,"upper","infinity","","w","g","g",1,0.452036810947902,NA,NA,NA
"LDTpractice",8,2,NA,"upper","treeps","","nw","h","g",0,0.464927981565779,NA,NA,NA
"LDTpractice",9,2,NA,"upper","slumber","","w","g","g",1,0.63713558708514,NA,NA,NA
"LDTpractice",10,2,NA,"upper","turative","","nw","h","h",1,0.520869398217656,NA,NA,NA
"LDTpractice",11,2,NA,"upper","trotch","","nw","h","h",1,0.562391097978434,NA,NA,NA
"LDTpractice",12,2,NA,"upper","picture","","w","g","g",1,0.450529453100899,NA,NA,NA
"LDTpractice",13,2,NA,"upper","crinklo","","nw","h","h",1,0.454562868573703,NA,NA,NA
"LDTpractice",14,2,NA,"upper","busted","","w","g","g",1,0.402687974308719,NA,NA,NA
"experimental",1,1,"ld","upper","theles","nw","nw","h","h",1,0.630398329853961,NA,NA,NA
"experimental",1,2,"ld","upper","plymie","nw","nw","h","h",1,0.532494891468559,NA,NA,NA
"experimental",1,3,"ld","upper","ipiocy","nw","nw","h","h",1,0.438261354627684,NA,NA,NA
"experimental",1,4,"ld","upper","jungle","w","w","g","g",1,0.579969545641688,NA,NA,NA
"experimental",1,5,"ld","upper","bluads","nw","nw","h","h",1,0.524072161188087,NA,NA,NA
"experimental",1,6,"ld","upper","rearrange","w","w","g","g",1,0.726397458479369,NA,NA,NA
"experimental",1,7,"ld","upper","analysis","w","w","g","h",0,0.56023318924963,NA,NA,NA
"experimental",1,8,"ld","upper","tiery","nw","nw","h","h",1,0.680012352882841,NA,NA,NA
"experimental",1,9,"ld","upper","felevance","nw","nw","h","g",0,0.668044203060163,NA,NA,NA
"experimental",1,10,"ld","upper","preserve","w","w","g","g",1,0.760146647773581,NA,NA,NA
"experimental",1,11,"ld","upper","loached","nw","nw","h","h",1,0.840842435944978,NA,NA,NA
"experimental",1,12,"ld","upper","acoustic","w","w","g","g",1,0.726290523143689,NA,NA,NA
"experimental",1,13,"ld","upper","hubris","w","w","g","h",0,0.71237866633237,NA,NA,NA
"experimental",1,14,"ld","upper","miracle","w","w","g","g",1,0.555151277775622,NA,NA,NA
"experimental",1,15,"ld","upper","usage","w","w","g","g",1,0.587815553461951,NA,NA,NA
"experimental",1,16,"ld","upper","duries","nw","nw","h","h",1,0.899329443302122,NA,NA,NA
"experimental",1,17,"ld","upper","nores","nw","nw","h","h",1,0.621601491431647,NA,NA,NA
"experimental",1,18,"ld","upper","igiom","nw","nw","h","h",1,0.619789881035103,NA,NA,NA
"experimental",1,19,"ld","upper","deserve","w","w","g","g",1,0.585775836419089,NA,NA,NA
"experimental",1,20,"ld","upper","buzzer","w","w","g","g",1,0.647857923690935,NA,NA,NA
"experimental",1,21,"ld","upper","party","w","w","g","g",1,0.542623290017218,NA,NA,NA
"experimental",1,22,"ld","upper","digested","w","w","g","g",1,0.560017994302143,NA,NA,NA
"experimental",1,23,"ld","upper","squirrel","target","target","q","q",1,0.536036669250279,1,NA,NA
"experimental",1,24,"ld","upper","heuls","aftertar1","nw","h","h",1,0.633481907929308,NA,NA,NA
"experimental",1,25,"ld","upper","nearsipe","aftertar2","nw","h","h",1,0.663511535308317,NA,NA,NA
"experimental",1,26,"ld","upper","neally","aftertar3","nw","h","h",1,0.739318756389366,NA,NA,NA
"experimental",1,27,"ld","upper","fraft","nw","nw","h","h",1,0.628677763474116,NA,NA,NA
"experimental",1,28,"ld","upper","itself","nw","w","g","g",1,0.458824059621293,NA,NA,NA
"experimental",1,29,"ld","upper","dounger","w","nw","h","h",1,0.607409881186868,NA,NA,NA
"experimental",1,30,"ld","upper","lentils","nw","w","g","g",1,0.806206312394352,NA,NA,NA
"experimental",2,1,"ld","upper","expensive","w","w","g","g",1,0.570641341231749,NA,NA,NA
"experimental",2,2,"ld","upper","uncarled","nw","nw","h","h",1,0.612424254554753,NA,NA,NA
"experimental",2,3,"ld","upper","latpin","nw","nw","h","h",1,0.547188733615258,NA,NA,NA
"experimental",2,4,"ld","upper","burning","w","w","g","g",1,0.476524671801599,NA,NA,NA
"experimental",2,5,"ld","upper","teamwork","w","w","g","h",0,0.520606198241694,NA,NA,NA
"experimental",2,6,"ld","upper","aefated","nw","nw","h","h",1,0.64267636040222,NA,NA,NA
"experimental",2,7,"ld","upper","ounside","nw","nw","h","h",1,0.751725903908664,NA,NA,NA
"experimental",2,8,"ld","upper","outflow","w","w","g","g",1,0.5128369984659,NA,NA,NA
"experimental",2,9,"ld","upper","ements","nw","nw","h","h",1,0.523574895322781,NA,NA,NA
"experimental",2,10,"ld","upper","lightels","nw","nw","h","h",1,0.645626186541449,NA,NA,NA
"experimental",2,11,"ld","upper","suddenly","w","w","g","g",1,0.506076897463572,NA,NA,NA
"experimental",2,12,"ld","upper","company","w","w","g","g",1,0.572764818769429,NA,NA,NA
"experimental",2,13,"ld","upper","adok","nw","nw","h","h",1,0.548829512329576,NA,NA,NA
"experimental",2,14,"ld","upper","tragedy","w","w","g","g",1,0.542226338105138,NA,NA,NA
"experimental",2,15,"ld","upper","snays","nw","nw","h","h",1,0.687659388142492,NA,NA,NA
"experimental",2,16,"ld","upper","deceit","w","w","g","g",1,0.523041873988404,NA,NA,NA
"experimental",2,17,"ld","upper","jinds","nw","nw","h","h",1,0.661083474151383,NA,NA,NA
"experimental",2,18,"ld","upper","mortgage","w","w","g","g",1,0.561851124192799,NA,NA,NA
"experimental",2,19,"ld","upper","doads","nw","nw","h","h",1,0.562573186012742,NA,NA,NA
"experimental",2,20,"ld","upper","dredigest","nw","nw","h","h",1,0.931349458418481,NA,NA,NA
"experimental",2,21,"ld","upper","actual","w","w","g","g",1,0.508400340768276,NA,NA,NA
"experimental",2,22,"ld","upper","graveyard","w","w","g","h",0,0.543053017776401,NA,NA,NA
"experimental",2,23,"ld","upper","micron","w","w","g","g",1,0.960562338200361,NA,NA,NA
"experimental",2,24,"ld","upper","lavilion","nw","nw","h","h",1,0.585210370309142,NA,NA,NA
"experimental",2,25,"ld","upper","gigglod","nw","nw","h","h",1,0.704610459763899,NA,NA,NA
"experimental",2,26,"ld","upper","unbridled","w","w","g","g",1,0.547011942688187,NA,NA,NA
"experimental",2,27,"ld","upper","regards","w","w","g","g",1,0.548806668558427,NA,NA,NA
"experimental",2,28,"ld","upper","marvel","w","w","g","g",1,0.526176436714195,NA,NA,NA
"experimental",2,29,"ld","upper","elvisages","nw","nw","h","h",1,0.808265562515771,NA,NA,NA
"experimental",2,30,"ld","upper","drobate","nw","nw","h","h",1,0.613991535917194,NA,NA,NA
"experimental",3,1,"hd","lower","seighing","nw","nw","h","h",1,0.653158671874735,NA,NA,NA
"experimental",3,2,"hd","lower","leather","w","w","g","g",1,0.577906322690069,NA,NA,NA
"experimental",3,3,"hd","lower","passet","nw","nw","h","h",1,0.609914419317647,NA,NA,NA
"experimental",3,4,"hd","lower","naxis","nw","nw","h","h",1,0.520693931566711,NA,NA,NA
"experimental",3,5,"hd","lower","padicals","nw","nw","h","h",1,0.529842696496416,NA,NA,NA
"experimental",3,6,"hd","lower","turning","w","w","g","g",1,0.403792089928174,NA,NA,NA
"experimental",3,7,"hd","lower","natch","nw","nw","h","h",1,0.522471110771221,NA,NA,NA
"experimental",3,8,"hd","lower","tracing","w","w","g","g",1,0.428619296661054,NA,NA,NA
"experimental",3,9,"hd","lower","bulmed","nw","nw","h","h",1,0.658690506325001,NA,NA,NA
"experimental",3,10,"hd","lower","realize","w","w","g","g",1,0.43940586068311,NA,NA,NA
"experimental",3,11,"hd","lower","stable","w","w","g","g",1,0.532863040364646,NA,NA,NA
"experimental",3,12,"hd","lower","widely","w","w","g","g",1,0.48695037044763,NA,NA,NA
"experimental",3,13,"hd","lower","curricula","w","w","g","h",0,0.450517865681832,NA,NA,NA
"experimental",3,14,"hd","lower","walsams","nw","nw","h","h",1,0.567225038657853,NA,NA,NA
"experimental",3,15,"hd","lower","filter","w","w","g","g",1,0.519062091719206,NA,NA,NA
"experimental",3,16,"hd","lower","release","w","w","g","g",1,0.44807093358304,NA,NA,NA
"experimental",3,17,"hd","lower","fetching","w","w","g","g",1,0.557476376426166,NA,NA,NA
"experimental",3,18,"hd","lower","etuip","nw","nw","h","h",1,0.574327796232865,NA,NA,NA
"experimental",3,19,"hd","lower","brongs","nw","nw","h","g",0,0.462245659300606,NA,NA,NA
"experimental",3,20,"hd","lower","column","w","w","g","g",1,0.73098442157243,NA,NA,NA
"experimental",3,21,"hd","lower","destroy","w","w","g","g",1,0.509037317814546,NA,NA,NA
"experimental",3,22,"hd","lower","terrify","w","w","g","g",1,0.567753756093225,NA,NA,NA
"experimental",3,23,"hd","lower","nelvet","nw","nw","h","h",1,0.592466412900649,NA,NA,NA
"experimental",3,24,"hd","lower","mitten","w","w","g","g",1,0.639920209717275,NA,NA,NA
"experimental",3,25,"hd","lower","pakened","nw","nw","h","h",1,0.804348352316993,NA,NA,NA
"experimental",3,26,"hd","lower","spider","target","target","q","q",1,0.531047126069097,1,NA,NA
"experimental",3,27,"hd","lower","treenery","aftertar1","nw","h","h",1,0.781229462404553,NA,NA,NA
"experimental",3,28,"hd","lower","valif","aftertar2","nw","h","h",1,0.60531984163481,NA,NA,NA
"experimental",3,29,"hd","lower","gumdrep","aftertar3","nw","h","h",1,0.636009951969754,NA,NA,NA
"experimental",3,30,"hd","lower","illness","nw","w","g","g",1,0.545392352400086,NA,NA,NA
"experimental",4,1,"hd","lower","ebciting","nw","nw","h","h",1,0.546193870815841,NA,NA,NA
"experimental",4,2,"hd","lower","impirt","nw","nw","h","h",1,0.731513801145411,NA,NA,NA
"experimental",4,3,"hd","lower","mebase","nw","nw","h","h",1,0.661592658506379,NA,NA,NA
"experimental",4,4,"hd","lower","image","w","w","g","g",1,0.474309488109611,NA,NA,NA
"experimental",4,5,"hd","lower","ifkling","nw","nw","h","h",1,0.542381940605992,NA,NA,NA
"experimental",4,6,"hd","lower","tibs","nw","nw","h","h",1,0.631811995130192,NA,NA,NA
"experimental",4,7,"hd","lower","sonnet","w","w","g","g",1,0.669934276845197,NA,NA,NA
"experimental",4,8,"hd","lower","culer","nw","nw","h","h",1,0.593969135778025,NA,NA,NA
"experimental",4,9,"hd","lower","preclude","w","w","g","g",1,0.897417518952352,NA,NA,NA
"experimental",4,10,"hd","lower","oldest","w","w","g","h",0,0.443798155114564,NA,NA,NA
"experimental",4,11,"hd","lower","sludding","nw","nw","h","h",1,0.961128135380022,NA,NA,NA
"experimental",4,12,"hd","lower","farochial","nw","nw","h","h",1,0.585839732765635,NA,NA,NA
"experimental",4,13,"hd","lower","railway","w","w","g","g",1,0.497304889227053,NA,NA,NA
"experimental",4,14,"hd","lower","hivinity","nw","nw","h","h",1,0.604605394405553,NA,NA,NA
"experimental",4,15,"hd","lower","inverted","w","w","g","g",1,0.587376886835045,NA,NA,NA
"experimental",4,16,"hd","lower","design","w","w","g","g",1,0.530801141690063,NA,NA,NA
"experimental",4,17,"hd","lower","poughest","nw","nw","h","h",1,0.620018318749317,NA,NA,NA
"experimental",4,18,"hd","lower","temelity","nw","nw","h","h",1,0.683041304549988,NA,NA,NA
"experimental",4,19,"hd","lower","handbook","w","w","g","g",1,0.582178439020026,NA,NA,NA
"experimental",4,20,"hd","lower","geissue","nw","nw","h","h",1,0.494112058331666,NA,NA,NA
"experimental",4,21,"hd","lower","dominion","w","w","g","g",1,0.481495344040013,NA,NA,NA
"experimental",4,22,"hd","lower","throttle","w","w","g","g",1,0.685628609968262,NA,NA,NA
"experimental",4,23,"hd","lower","puggers","nw","nw","h","h",1,0.625047259159146,NA,NA,NA
"experimental",4,24,"hd","lower","neuran","nw","nw","h","h",1,0.631160119970446,NA,NA,NA
"experimental",4,25,"hd","lower","medium","w","w","g","g",1,0.597219572706308,NA,NA,NA
"experimental",4,26,"hd","lower","attract","w","w","g","g",1,0.55658844896243,NA,NA,NA
"experimental",4,27,"hd","lower","dolphin","target","target","q","q",1,0.517343842822811,1,NA,NA
"experimental",4,28,"hd","lower","caution","aftertar1","w","g","g",1,0.607427427852599,NA,NA,NA
"experimental",4,29,"hd","lower","hegacy","aftertar2","nw","h","h",1,0.589280534455611,NA,NA,NA
"experimental",4,30,"hd","lower","irregular","aftertar3","w","g","g",1,0.548535522923885,NA,NA,NA
"experimental",5,1,"hd","lower","roaned","nw","nw","h","h",1,0.534264125013578,NA,NA,NA
"experimental",5,2,"hd","lower","hutting","nw","nw","h","g",0,0.447661401042751,NA,NA,NA
"experimental",5,3,"hd","lower","ucility","nw","nw","h","h",1,0.709073602993158,NA,NA,NA
"experimental",5,4,"hd","lower","slogan","w","w","g","g",1,0.542864639428444,NA,NA,NA
"experimental",5,5,"hd","lower","footstep","w","w","g","g",1,0.624191776471889,NA,NA,NA
"experimental",5,6,"hd","lower","brimitive","nw","nw","h","h",1,0.574215894859663,NA,NA,NA
"experimental",5,7,"hd","lower","glattery","nw","nw","h","g",0,0.382331525395784,NA,NA,NA
"experimental",5,8,"hd","lower","relaying","w","w","g","g",1,0.718389557845512,NA,NA,NA
"experimental",5,9,"hd","lower","comment","w","w","g","g",1,0.600525960321647,NA,NA,NA
"experimental",5,10,"hd","lower","jaguar","target","target","q","g",0,0.463107432302422,NA,NA,NA
"experimental",5,11,"hd","lower","unwose","aftertar1","nw","h","h",1,2.69202619024963,NA,NA,NA
"experimental",5,12,"hd","lower","purpose","aftertar2","w","g","g",1,0.687252835224172,NA,NA,NA
"experimental",5,13,"hd","lower","iflaid","aftertar3","nw","h","h",1,0.553966050213603,NA,NA,NA
"experimental",5,14,"hd","lower","scack","nw","nw","h","h",1,0.938583981514967,NA,NA,NA
"experimental",5,15,"hd","lower","plartly","nw","nw","h","h",1,0.604084953699385,NA,NA,NA
"experimental",5,16,"hd","lower","statute","nw","w","g","g",1,0.54680303805435,NA,NA,NA
"experimental",5,17,"hd","lower","encounter","w","w","g","g",1,0.620220270931895,NA,NA,NA
"experimental",5,18,"hd","lower","rantho","w","nw","h","h",1,0.554260039620203,NA,NA,NA
"experimental",5,19,"hd","lower","listless","nw","w","g","g",1,0.699083260280531,NA,NA,NA
"experimental",5,20,"hd","lower","roodies","w","nw","h","h",1,0.790397760414635,NA,NA,NA
"experimental",5,21,"hd","lower","paranoid","nw","w","g","g",1,0.549846556762532,NA,NA,NA
"experimental",5,22,"hd","lower","obviously","w","w","g","h",0,0.526283372049875,NA,NA,NA
"experimental",5,23,"hd","lower","cartles","w","nw","h","h",1,0.616377882361121,NA,NA,NA
"experimental",5,24,"hd","lower","manage","nw","w","g","g",1,0.527042513614106,NA,NA,NA
"experimental",5,25,"hd","lower","gures","w","nw","h","h",1,0.553150957963226,NA,NA,NA
"experimental",5,26,"hd","lower","ergonomic","nw","w","g","g",1,0.70586488077879,NA,NA,NA
"experimental",5,27,"hd","lower","tritical","w","nw","h","h",1,0.764572380190657,NA,NA,NA
"experimental",5,28,"hd","lower","ignore","nw","w","g","g",1,0.477313609589146,NA,NA,NA
"experimental",5,29,"hd","lower","reborn","w","w","g","g",1,0.553389658821288,NA,NA,NA
"experimental",5,30,"hd","lower","argue","w","w","g","g",1,0.394103682281639,NA,NA,NA
"experimental",6,1,"ld","upper","rander","nw","nw","h","g",0,0.584793223177257,NA,NA,NA
"experimental",6,2,"ld","upper","glaims","nw","nw","h","g",0,0.584258215429145,NA,NA,NA
"experimental",6,3,"ld","upper","daining","nw","nw","h","h",1,0.6475540022102,NA,NA,NA
"experimental",6,4,"ld","upper","angry","w","w","g","g",1,0.556928125911327,NA,NA,NA
"experimental",6,5,"ld","upper","worps","nw","nw","h","h",1,0.581712624723878,NA,NA,NA
"experimental",6,6,"ld","upper","mestowal","nw","nw","h","g",0,0.549320156812428,NA,NA,NA
"experimental",6,7,"ld","upper","resonant","w","w","g","h",0,0.718284939994192,NA,NA,NA
"experimental",6,8,"ld","upper","envelop","w","w","g","g",1,0.617088687828073,NA,NA,NA
"experimental",6,9,"ld","upper","beartiset","nw","nw","h","h",1,0.567725284146945,NA,NA,NA
"experimental",6,10,"ld","upper","submit","w","w","g","g",1,0.863908023723525,NA,NA,NA
"experimental",6,11,"ld","upper","collute","nw","nw","h","h",1,0.972584783365164,NA,NA,NA
"experimental",6,12,"ld","upper","humanize","w","w","g","g",1,0.548639478636687,NA,NA,NA
"experimental",6,13,"ld","upper","brother","w","w","g","g",1,0.454175848734849,NA,NA,NA
"experimental",6,14,"ld","upper","sullen","w","w","g","h",0,0.570886332403461,NA,NA,NA
"experimental",6,15,"ld","upper","ofsters","nw","nw","h","h",1,0.682904241921278,NA,NA,NA
"experimental",6,16,"ld","upper","volition","w","w","g","g",1,0.638031129138653,NA,NA,NA
"experimental",6,17,"ld","upper","serving","w","w","g","g",1,0.539328820891569,NA,NA,NA
"experimental",6,18,"ld","upper","summon","w","w","g","g",1,0.468794869253543,NA,NA,NA
"experimental",6,19,"ld","upper","edasion","nw","nw","h","h",1,0.584837586444337,NA,NA,NA
"experimental",6,20,"ld","upper","cassette","w","w","g","g",1,0.624241436844386,NA,NA,NA
"experimental",6,21,"ld","upper","unamufed","nw","nw","h","h",1,0.534279685263755,NA,NA,NA
"experimental",6,22,"ld","upper","digar","nw","nw","h","h",1,0.599764170204253,NA,NA,NA
"experimental",6,23,"ld","upper","godomy","nw","nw","h","h",1,0.591078239948729,NA,NA,NA
"experimental",6,24,"ld","upper","reloant","nw","nw","h","h",1,0.646513782936381,NA,NA,NA
"experimental",6,25,"ld","upper","dests","nw","nw","h","g",0,0.747930527155404,NA,NA,NA
"experimental",6,26,"ld","upper","patio","w","w","g","g",1,0.692358914746364,NA,NA,NA
"experimental",6,27,"ld","upper","gestalion","nw","nw","h","h",1,0.631773591107958,NA,NA,NA
"experimental",6,28,"ld","upper","inside","w","w","g","g",1,0.41382911339133,NA,NA,NA
"experimental",6,29,"ld","upper","probable","w","w","g","g",1,0.50847350704953,NA,NA,NA
"experimental",6,30,"ld","upper","marinate","w","w","g","g",1,0.559243292486826,NA,NA,NA
"experimental",7,1,"ld","upper","flacked","nw","nw","h","g",0,0.744684063057321,NA,NA,NA
"experimental",7,2,"ld","upper","portify","nw","nw","h","g",0,0.577207435711898,NA,NA,NA
"experimental",7,3,"ld","upper","esdings","nw","nw","h","h",1,0.761323267537591,NA,NA,NA
"experimental",7,4,"ld","upper","virulent","w","w","g","g",1,0.746025886328425,NA,NA,NA
"experimental",7,5,"ld","upper","apticle","nw","nw","h","h",1,0.707553995589478,NA,NA,NA
"experimental",7,6,"ld","upper","trembla","nw","nw","h","h",1,1.00631675706336,NA,NA,NA
"experimental",7,7,"ld","upper","living","w","w","g","g",1,0.58906500843932,NA,NA,NA
"experimental",7,8,"ld","upper","deadly","w","w","g","g",1,0.540537885432968,NA,NA,NA
"experimental",7,9,"ld","upper","anterior","w","w","g","g",1,0.573936141426202,NA,NA,NA
"experimental",7,10,"ld","upper","reason","w","w","g","g",1,0.453082658396852,NA,NA,NA
"experimental",7,11,"ld","upper","located","w","w","g","g",1,0.529620880165567,NA,NA,NA
"experimental",7,12,"ld","upper","noblest","w","w","g","g",1,0.523689776317042,NA,NA,NA
"experimental",7,13,"ld","upper","finstrel","nw","nw","h","h",1,0.621813706758076,NA,NA,NA
"experimental",7,14,"ld","upper","fission","w","w","g","g",1,0.55582864525968,NA,NA,NA
"experimental",7,15,"ld","upper","zears","nw","nw","h","h",1,0.548634512599165,NA,NA,NA
"experimental",7,16,"ld","upper","roughly","w","w","g","g",1,0.510027214577349,NA,NA,NA
"experimental",7,17,"ld","upper","dorte","nw","nw","h","h",1,0.496697377334385,NA,NA,NA
"experimental",7,18,"ld","upper","eightiech","nw","nw","h","g",0,0.556135546363294,NA,NA,NA
"experimental",7,19,"ld","upper","ilcurring","nw","nw","h","h",1,0.556829467303942,NA,NA,NA
"experimental",7,20,"ld","upper","strenuous","w","w","g","g",1,0.780701738177413,NA,NA,NA
"experimental",7,21,"ld","upper","typical","w","w","g","g",1,0.660662354191118,NA,NA,NA
"experimental",7,22,"ld","upper","galashes","nw","nw","h","h",1,0.537424511133395,NA,NA,NA
"experimental",7,23,"ld","upper","rationale","w","w","g","g",1,0.70681008320571,NA,NA,NA
"experimental",7,24,"ld","upper","require","w","w","g","g",1,0.469469919254152,NA,NA,NA
"experimental",7,25,"ld","upper","gelented","nw","nw","h","h",1,0.529567909100479,NA,NA,NA
"experimental",7,26,"ld","upper","restock","w","w","g","g",1,0.611673058650013,NA,NA,NA
"experimental",7,27,"ld","upper","vivid","w","w","g","g",1,0.458311233504901,NA,NA,NA
"experimental",7,28,"ld","upper","racile","nw","nw","h","h",1,0.662821256127245,NA,NA,NA
"experimental",7,29,"ld","upper","iolize","nw","nw","h","h",1,0.536791506915506,NA,NA,NA
"experimental",7,30,"ld","upper","redefloy","nw","nw","h","h",1,0.738730777577075,NA,NA,NA
"experimental",8,1,"hd","lower","opert","nw","nw","h","h",1,0.516585363398008,NA,NA,NA
"experimental",8,2,"hd","lower","efficient","w","w","g","g",1,0.670572578168503,NA,NA,NA
"experimental",8,3,"hd","lower","region","w","w","g","g",1,0.522658495910946,NA,NA,NA
"experimental",8,4,"hd","lower","peahem","nw","nw","h","h",1,0.476725630775036,NA,NA,NA
"experimental",8,5,"hd","lower","icepick","w","w","g","h",0,0.61598556541594,NA,NA,NA
"experimental",8,6,"hd","lower","ufionize","nw","nw","h","h",1,0.653806905273086,NA,NA,NA
"experimental",8,7,"hd","lower","sporidic","nw","nw","h","h",1,1.29059259461064,NA,NA,NA
"experimental",8,8,"hd","lower","planar","w","w","g","g",1,0.862015632455041,NA,NA,NA
"experimental",8,9,"hd","lower","antique","w","w","g","g",1,0.434185893373069,NA,NA,NA
"experimental",8,10,"hd","lower","colicky","w","w","g","h",0,0.543442355097795,NA,NA,NA
"experimental",8,11,"hd","lower","thesis","w","w","g","g",1,0.46418638666637,NA,NA,NA
"experimental",8,12,"hd","lower","refebs","nw","nw","h","h",1,0.52425458029029,NA,NA,NA
"experimental",8,13,"hd","lower","frigs","nw","nw","h","h",1,0.5903525363683,NA,NA,NA
"experimental",8,14,"hd","lower","burrowing","w","w","g","g",1,0.652133681781379,NA,NA,NA
"experimental",8,15,"hd","lower","ubefully","nw","nw","h","h",1,0.824709436196827,NA,NA,NA
"experimental",8,16,"hd","lower","become","w","w","g","g",1,0.406225448191435,NA,NA,NA
"experimental",8,17,"hd","lower","bumbo","nw","nw","h","h",1,0.604316039966761,NA,NA,NA
"experimental",8,18,"hd","lower","checkout","w","w","g","g",1,0.458317192749746,NA,NA,NA
"experimental",8,19,"hd","lower","trooper","w","w","g","g",1,0.486380269368965,NA,NA,NA
"experimental",8,20,"hd","lower","dorth","nw","nw","h","h",1,0.561140649793742,NA,NA,NA
"experimental",8,21,"hd","lower","season","w","w","g","g",1,0.505224063329479,NA,NA,NA
"experimental",8,22,"hd","lower","jiggling","w","w","g","g",1,0.643285858710442,NA,NA,NA
"experimental",8,23,"hd","lower","cegalia","nw","nw","h","h",1,0.479998580406573,NA,NA,NA
"experimental",8,24,"hd","lower","spiud","nw","nw","h","h",1,0.555144656393168,NA,NA,NA
"experimental",8,25,"hd","lower","earterner","nw","nw","h","h",1,0.954864638105391,NA,NA,NA
"experimental",8,26,"hd","lower","buttress","w","w","g","h",0,0.827242777343599,NA,NA,NA
"experimental",8,27,"hd","lower","yash","nw","nw","h","h",1,0.568193415926544,NA,NA,NA
"experimental",8,28,"hd","lower","decant","w","w","g","g",1,0.552761289572118,NA,NA,NA
"experimental",8,29,"hd","lower","funtair","nw","nw","h","h",1,0.608868240798984,NA,NA,NA
"experimental",8,30,"hd","lower","egect","nw","nw","h","h",1,0.542980513631846,NA,NA,NA
"experimental",9,1,"ld","upper","telecast","w","w","g","g",1,0.551628370935759,NA,NA,NA
"experimental",9,2,"ld","upper","rawhide","w","w","g","g",1,0.568368882576578,NA,NA,NA
"experimental",9,3,"ld","upper","kettle","w","w","g","g",1,0.49643550163546,NA,NA,NA
"experimental",9,4,"ld","upper","noblin","nw","nw","h","g",0,0.539133490092354,NA,NA,NA
"experimental",9,5,"ld","upper","reses","nw","nw","h","h",1,0.55585479972342,NA,NA,NA
"experimental",9,6,"ld","upper","chiffol","nw","nw","h","h",1,0.47601052140817,NA,NA,NA
"experimental",9,7,"ld","upper","maximized","w","w","g","g",1,0.543340716868443,NA,NA,NA
"experimental",9,8,"ld","upper","solidity","w","w","g","g",1,0.512095403566491,NA,NA,NA
"experimental",9,9,"ld","upper","standard","w","w","g","g",1,0.497228081184403,NA,NA,NA
"experimental",9,10,"ld","upper","lancos","nw","nw","h","h",1,0.499949138539705,NA,NA,NA
"experimental",9,11,"ld","upper","brudent","nw","nw","h","g",0,0.454630075611021,NA,NA,NA
"experimental",9,12,"ld","upper","gund","nw","nw","h","h",1,0.514673770117042,NA,NA,NA
"experimental",9,13,"ld","upper","managed","w","w","g","g",1,0.428728218412289,NA,NA,NA
"experimental",9,14,"ld","upper","gettle","nw","nw","h","h",1,0.578100329213157,NA,NA,NA
"experimental",9,15,"ld","upper","army","w","w","g","g",1,0.473493071581288,NA,NA,NA
"experimental",9,16,"ld","upper","retona","nw","nw","h","h",1,0.501016505483676,NA,NA,NA
"experimental",9,17,"ld","upper","ireology","nw","nw","h","h",1,0.719878706888267,NA,NA,NA
"experimental",9,18,"ld","upper","senalize","nw","nw","h","h",1,0.897008317480868,NA,NA,NA
"experimental",9,19,"ld","upper","trake","nw","nw","h","h",1,0.603494657402734,NA,NA,NA
"experimental",9,20,"ld","upper","hustle","w","w","g","g",1,0.522144676588141,NA,NA,NA
"experimental",9,21,"ld","upper","infancy","w","w","g","g",1,0.48359399139099,NA,NA,NA
"experimental",9,22,"ld","upper","criminal","w","w","g","g",1,0.438964876573664,NA,NA,NA
"experimental",9,23,"ld","upper","dricked","nw","nw","h","h",1,0.507564391160486,NA,NA,NA
"experimental",9,24,"ld","upper","engineer","w","w","g","g",1,0.477802598725248,NA,NA,NA
"experimental",9,25,"ld","upper","tunneg","nw","nw","h","h",1,0.473248080408666,NA,NA,NA
"experimental",9,26,"ld","upper","axis","w","w","g","g",1,0.59662232395749,NA,NA,NA
"experimental",9,27,"ld","upper","urgent","w","w","g","g",1,0.587370265452591,NA,NA,NA
"experimental",9,28,"ld","upper","mandate","w","w","g","g",1,0.378078280007685,NA,NA,NA
"experimental",9,29,"ld","upper","flougy","nw","nw","h","h",1,0.64052043808806,NA,NA,NA
"experimental",9,30,"ld","upper","thaken","nw","nw","h","h",1,0.485247019663802,NA,NA,NA
"experimental",10,1,"hd","lower","potatoes","w","w","g","g",1,0.672974815932321,NA,NA,NA
"experimental",10,2,"hd","lower","vopings","nw","nw","h","h",1,0.5403819518624,NA,NA,NA
"experimental",10,3,"hd","lower","remain","w","w","g","g",1,0.637098507339033,NA,NA,NA
"experimental",10,4,"hd","lower","recount","w","w","g","g",1,0.520937267392583,NA,NA,NA
"experimental",10,5,"hd","lower","budget","w","w","g","g",1,0.498244132410036,NA,NA,NA
"experimental",10,6,"hd","lower","sheerio","nw","nw","h","h",1,0.509039635298905,NA,NA,NA
"experimental",10,7,"hd","lower","decantel","nw","nw","h","h",1,0.583151782325331,NA,NA,NA
"experimental",10,8,"hd","lower","olgies","nw","nw","h","h",1,0.494464646977576,NA,NA,NA
"experimental",10,9,"hd","lower","shazer","nw","nw","h","h",1,0.545149016573305,NA,NA,NA
"experimental",10,10,"hd","lower","module","w","w","g","h",0,0.417869812384197,NA,NA,NA
"experimental",10,11,"hd","lower","forbid","w","w","g","g",1,0.623953075613827,NA,NA,NA
"experimental",10,12,"hd","lower","threaded","w","w","g","g",1,0.517365031249028,NA,NA,NA
"experimental",10,13,"hd","lower","trecious","nw","nw","h","h",1,0.711401019128061,NA,NA,NA
"experimental",10,14,"hd","lower","ascending","w","w","g","g",1,0.536497517508906,NA,NA,NA
"experimental",10,15,"hd","lower","century","w","w","g","g",1,0.529529836148868,NA,NA,NA
"experimental",10,16,"hd","lower","smallash","nw","nw","h","h",1,0.53883056181985,NA,NA,NA
"experimental",10,17,"hd","lower","stranded","w","w","g","g",1,0.556015699330601,NA,NA,NA
"experimental",10,18,"hd","lower","arrive","w","w","g","g",1,0.484177004165758,NA,NA,NA
"experimental",10,19,"hd","lower","metrol","nw","nw","h","h",1,0.727484027434912,NA,NA,NA
"experimental",10,20,"hd","lower","halents","nw","nw","h","h",1,0.553010915711639,NA,NA,NA
"experimental",10,21,"hd","lower","sodent","nw","nw","h","g",0,0.585193485782838,NA,NA,NA
"experimental",10,22,"hd","lower","presently","w","w","g","g",1,0.576487029238706,NA,NA,NA
"experimental",10,23,"hd","lower","intrude","w","w","g","g",1,0.503750143466277,NA,NA,NA
"experimental",10,24,"hd","lower","riosk","nw","nw","h","h",1,0.424780218781052,NA,NA,NA
"experimental",10,25,"hd","lower","monkey","target","target","q","g",0,0.534233997721458,NA,NA,NA
"experimental",10,26,"hd","lower","withep","aftertar1","nw","h","h",1,0.47960063528626,NA,NA,NA
"experimental",10,27,"hd","lower","sampling","aftertar2","w","g","g",1,0.827054730065356,NA,NA,NA
"experimental",10,28,"hd","lower","mabit","aftertar3","nw","h","h",1,0.576375790003112,NA,NA,NA
"experimental",10,29,"hd","lower","mandlers","nw","nw","h","h",1,0.71175592525833,NA,NA,NA
"experimental",10,30,"hd","lower","confined","nw","w","g","g",1,0.537858873860387,NA,NA,NA
"experimental",11,1,"ld","upper","atsless","nw","nw","h","h",1,0.570707555062654,NA,NA,NA
"experimental",11,2,"ld","upper","visible","w","w","g","g",1,0.545977351590409,NA,NA,NA
"experimental",11,3,"ld","upper","stooping","w","w","g","g",1,0.522700210623952,NA,NA,NA
"experimental",11,4,"ld","upper","harder","w","w","g","g",1,0.355730781218881,NA,NA,NA
"experimental",11,5,"ld","upper","fisco","nw","nw","h","h",1,0.507531946383097,NA,NA,NA
"experimental",11,6,"ld","upper","poyride","nw","nw","h","h",1,0.541705235260451,NA,NA,NA
"experimental",11,7,"ld","upper","chesume","nw","nw","h","h",1,0.60628490821091,NA,NA,NA
"experimental",11,8,"ld","upper","preight","nw","nw","h","g",0,0.556385503572528,NA,NA,NA
"experimental",11,9,"ld","upper","slooping","nw","nw","h","h",1,0.795926284174129,NA,NA,NA
"experimental",11,10,"ld","upper","snocks","nw","nw","h","h",1,0.554282221253743,NA,NA,NA
"experimental",11,11,"ld","upper","fidelity","w","w","g","g",1,0.602824904509362,NA,NA,NA
"experimental",11,12,"ld","upper","aligning","w","w","g","g",1,0.545566163704279,NA,NA,NA
"experimental",11,13,"ld","upper","derived","w","w","g","g",1,0.434279917011736,NA,NA,NA
"experimental",11,14,"ld","upper","sequence","w","w","g","g",1,0.4477627082033,NA,NA,NA
"experimental",11,15,"ld","upper","contain","w","w","g","g",1,0.412483648359739,NA,NA,NA
"experimental",11,16,"ld","upper","fuack","nw","nw","h","h",1,0.434530867429203,NA,NA,NA
"experimental",11,17,"ld","upper","elpired","nw","nw","h","h",1,0.551887929150325,NA,NA,NA
"experimental",11,18,"ld","upper","truthful","w","w","g","q",0,0.624643023725184,NA,NA,NA
"experimental",11,19,"ld","upper","endgume","nw","nw","h","h",1,1.18089845946724,NA,NA,NA
"experimental",11,20,"ld","upper","kangaroo","target","target","q","q",1,0.876327420801317,1,NA,NA
"experimental",11,21,"ld","upper","awful","aftertar1","w","g","g",1,0.59983369472593,NA,NA,NA
"experimental",11,22,"ld","upper","undimmec","aftertar2","nw","h","h",1,0.550443143373741,NA,NA,NA
"experimental",11,23,"ld","upper","airmen","aftertar3","w","g","g",1,0.975179703373215,NA,NA,NA
"experimental",11,24,"ld","upper","inversion","w","w","g","g",1,0.590609114960898,NA,NA,NA
"experimental",11,25,"ld","upper","kiner","w","nw","h","h",1,0.549400937685277,NA,NA,NA
"experimental",11,26,"ld","upper","ifling","nw","nw","h","h",1,0.589229880875791,NA,NA,NA
"experimental",11,27,"ld","upper","deficit","nw","w","g","g",1,0.492755005879189,NA,NA,NA
"experimental",11,28,"ld","upper","arranged","w","w","g","g",1,0.478562071358283,NA,NA,NA
"experimental",11,29,"ld","upper","setwixt","w","nw","h","h",1,0.489918074321395,NA,NA,NA
"experimental",11,30,"ld","upper","plashed","nw","nw","h","g",0,0.812754198071161,NA,NA,NA
"experimental",12,1,"ld","upper","unburnid","nw","nw","h","h",1,0.739635920636829,NA,NA,NA
"experimental",12,2,"ld","upper","baults","nw","nw","h","h",1,0.48443391382807,NA,NA,NA
"experimental",12,3,"ld","upper","epthuse","nw","nw","h","h",1,0.486919249947277,NA,NA,NA
"experimental",12,4,"ld","upper","uncle","w","w","g","g",1,0.425523800096016,NA,NA,NA
"experimental",12,5,"ld","upper","gelfry","nw","nw","h","h",1,0.50300159611561,NA,NA,NA
"experimental",12,6,"ld","upper","ugifies","nw","nw","h","h",1,0.481135140803417,NA,NA,NA
"experimental",12,7,"ld","upper","pastnoss","nw","nw","h","h",1,0.524465140269967,NA,NA,NA
"experimental",12,8,"ld","upper","euphoric","w","w","g","g",1,0.581922191497142,NA,NA,NA
"experimental",12,9,"ld","upper","dileting","nw","nw","h","h",1,0.48530230821234,NA,NA,NA
"experimental",12,10,"ld","upper","prison","w","w","g","g",1,0.424737179791919,NA,NA,NA
"experimental",12,11,"ld","upper","dialect","w","w","g","h",0,0.430120033124695,NA,NA,NA
"experimental",12,12,"ld","upper","anonymous","w","w","g","g",1,0.627563384709902,NA,NA,NA
"experimental",12,13,"ld","upper","lovud","nw","nw","h","h",1,0.519976835784291,NA,NA,NA
"experimental",12,14,"ld","upper","enunciate","w","w","g","g",1,0.753360392308423,NA,NA,NA
"experimental",12,15,"ld","upper","sliding","w","w","g","g",1,0.441391944522366,NA,NA,NA
"experimental",12,16,"ld","upper","calcify","w","w","g","g",1,0.638148658687896,NA,NA,NA
"experimental",12,17,"ld","upper","mantos","nw","nw","h","h",1,0.538876911500665,NA,NA,NA
"experimental",12,18,"ld","upper","ciping","nw","nw","h","h",1,0.547633690554903,NA,NA,NA
"experimental",12,19,"ld","upper","colored","w","w","g","g",1,0.492364013211954,NA,NA,NA
"experimental",12,20,"ld","upper","mogus","nw","nw","h","h",1,0.52709515360948,NA,NA,NA
"experimental",12,21,"ld","upper","carbled","nw","nw","h","h",1,0.704494916629301,NA,NA,NA
"experimental",12,22,"ld","upper","fravity","nw","nw","h","h",1,0.51454995025415,NA,NA,NA
"experimental",12,23,"ld","upper","amidst","w","w","g","g",1,0.70762385117996,NA,NA,NA
"experimental",12,24,"ld","upper","prominent","w","w","g","g",1,0.517701066437439,NA,NA,NA
"experimental",12,25,"ld","upper","antonym","w","w","g","g",1,0.487820751247455,NA,NA,NA
"experimental",12,26,"ld","upper","coster","nw","nw","h","h",1,0.546522953552085,NA,NA,NA
"experimental",12,27,"ld","upper","triangle","w","w","g","g",1,0.587186853143066,NA,NA,NA
"experimental",12,28,"ld","upper","glates","nw","nw","h","h",1,0.577948699541594,NA,NA,NA
"experimental",12,29,"ld","upper","consonant","w","w","g","g",1,0.569302828653235,NA,NA,NA
"experimental",12,30,"ld","upper","foster","w","w","g","g",1,0.512834680981541,NA,NA,NA
"experimental",13,1,"hd","lower","regiment","w","w","g","g",1,0.626814175219806,NA,NA,NA
"experimental",13,2,"hd","lower","servant","w","w","g","g",1,0.439487303694477,NA,NA,NA
"experimental",13,3,"hd","lower","baladroit","nw","nw","h","h",1,0.51756168632528,NA,NA,NA
"experimental",13,4,"hd","lower","rarren","nw","nw","h","h",1,0.575037277423689,NA,NA,NA
"experimental",13,5,"hd","lower","official","w","w","g","g",1,0.446454653985711,NA,NA,NA
"experimental",13,6,"hd","lower","educate","w","w","g","g",1,0.467216662609644,NA,NA,NA
"experimental",13,7,"hd","lower","maroon","w","w","g","g",1,0.446622506045969,NA,NA,NA
"experimental",13,8,"hd","lower","punctual","w","w","g","g",1,0.522326764621539,NA,NA,NA
"experimental",13,9,"hd","lower","fashing","nw","nw","h","h",1,0.691708363863654,NA,NA,NA
"experimental",13,10,"hd","lower","bingu","nw","nw","h","h",1,0.47842236017641,NA,NA,NA
"experimental",13,11,"hd","lower","spigat","nw","nw","h","h",1,0.65784892854208,NA,NA,NA
"experimental",13,12,"hd","lower","rumblos","nw","nw","h","h",1,0.50192164854343,NA,NA,NA
"experimental",13,13,"hd","lower","gazes","w","w","g","h",0,0.535982373909974,NA,NA,NA
"experimental",13,14,"hd","lower","schides","nw","nw","h","h",1,0.58479189890204,NA,NA,NA
"experimental",13,15,"hd","lower","trallion","nw","nw","h","g",0,0.51147332463097,NA,NA,NA
"experimental",13,16,"hd","lower","coyote","target","target","q","g",0,0.52955135564298,NA,NA,NA
"experimental",13,17,"hd","lower","offonents","aftertar1","nw","h","h",1,0.706991178031785,NA,NA,NA
"experimental",13,18,"hd","lower","kraums","aftertar2","nw","h","h",1,0.52401687263955,NA,NA,NA
"experimental",13,19,"hd","lower","grolific","aftertar3","nw","h","h",1,0.509353488854686,NA,NA,NA
"experimental",13,20,"hd","lower","system","nw","w","g","g",1,0.551414831333204,NA,NA,NA
"experimental",13,21,"hd","lower","number","w","w","g","g",1,0.535479810938341,NA,NA,NA
"experimental",13,22,"hd","lower","clooped","w","nw","h","h",1,0.616324580227229,NA,NA,NA
"experimental",13,23,"hd","lower","mubby","nw","nw","h","h",1,0.574291047557381,NA,NA,NA
"experimental",13,24,"hd","lower","observer","nw","w","g","g",1,0.517627238016757,NA,NA,NA
"experimental",13,25,"hd","lower","bickering","w","w","g","h",0,0.591115319693017,NA,NA,NA
"experimental",13,26,"hd","lower","befriend","w","w","g","g",1,0.548913934962911,NA,NA,NA
"experimental",13,27,"hd","lower","filny","w","nw","h","h",1,0.517550098905303,NA,NA,NA
"experimental",13,28,"hd","lower","implode","nw","w","g","g",1,0.58301703718007,NA,NA,NA
"experimental",13,29,"hd","lower","desert","w","w","g","g",1,0.566320888805421,NA,NA,NA
"experimental",13,30,"hd","lower","chappef","w","nw","h","h",1,0.60605911904986,NA,NA,NA
"experimental",14,1,"hd","lower","govern","w","w","g","g",1,0.668861281726095,NA,NA,NA
"experimental",14,2,"hd","lower","meteoroid","w","w","g","g",1,0.791387326107724,NA,NA,NA
"experimental",14,3,"hd","lower","oppose","w","w","g","g",1,0.518063918228108,NA,NA,NA
"experimental",14,4,"hd","lower","encrusted","w","w","g","g",1,0.648132380018069,NA,NA,NA
"experimental",14,5,"hd","lower","mineluyer","nw","nw","h","h",1,0.524844545518135,NA,NA,NA
"experimental",14,6,"hd","lower","squadroim","nw","nw","h","h",1,0.566132179390479,NA,NA,NA
"experimental",14,7,"hd","lower","arpired","nw","nw","h","h",1,0.734300079123386,NA,NA,NA
"experimental",14,8,"hd","lower","veirs","nw","nw","h","h",1,0.471062030803296,NA,NA,NA
"experimental",14,9,"hd","lower","joadbed","nw","nw","h","h",1,0.474465752748074,NA,NA,NA
"experimental",14,10,"hd","lower","alticles","nw","nw","h","h",1,0.533832741909464,NA,NA,NA
"experimental",14,11,"hd","lower","retreat","w","w","g","g",1,0.558637767008804,NA,NA,NA
"experimental",14,12,"hd","lower","posing","w","w","g","g",1,0.542651761964407,NA,NA,NA
"experimental",14,13,"hd","lower","partner","w","w","g","g",1,0.494380555413045,NA,NA,NA
"experimental",14,14,"hd","lower","snorls","nw","nw","h","h",1,0.521128294292794,NA,NA,NA
"experimental",14,15,"hd","lower","blipover","nw","nw","h","h",1,0.514502607366012,NA,NA,NA
"experimental",14,16,"hd","lower","chight","nw","nw","h","h",1,0.46857835002902,NA,NA,NA
"experimental",14,17,"hd","lower","octopus","target","target","q","g",0,0.480645158459993,1,1,NA
"experimental",14,18,"hd","lower","intercede","aftertar1","w","g","g",1,2.27608944829444,NA,NA,NA
"experimental",14,19,"hd","lower","dealer","aftertar2","w","g","g",1,0.655524160961249,NA,NA,NA
"experimental",14,20,"hd","lower","acroad","aftertar3","nw","h","h",1,0.923648127818524,NA,NA,NA
"experimental",14,21,"hd","lower","sazer","nw","nw","h","g",0,0.523993035660169,NA,NA,NA
"experimental",14,22,"hd","lower","ordinary","nw","w","g","g",1,0.509367393759021,NA,NA,NA
"experimental",14,23,"hd","lower","gonesty","w","nw","h","h",1,0.575830188042346,NA,NA,NA
"experimental",14,24,"hd","lower","sefine","nw","nw","h","h",1,0.615460158673159,NA,NA,NA
"experimental",14,25,"hd","lower","alchemist","nw","w","g","g",1,0.709411955666837,NA,NA,NA
"experimental",14,26,"hd","lower","huzzles","w","nw","h","h",1,0.647626837422649,NA,NA,NA
"experimental",14,27,"hd","lower","flieves","nw","nw","h","h",1,0.580411191889652,NA,NA,NA
"experimental",14,28,"hd","lower","tinker","nw","w","g","g",1,0.571802069676778,NA,NA,NA
"experimental",14,29,"hd","lower","recollect","w","w","g","g",1,0.571323674752421,NA,NA,NA
"experimental",14,30,"hd","lower","couple","w","w","g","g",1,0.50574715258881,NA,NA,NA
"experimental",15,1,"hd","lower","hinsome","nw","nw","h","h",1,0.64428005937225,NA,NA,NA
"experimental",15,2,"hd","lower","peadgear","nw","nw","h","h",1,0.552994031185335,NA,NA,NA
"experimental",15,3,"hd","lower","plogging","nw","nw","h","h",1,0.689145226494475,NA,NA,NA
"experimental",15,4,"hd","lower","rational","w","w","g","g",1,0.571820940618636,NA,NA,NA
"experimental",15,5,"hd","lower","slowning","nw","nw","h","h",1,0.555253909212297,NA,NA,NA
"experimental",15,6,"hd","lower","chrik","nw","nw","h","h",1,0.506287788512964,NA,NA,NA
"experimental",15,7,"hd","lower","hecture","nw","nw","h","h",1,0.596361441466797,NA,NA,NA
"experimental",15,8,"hd","lower","fonducts","nw","nw","h","h",1,0.547169200535791,NA,NA,NA
"experimental",15,9,"hd","lower","omners","nw","nw","h","h",1,0.571856696086797,NA,NA,NA
"experimental",15,10,"hd","lower","digest","w","w","g","g",1,0.483266564000587,NA,NA,NA
"experimental",15,11,"hd","lower","fivalve","nw","nw","h","h",1,0.558462962497288,NA,NA,NA
"experimental",15,12,"hd","lower","arrigns","nw","nw","h","h",1,0.638437682057884,NA,NA,NA
"experimental",15,13,"hd","lower","suburb","w","w","g","g",1,0.54726024455249,NA,NA,NA
"experimental",15,14,"hd","lower","pillage","w","w","g","g",1,0.43604881948886,NA,NA,NA
"experimental",15,15,"hd","lower","childhood","w","w","g","g",1,0.512618492824913,NA,NA,NA
"experimental",15,16,"hd","lower","protest","w","w","g","g",1,0.545673430108764,NA,NA,NA
"experimental",15,17,"hd","lower","scarlet","w","w","g","g",1,0.681706764799856,NA,NA,NA
"experimental",15,18,"hd","lower","goblet","w","w","g","g",1,0.653477491467129,NA,NA,NA
"experimental",15,19,"hd","lower","browting","nw","nw","h","h",1,0.489943235576902,NA,NA,NA
"experimental",15,20,"hd","lower","oleandur","nw","nw","h","h",1,0.500717218970749,NA,NA,NA
"experimental",15,21,"hd","lower","larger","w","w","g","g",1,0.487419826504265,NA,NA,NA
"experimental",15,22,"hd","lower","elephant","target","target","q","q",1,0.69015664275139,1,NA,NA
"experimental",15,23,"hd","lower","pircus","aftertar1","nw","h","h",1,0.860973426765668,NA,NA,NA
"experimental",15,24,"hd","lower","surround","aftertar2","w","g","g",1,0.473039175774829,NA,NA,NA
"experimental",15,25,"hd","lower","sweeping","aftertar3","w","g","g",1,0.555258213112211,NA,NA,NA
"experimental",15,26,"hd","lower","sustain","w","w","g","g",1,0.523306729309297,NA,NA,NA
"experimental",15,27,"hd","lower","trewl","w","nw","h","h",1,0.532705120379433,NA,NA,NA
"experimental",15,28,"hd","lower","surfaced","nw","w","g","g",1,0.678113340230993,NA,NA,NA
"experimental",15,29,"hd","lower","twenties","w","w","g","g",1,0.489492319392411,NA,NA,NA
"experimental",15,30,"hd","lower","insole","w","w","g","g",1,0.524256897773739,NA,NA,NA
"experimental",16,1,"ld","upper","contusiok","nw","nw","h","h",1,0.549935614364585,NA,NA,NA
"experimental",16,2,"ld","upper","afternoon","w","w","g","g",1,0.430354761152557,NA,NA,NA
"experimental",16,3,"ld","upper","extend","w","w","g","g",1,0.555788585892515,NA,NA,NA
"experimental",16,4,"ld","upper","thacked","nw","nw","h","h",1,0.563838201239378,NA,NA,NA
"experimental",16,5,"ld","upper","sefraud","nw","nw","h","h",1,0.547892255562147,NA,NA,NA
"experimental",16,6,"ld","upper","hackal","nw","nw","h","h",1,0.572542671368865,NA,NA,NA
"experimental",16,7,"ld","upper","insertion","w","w","g","g",1,0.660015445069803,NA,NA,NA
"experimental",16,8,"ld","upper","innocent","w","w","g","g",1,0.4320418895486,NA,NA,NA
"experimental",16,9,"ld","upper","rodeo","w","w","g","h",0,0.509454796014325,NA,NA,NA
"experimental",16,10,"ld","upper","resent","w","w","g","g",1,0.486557722434554,NA,NA,NA
"experimental",16,11,"ld","upper","bloodless","w","w","g","g",1,0.489204289230656,NA,NA,NA
"experimental",16,12,"ld","upper","moral","w","w","g","g",1,0.428599763580678,NA,NA,NA
"experimental",16,13,"ld","upper","gontracts","nw","nw","h","h",1,0.577436866634343,NA,NA,NA
"experimental",16,14,"ld","upper","lindo","nw","nw","h","h",1,0.601420840238461,NA,NA,NA
"experimental",16,15,"ld","upper","ecistle","nw","nw","h","h",1,0.768118130801668,NA,NA,NA
"experimental",16,16,"ld","upper","maunches","nw","nw","h","h",1,0.575533219012868,NA,NA,NA
"experimental",16,17,"ld","upper","lanthers","nw","nw","h","h",1,0.45506178978394,NA,NA,NA
"experimental",16,18,"ld","upper","scrooner","nw","nw","h","h",1,0.587078262460636,NA,NA,NA
"experimental",16,19,"ld","upper","nopping","nw","nw","h","h",1,0.55383031186193,NA,NA,NA
"experimental",16,20,"ld","upper","disuse","w","w","g","h",0,0.720923230061089,NA,NA,NA
"experimental",16,21,"ld","upper","mullet","w","w","g","g",1,0.458300970361961,NA,NA,NA
"experimental",16,22,"ld","upper","gensions","nw","nw","h","h",1,0.518381744614089,NA,NA,NA
"experimental",16,23,"ld","upper","pepperoni","w","w","g","g",1,0.480441550930664,NA,NA,NA
"experimental",16,24,"ld","upper","menarthe","nw","nw","h","h",1,0.56389547620256,NA,NA,NA
"experimental",16,25,"ld","upper","frose","nw","nw","h","h",1,0.611882956492082,NA,NA,NA
"experimental",16,26,"ld","upper","terming","w","w","g","g",1,0.761994675776805,NA,NA,NA
"experimental",16,27,"ld","upper","outset","w","w","g","g",1,0.466120161579056,NA,NA,NA
"experimental",16,28,"ld","upper","paying","w","w","g","g",1,0.454106655281976,NA,NA,NA
"experimental",16,29,"ld","upper","yellep","nw","nw","h","h",1,0.50622091254354,NA,NA,NA
"experimental",16,30,"ld","upper","function","w","w","g","g",1,0.443303206733617,NA,NA,NA
"experimental",17,1,"ld","upper","snife","nw","nw","h","h",1,0.63283632308503,NA,NA,NA
"experimental",17,2,"ld","upper","staircase","w","w","g","g",1,0.486146534548425,NA,NA,NA
"experimental",17,3,"ld","upper","monopoly","w","w","g","g",1,0.544901045778715,NA,NA,NA
"experimental",17,4,"ld","upper","handle","w","w","g","g",1,0.513624611976411,NA,NA,NA
"experimental",17,5,"ld","upper","result","w","w","g","g",1,0.362700448994474,NA,NA,NA
"experimental",17,6,"ld","upper","legalize","w","w","g","g",1,0.394669148392495,NA,NA,NA
"experimental",17,7,"ld","upper","mustled","nw","nw","h","h",1,0.529517917659177,NA,NA,NA
"experimental",17,8,"ld","upper","laser","w","w","g","g",1,0.666766607204409,NA,NA,NA
"experimental",17,9,"ld","upper","numbled","nw","nw","h","h",1,0.582926655302799,NA,NA,NA
"experimental",17,10,"ld","upper","eyesight","w","w","g","g",1,0.486221356176429,NA,NA,NA
"experimental",17,11,"ld","upper","scatter","w","w","g","g",1,0.553068521744535,NA,NA,NA
"experimental",17,12,"ld","upper","audience","w","w","g","g",1,0.457146201160867,NA,NA,NA
"experimental",17,13,"ld","upper","upstairs","w","w","g","g",1,0.40529249532301,NA,NA,NA
"experimental",17,14,"ld","upper","nimp","nw","nw","h","h",1,0.483323507894966,NA,NA,NA
"experimental",17,15,"ld","upper","chone","nw","nw","h","g",0,0.557853133120261,NA,NA,NA
"experimental",17,16,"ld","upper","holdup","w","w","g","g",1,0.669820720126154,NA,NA,NA
"experimental",17,17,"ld","upper","hostade","nw","nw","h","h",1,0.641269316509351,NA,NA,NA
"experimental",17,18,"ld","upper","nimono","nw","nw","h","h",1,0.501990510927499,NA,NA,NA
"experimental",17,19,"ld","upper","rillains","nw","nw","h","h",1,0.568055360090511,NA,NA,NA
"experimental",17,20,"ld","upper","clume","nw","nw","h","h",1,0.543453611449877,NA,NA,NA
"experimental",17,21,"ld","upper","vented","w","w","g","g",1,0.520195341425278,NA,NA,NA
"experimental",17,22,"ld","upper","sonkers","nw","nw","h","h",1,0.529586780042337,NA,NA,NA
"experimental",17,23,"ld","upper","tredits","nw","nw","h","h",1,0.675002945553388,NA,NA,NA
"experimental",17,24,"ld","upper","sprea","nw","nw","h","h",1,0.486445158922834,NA,NA,NA
"experimental",17,25,"ld","upper","flicking","w","w","g","g",1,0.616319614189706,NA,NA,NA
"experimental",17,26,"ld","upper","brank","nw","nw","h","h",1,0.574205962785527,NA,NA,NA
"experimental",17,27,"ld","upper","draze","nw","nw","h","h",1,0.52560236280533,NA,NA,NA
"experimental",17,28,"ld","upper","brighten","w","w","g","g",1,0.599073228885572,NA,NA,NA
"experimental",17,29,"ld","upper","bamps","nw","nw","h","h",1,0.58176824434122,NA,NA,NA
"experimental",17,30,"ld","upper","turntable","w","w","g","h",0,0.821185536149642,NA,NA,NA
"experimental",18,1,"hd","lower","eggays","nw","nw","h","h",1,0.68254701830665,NA,NA,NA
"experimental",18,2,"hd","lower","carony","nw","nw","h","h",1,0.597910514025898,NA,NA,NA
"experimental",18,3,"hd","lower","pexts","nw","nw","h","h",1,0.548097187367603,NA,NA,NA
"experimental",18,4,"hd","lower","fards","nw","nw","h","h",1,0.486110779080263,NA,NA,NA
"experimental",18,5,"hd","lower","cervical","w","w","g","g",1,0.51276879822035,NA,NA,NA
"experimental",18,6,"hd","lower","incorrect","w","w","g","g",1,0.466975975336027,NA,NA,NA
"experimental",18,7,"hd","lower","ounwit","nw","nw","h","h",1,0.510918121663963,NA,NA,NA
"experimental",18,8,"hd","lower","sength","nw","nw","h","h",1,0.593076242276766,NA,NA,NA
"experimental",18,9,"hd","lower","booster","w","w","g","g",1,0.655822785335658,NA,NA,NA
"experimental",18,10,"hd","lower","fallacy","w","w","g","h",0,0.642827990073783,NA,NA,NA
"experimental",18,11,"hd","lower","bureaug","nw","nw","h","h",1,0.607601901294402,NA,NA,NA
"experimental",18,12,"hd","lower","rebool","nw","nw","h","h",1,0.509668004548985,NA,NA,NA
"experimental",18,13,"hd","lower","hanling","nw","nw","h","h",1,0.511718646872396,NA,NA,NA
"experimental",18,14,"hd","lower","seldom","w","w","g","g",1,0.649848973567714,NA,NA,NA
"experimental",18,15,"hd","lower","index","w","w","g","g",1,0.494520597663723,NA,NA,NA
"experimental",18,16,"hd","lower","charcoal","w","w","g","g",1,0.649340120281522,NA,NA,NA
"experimental",18,17,"hd","lower","alarm","w","w","g","g",1,0.454009983090145,NA,NA,NA
"experimental",18,18,"hd","lower","wienegs","nw","nw","h","h",1,0.530073782764703,NA,NA,NA
"experimental",18,19,"hd","lower","butled","nw","nw","h","h",1,0.6914782708036,NA,NA,NA
"experimental",18,20,"hd","lower","brimitar","nw","nw","h","h",1,0.49328041262288,NA,NA,NA
"experimental",18,21,"hd","lower","computer","w","w","g","g",1,0.535960854414952,NA,NA,NA
"experimental",18,22,"hd","lower","chonemic","nw","nw","h","h",1,0.632745610137135,NA,NA,NA
"experimental",18,23,"hd","lower","fomes","nw","nw","h","h",1,0.558057071717485,NA,NA,NA
"experimental",18,24,"hd","lower","intersect","w","w","g","g",1,0.486197850266763,NA,NA,NA
"experimental",18,25,"hd","lower","subpoena","w","w","g","g",1,0.792921169486362,NA,NA,NA
"experimental",18,26,"hd","lower","metebing","nw","nw","h","h",1,0.511674283605316,NA,NA,NA
"experimental",18,27,"hd","lower","permeable","w","w","g","h",0,0.481629427045846,NA,NA,NA
"experimental",18,28,"hd","lower","castaway","w","w","g","g",1,0.557077769167336,NA,NA,NA
"experimental",18,29,"hd","lower","infusion","w","w","g","g",1,0.532175409737647,NA,NA,NA
"experimental",18,30,"hd","lower","usually","w","w","g","g",1,0.445469061121912,NA,NA,NA
"experimental",19,1,"ld","upper","potent","w","w","g","g",1,0.531164324548627,NA,NA,NA
"experimental",19,2,"ld","upper","profats","nw","nw","h","h",1,0.548552407450188,NA,NA,NA
"experimental",19,3,"ld","upper","mitro","nw","nw","h","h",1,0.773318233962527,NA,NA,NA
"experimental",19,4,"ld","upper","lenie","nw","nw","h","h",1,0.508797292679446,NA,NA,NA
"experimental",19,5,"ld","upper","pypecast","nw","nw","h","g",0,0.541825744431662,NA,NA,NA
"experimental",19,6,"ld","upper","oalis","nw","nw","h","h",1,0.510611882698868,NA,NA,NA
"experimental",19,7,"ld","upper","combat","w","w","g","g",1,0.456733357929807,NA,NA,NA
"experimental",19,8,"ld","upper","imotope","nw","nw","h","g",0,0.44474236433507,NA,NA,NA
"experimental",19,9,"ld","upper","nature","w","w","g","g",1,0.537477813266378,NA,NA,NA
"experimental",19,10,"ld","upper","alber","nw","nw","h","g",0,0.490262717307814,NA,NA,NA
"experimental",19,11,"ld","upper","exclusion","w","w","g","g",1,0.604950037391973,NA,NA,NA
"experimental",19,12,"ld","upper","rascaps","nw","nw","h","h",1,0.547037766082212,NA,NA,NA
"experimental",19,13,"ld","upper","slooch","nw","nw","h","h",1,0.619784914997581,NA,NA,NA
"experimental",19,14,"ld","upper","knowledge","w","w","g","g",1,0.473147766457259,NA,NA,NA
"experimental",19,15,"ld","upper","lawsuit","w","w","g","g",1,0.475539410006604,NA,NA,NA
"experimental",19,16,"ld","upper","shests","nw","nw","h","g",0,0.431002994551818,NA,NA,NA
"experimental",19,17,"ld","upper","obtuse","w","w","g","g",1,0.620347732555274,NA,NA,NA
"experimental",19,18,"ld","upper","serfume","nw","nw","h","h",1,0.59375327869202,NA,NA,NA
"experimental",19,19,"ld","upper","defeat","w","w","g","g",1,0.504513588929512,NA,NA,NA
"experimental",19,20,"ld","upper","crudios","nw","nw","h","h",1,0.554584487388638,NA,NA,NA
"experimental",19,21,"ld","upper","saturate","w","w","g","g",1,0.610674223020396,NA,NA,NA
"experimental",19,22,"ld","upper","reforest","w","w","g","g",1,0.600602437296402,NA,NA,NA
"experimental",19,23,"ld","upper","shivering","w","w","g","g",1,0.438705980497616,NA,NA,NA
"experimental",19,24,"ld","upper","misobeyed","nw","nw","h","g",0,0.523441805523362,NA,NA,NA
"experimental",19,25,"ld","upper","harmful","w","w","g","g",1,0.419785378494453,NA,NA,NA
"experimental",19,26,"ld","upper","congraks","nw","nw","h","h",1,0.505187976791603,NA,NA,NA
"experimental",19,27,"ld","upper","companion","w","w","g","g",1,0.459222004740695,NA,NA,NA
"experimental",19,28,"ld","upper","airline","w","w","g","h",0,0.486919912085796,NA,NA,NA
"experimental",19,29,"ld","upper","gallon","w","w","g","g",1,0.602080992125593,NA,NA,NA
"experimental",19,30,"ld","upper","tasher","nw","nw","h","h",1,0.552030288885362,NA,NA,NA
"experimental",20,1,"hd","lower","earnest","w","w","g","g",1,0.551541630818065,NA,NA,NA
"experimental",20,2,"hd","lower","senior","w","w","g","g",1,0.439637940158718,NA,NA,NA
"experimental",20,3,"hd","lower","planofoad","nw","nw","h","h",1,0.476352184772622,NA,NA,NA
"experimental",20,4,"hd","lower","blassed","nw","nw","h","h",1,0.735715399746368,NA,NA,NA
"experimental",20,5,"hd","lower","curtail","w","w","g","h",0,0.48050544727721,NA,NA,NA
"experimental",20,6,"hd","lower","fatho","nw","nw","h","h",1,0.507882217545557,NA,NA,NA
"experimental",20,7,"hd","lower","daylight","w","w","g","g",1,0.429974362697976,NA,NA,NA
"experimental",20,8,"hd","lower","latter","w","w","g","g",1,0.507346547658926,NA,NA,NA
"experimental",20,9,"hd","lower","binder","w","w","g","g",1,0.540574634108452,NA,NA,NA
"experimental",20,10,"hd","lower","provide","w","w","g","g",1,0.557260519340161,NA,NA,NA
"experimental",20,11,"hd","lower","rootsie","nw","nw","h","h",1,0.557242641605626,NA,NA,NA
"experimental",20,12,"hd","lower","outrank","w","w","g","h",0,0.749340881741773,NA,NA,NA
"experimental",20,13,"hd","lower","scrobby","nw","nw","h","h",1,0.758023501306525,NA,NA,NA
"experimental",20,14,"hd","lower","tucker","w","w","g","g",1,0.502079899598357,NA,NA,NA
"experimental",20,15,"hd","lower","stuggard","nw","nw","h","h",1,0.600175027021578,NA,NA,NA
"experimental",20,16,"hd","lower","reconcile","w","w","g","g",1,0.606927844502934,NA,NA,NA
"experimental",20,17,"hd","lower","efcorted","nw","nw","h","h",1,0.588993828570892,NA,NA,NA
"experimental",20,18,"hd","lower","cookbook","w","w","g","g",1,0.555598221129912,NA,NA,NA
"experimental",20,19,"hd","lower","slimped","nw","nw","h","h",1,0.579729189437785,NA,NA,NA
"experimental",20,20,"hd","lower","courier","w","w","g","h",0,0.554092518629659,NA,NA,NA
"experimental",20,21,"hd","lower","chyme","nw","nw","h","h",1,0.730155093348003,NA,NA,NA
"experimental",20,22,"hd","lower","bailmenz","nw","nw","h","h",1,0.58750567273546,NA,NA,NA
"experimental",20,23,"hd","lower","arbitrary","w","w","g","g",1,0.554293808673719,NA,NA,NA
"experimental",20,24,"hd","lower","amplifier","w","w","g","g",1,0.633351135615158,NA,NA,NA
"experimental",20,25,"hd","lower","apology","w","w","g","g",1,0.511731889638213,NA,NA,NA
"experimental",20,26,"hd","lower","mennel","nw","nw","h","h",1,0.521817911335347,NA,NA,NA
"experimental",20,27,"hd","lower","etber","nw","nw","h","h",1,0.579286549982498,NA,NA,NA
"experimental",20,28,"hd","lower","porcupine","target","target","q","q",1,0.666784816007748,1,NA,NA
"experimental",20,29,"hd","lower","tuckel","aftertar1","nw","h","h",1,0.693817936496089,NA,NA,NA
"experimental",20,30,"hd","lower","ronvince","aftertar2","nw","h","h",1,0.720533561669981,NA,NA,NA
"experimental",21,1,"ld","upper","frequency","w","w","g","g",1,0.650931238624253,NA,NA,NA
"experimental",21,2,"ld","upper","migmarole","nw","nw","h","h",1,0.518975682670316,NA,NA,NA
"experimental",21,3,"ld","upper","religious","w","w","g","h",0,0.479479795046245,NA,NA,NA
"experimental",21,4,"ld","upper","minimum","w","w","g","g",1,0.4908748641692,NA,NA,NA
"experimental",21,5,"ld","upper","ethical","w","w","g","g",1,0.541512221944686,NA,NA,NA
"experimental",21,6,"ld","upper","wimpid","nw","nw","h","h",1,0.526230400985696,NA,NA,NA
"experimental",21,7,"ld","upper","hangar","w","w","g","g",1,0.84766941291673,NA,NA,NA
"experimental",21,8,"ld","upper","cemoir","nw","nw","h","h",1,0.548399122433693,NA,NA,NA
"experimental",21,9,"ld","upper","elderly","w","w","g","g",1,0.605177150830059,NA,NA,NA
"experimental",21,10,"ld","upper","expounded","w","w","g","g",1,0.587246776658503,NA,NA,NA
"experimental",21,11,"ld","upper","pranny","nw","nw","h","h",1,0.489982963874354,NA,NA,NA
"experimental",21,12,"ld","upper","ebuating","nw","nw","h","h",1,0.716660714736463,NA,NA,NA
"experimental",21,13,"ld","upper","butterfly","target","target","q","q",1,0.678741047341646,1,NA,NA
"experimental",21,14,"ld","upper","sequence","aftertar1","w","g","g",1,0.705142487890043,NA,NA,NA
"experimental",21,15,"ld","upper","odacles","aftertar2","nw","h","h",1,0.62718530373968,NA,NA,NA
"experimental",21,16,"ld","upper","veclors","aftertar3","nw","h","h",1,0.712642197377136,NA,NA,NA
"experimental",21,17,"ld","upper","happen","nw","w","g","g",1,0.618629152590074,NA,NA,NA
"experimental",21,18,"ld","upper","slutches","w","nw","h","h",1,0.656162131215751,NA,NA,NA
"experimental",21,19,"ld","upper","standard","nw","w","g","g",1,0.499784597171129,NA,NA,NA
"experimental",21,20,"ld","upper","horks","w","nw","h","h",1,0.566952899815988,NA,NA,NA
"experimental",21,21,"ld","upper","sputter","nw","w","g","h",0,0.583099804468475,NA,NA,NA
"experimental",21,22,"ld","upper","bypassed","w","w","g","g",1,0.638417155769275,NA,NA,NA
"experimental",21,23,"ld","upper","persona","w","w","g","g",1,0.714233646787761,NA,NA,NA
"experimental",21,24,"ld","upper","rualify","w","nw","h","h",1,0.532324059786333,NA,NA,NA
"experimental",21,25,"ld","upper","flooted","nw","nw","h","g",0,0.525685130093734,NA,NA,NA
"experimental",21,26,"ld","upper","tining","nw","nw","h","h",1,0.670935761027977,NA,NA,NA
"experimental",21,27,"ld","upper","nomma","nw","nw","h","h",1,0.538528295684046,NA,NA,NA
"experimental",21,28,"ld","upper","ebince","nw","nw","h","h",1,0.595229184968957,NA,NA,NA
"experimental",21,29,"ld","upper","whirlpool","nw","w","g","g",1,0.530007237864993,NA,NA,NA
"experimental",21,30,"ld","upper","peags","w","nw","h","h",1,0.555421761272555,NA,NA,NA
"experimental",22,1,"ld","upper","abhorrent","w","w","g","g",1,0.595420874007687,NA,NA,NA
"experimental",22,2,"ld","upper","ezulated","nw","nw","h","h",1,0.554169988810827,NA,NA,NA
"experimental",22,3,"ld","upper","catacomb","w","w","g","g",1,0.594247564934449,NA,NA,NA
"experimental",22,4,"ld","upper","allained","nw","nw","h","g",0,0.480957025600219,NA,NA,NA
"experimental",22,5,"ld","upper","forecast","w","w","g","g",1,0.604400793669811,NA,NA,NA
"experimental",22,6,"ld","upper","emotion","w","w","g","g",1,0.522468462218058,NA,NA,NA
"experimental",22,7,"ld","upper","oginous","nw","nw","h","h",1,0.459810976761219,NA,NA,NA
"experimental",22,8,"ld","upper","correct","w","w","g","g",1,0.470948474083343,NA,NA,NA
"experimental",22,9,"ld","upper","fomrade","nw","nw","h","h",1,0.586241319645524,NA,NA,NA
"experimental",22,10,"ld","upper","issue","w","w","g","g",1,0.465014059544956,NA,NA,NA
"experimental",22,11,"ld","upper","geborn","nw","nw","h","h",1,0.493019861200992,NA,NA,NA
"experimental",22,12,"ld","upper","rocket","w","w","g","g",1,0.407676855350473,NA,NA,NA
"experimental",22,13,"ld","upper","distrust","w","w","g","g",1,0.533972784161051,NA,NA,NA
"experimental",22,14,"ld","upper","butler","w","w","g","g",1,0.509926238486514,NA,NA,NA
"experimental",22,15,"ld","upper","pamine","nw","nw","h","h",1,0.592527660693122,NA,NA,NA
"experimental",22,16,"ld","upper","amms","nw","nw","h","h",1,0.550603711912117,NA,NA,NA
"experimental",22,17,"ld","upper","absent","w","w","g","g",1,0.487384733174622,NA,NA,NA
"experimental",22,18,"ld","upper","quickel","nw","nw","h","h",1,0.513246199936475,NA,NA,NA
"experimental",22,19,"ld","upper","giving","w","w","g","g",1,0.435281401195425,NA,NA,NA
"experimental",22,20,"ld","upper","sorping","nw","nw","h","h",1,0.472001605054174,NA,NA,NA
"experimental",22,21,"ld","upper","pariah","w","w","g","h",0,0.44339458182003,NA,NA,NA
"experimental",22,22,"ld","upper","alomalous","nw","nw","h","h",1,0.672169655756079,NA,NA,NA
"experimental",22,23,"ld","upper","fracture","w","w","g","g",1,0.531556641492898,NA,NA,NA
"experimental",22,24,"ld","upper","bengths","nw","nw","h","h",1,0.524954791544587,NA,NA,NA
"experimental",22,25,"ld","upper","olerates","nw","nw","h","g",0,0.502358659823585,NA,NA,NA
"experimental",22,26,"ld","upper","leuter","nw","nw","h","h",1,0.536412432737052,NA,NA,NA
"experimental",22,27,"ld","upper","frunted","nw","nw","h","h",1,0.617145962792165,NA,NA,NA
"experimental",22,28,"ld","upper","treason","w","w","g","g",1,0.661427455000194,NA,NA,NA
"experimental",22,29,"ld","upper","suspect","w","w","g","g",1,0.433448602373574,NA,NA,NA
"experimental",22,30,"ld","upper","nollow","nw","nw","h","h",1,0.462851846917147,NA,NA,NA
"experimental",23,1,"hd","lower","wrecber","nw","nw","h","h",1,0.556002456563874,NA,NA,NA
"experimental",23,2,"hd","lower","dabble","w","w","g","h",0,0.484004517138601,NA,NA,NA
"experimental",23,3,"hd","lower","greakable","nw","nw","h","h",1,0.63076118164372,NA,NA,NA
"experimental",23,4,"hd","lower","massacre","w","w","g","g",1,0.57104557666571,NA,NA,NA
"experimental",23,5,"hd","lower","dontrite","nw","nw","h","h",1,0.538506776189024,NA,NA,NA
"experimental",23,6,"hd","lower","grenavier","nw","nw","h","h",1,0.579245166339206,NA,NA,NA
"experimental",23,7,"hd","lower","coupling","w","w","g","g",1,0.498568911247276,NA,NA,NA
"experimental",23,8,"hd","lower","teliever","nw","nw","h","h",1,0.509222054401107,NA,NA,NA
"experimental",23,9,"hd","lower","halter","w","w","g","g",1,0.647401379331313,NA,NA,NA
"experimental",23,10,"hd","lower","dumult","nw","nw","h","h",1,0.564114975049961,NA,NA,NA
"experimental",23,11,"hd","lower","guffy","nw","nw","h","h",1,0.636154960257954,NA,NA,NA
"experimental",23,12,"hd","lower","sunshine","w","w","g","g",1,0.464889908613259,NA,NA,NA
"experimental",23,13,"hd","lower","guitar","w","w","g","g",1,0.515966926222973,NA,NA,NA
"experimental",23,14,"hd","lower","stelled","nw","nw","h","h",1,0.678015343762127,NA,NA,NA
"experimental",23,15,"hd","lower","achieve","w","w","g","g",1,0.449553792312145,NA,NA,NA
"experimental",23,16,"hd","lower","prawls","nw","nw","h","h",1,0.462243010747443,NA,NA,NA
"experimental",23,17,"hd","lower","drauns","nw","nw","h","h",1,0.522320143239085,NA,NA,NA
"experimental",23,18,"hd","lower","imprives","nw","nw","h","h",1,0.739727295722332,NA,NA,NA
"experimental",23,19,"hd","lower","fuhrek","nw","nw","h","h",1,0.62843641406289,NA,NA,NA
"experimental",23,20,"hd","lower","hindsight","w","w","g","g",1,0.689888145670011,NA,NA,NA
"experimental",23,21,"hd","lower","permute","w","w","g","h",0,0.668596426404292,NA,NA,NA
"experimental",23,22,"hd","lower","cooray","nw","nw","h","h",1,0.480014140656749,NA,NA,NA
"experimental",23,23,"hd","lower","hangar","w","w","g","g",1,0.57038708012351,NA,NA,NA
"experimental",23,24,"hd","lower","static","w","w","g","g",1,0.673796860634866,NA,NA,NA
"experimental",23,25,"hd","lower","flamingo","target","target","q","g",0,0.565256501484328,1,1,NA
"experimental",23,26,"hd","lower","warden","aftertar1","w","g","g",1,0.933351764646432,NA,NA,NA
"experimental",23,27,"hd","lower","deeper","aftertar2","w","g","g",1,0.750834003613818,NA,NA,NA
"experimental",23,28,"hd","lower","pigned","aftertar3","nw","h","g",0,0.574768449273506,NA,NA,NA
"experimental",23,29,"hd","lower","undertake","nw","w","g","g",1,0.574194375364641,NA,NA,NA
"experimental",23,30,"hd","lower","selongs","w","nw","h","h",1,0.557603175911936,NA,NA,NA
"experimental",24,1,"hd","lower","carnival","w","w","g","g",1,0.549590971378166,NA,NA,NA
"experimental",24,2,"hd","lower","gymnasium","w","w","g","g",1,0.614216662940635,NA,NA,NA
"experimental",24,3,"hd","lower","pocket","w","w","g","g",1,0.484383591317055,NA,NA,NA
"experimental",24,4,"hd","lower","tharcely","nw","nw","h","h",1,0.614162036529706,NA,NA,NA
"experimental",24,5,"hd","lower","donastic","nw","nw","h","g",0,0.717213269150307,NA,NA,NA
"experimental",24,6,"hd","lower","repayment","w","w","g","h",0,0.583246137033711,NA,NA,NA
"experimental",24,7,"hd","lower","bullet","w","w","g","g",1,0.49467090305825,NA,NA,NA
"experimental",24,8,"hd","lower","calming","w","w","g","g",1,0.568392057417441,NA,NA,NA
"experimental",24,9,"hd","lower","shockwave","w","w","g","g",1,0.719785014318404,NA,NA,NA
"experimental",24,10,"hd","lower","purport","w","w","g","h",0,0.521328260061637,NA,NA,NA
"experimental",24,11,"hd","lower","pived","nw","nw","h","h",1,0.618709271324406,NA,NA,NA
"experimental",24,12,"hd","lower","slightly","w","w","g","g",1,0.728146827875207,NA,NA,NA
"experimental",24,13,"hd","lower","sengry","nw","nw","h","h",1,0.825496718639442,NA,NA,NA
"experimental",24,14,"hd","lower","ausht","nw","nw","h","h",1,0.583015050766335,NA,NA,NA
"experimental",24,15,"hd","lower","etcess","nw","nw","h","h",1,0.51835956298055,NA,NA,NA
"experimental",24,16,"hd","lower","scrib","nw","nw","h","h",1,0.495755816667952,NA,NA,NA
"experimental",24,17,"hd","lower","hodels","nw","nw","h","h",1,0.521467309104082,NA,NA,NA
"experimental",24,18,"hd","lower","urique","nw","nw","h","h",1,0.634870080881228,NA,NA,NA
"experimental",24,19,"hd","lower","painter","w","w","g","g",1,0.535610583252492,NA,NA,NA
"experimental",24,20,"hd","lower","showdown","w","w","g","g",1,0.448373199718844,NA,NA,NA
"experimental",24,21,"hd","lower","giraffe","target","target","q","q",1,0.701062060598815,1,NA,NA
"experimental",24,22,"hd","lower","paterways","aftertar1","nw","h","h",1,0.751189902952319,NA,NA,NA
"experimental",24,23,"hd","lower","pammed","aftertar2","nw","h","h",1,0.551264194869873,NA,NA,NA
"experimental",24,24,"hd","lower","greft","aftertar3","nw","h","h",1,0.591311974769269,NA,NA,NA
"experimental",24,25,"hd","lower","series","nw","w","g","g",1,0.550268007792511,NA,NA,NA
"experimental",24,26,"hd","lower","melodic","w","w","g","g",1,0.565973597265838,NA,NA,NA
"experimental",24,27,"hd","lower","swatches","w","w","g","h",0,0.68584314277814,NA,NA,NA
"experimental",24,28,"hd","lower","caloric","w","w","g","g",1,0.768553155666268,NA,NA,NA
"experimental",24,29,"hd","lower","begut","w","nw","h","g",0,0.744010337334657,NA,NA,NA
"experimental",24,30,"hd","lower","tapling","nw","nw","h","h",1,0.608811627974319,NA,NA,NA
"experimental",25,1,"hd","lower","actively","w","w","g","g",1,0.502806927454913,NA,NA,NA
"experimental",25,2,"hd","lower","trophy","w","w","g","g",1,0.464570095812633,NA,NA,NA
"experimental",25,3,"hd","lower","intended","w","w","g","g",1,0.516956160847258,NA,NA,NA
"experimental",25,4,"hd","lower","reprint","w","w","g","g",1,0.559027766469626,NA,NA,NA
"experimental",25,5,"hd","lower","recipus","nw","nw","h","h",1,0.60709470335496,NA,NA,NA
"experimental",25,6,"hd","lower","cavern","w","w","g","g",1,0.541156984745612,NA,NA,NA
"experimental",25,7,"hd","lower","tipoff","w","w","g","q",0,0.661917437344528,NA,NA,NA
"experimental",25,8,"hd","lower","vorm","nw","nw","h","h",1,0.578019879410022,NA,NA,NA
"experimental",25,9,"hd","lower","cherry","w","w","g","g",1,0.57738819946826,NA,NA,NA
"experimental",25,10,"hd","lower","clattest","nw","nw","h","h",1,0.640807143973689,NA,NA,NA
"experimental",25,11,"hd","lower","batire","nw","nw","h","h",1,0.588546223078993,NA,NA,NA
"experimental",25,12,"hd","lower","enacted","w","w","g","g",1,0.65124873393961,NA,NA,NA
"experimental",25,13,"hd","lower","hotplate","w","w","g","g",1,0.551378744795329,NA,NA,NA
"experimental",25,14,"hd","lower","pripend","nw","nw","h","h",1,0.535412603899204,NA,NA,NA
"experimental",25,15,"hd","lower","afford","w","w","g","g",1,0.440160698348336,NA,NA,NA
"experimental",25,16,"hd","lower","mamps","nw","nw","h","h",1,0.596861355884357,NA,NA,NA
"experimental",25,17,"hd","lower","chraps","nw","nw","h","h",1,0.539627114197174,NA,NA,NA
"experimental",25,18,"hd","lower","ragtam","nw","nw","h","h",1,0.468315481122772,NA,NA,NA
"experimental",25,19,"hd","lower","gablus","nw","nw","h","h",1,0.527717894683519,NA,NA,NA
"experimental",25,20,"hd","lower","topefuls","nw","nw","h","h",1,0.577150822887234,NA,NA,NA
"experimental",25,21,"hd","lower","spaceship","w","w","g","g",1,0.487526761840854,NA,NA,NA
"experimental",25,22,"hd","lower","inforl","nw","nw","h","h",1,0.5062811671296,NA,NA,NA
"experimental",25,23,"hd","lower","triplet","w","w","g","g",1,0.540294880675901,NA,NA,NA
"experimental",25,24,"hd","lower","crocodile","target","target","q","g",0,0.477022599804514,1,1,NA
"experimental",25,25,"hd","lower","frogmy","aftertar1","nw","h","h",1,0.784433218583217,NA,NA,NA
"experimental",25,26,"hd","lower","attended","aftertar2","w","g","g",1,0.64713884149387,NA,NA,NA
"experimental",25,27,"hd","lower","forfeit","aftertar3","w","g","g",1,0.579904987157533,NA,NA,NA
"experimental",25,28,"hd","lower","trocess","w","nw","h","h",1,0.547184429716253,NA,NA,NA
"experimental",25,29,"hd","lower","sopes","nw","nw","h","h",1,0.547983961717364,NA,NA,NA
"experimental",25,30,"hd","lower","enabled","nw","w","g","h",0,0.476738211403244,NA,NA,NA
"experimental",26,1,"ld","upper","ganter","nw","nw","h","h",1,0.60743702885793,NA,NA,NA
"experimental",26,2,"ld","upper","deakers","nw","nw","h","h",1,0.57354216913609,NA,NA,NA
"experimental",26,3,"ld","upper","dusmy","nw","nw","h","h",1,0.548985114831339,NA,NA,NA
"experimental",26,4,"ld","upper","crundle","nw","nw","h","h",1,0.557667734396091,NA,NA,NA
"experimental",26,5,"ld","upper","owner","w","w","g","g",1,0.485786331311829,NA,NA,NA
"experimental",26,6,"ld","upper","surdens","nw","nw","h","h",1,0.487473790775766,NA,NA,NA
"experimental",26,7,"ld","upper","breiled","nw","nw","h","h",1,0.546243200119534,NA,NA,NA
"experimental",26,8,"ld","upper","moyeur","nw","nw","h","h",1,0.450971430418576,NA,NA,NA
"experimental",26,9,"ld","upper","markot","nw","nw","h","h",1,0.439045657446513,NA,NA,NA
"experimental",26,10,"ld","upper","phonology","w","w","g","h",0,0.843782330010072,NA,NA,NA
"experimental",26,11,"ld","upper","prame","nw","nw","h","h",1,0.608485524860043,NA,NA,NA
"experimental",26,12,"ld","upper","hatred","w","w","g","g",1,0.502580807224149,NA,NA,NA
"experimental",26,13,"ld","upper","inducing","w","w","g","g",1,0.456646617812112,NA,NA,NA
"experimental",26,14,"ld","upper","garment","w","w","g","g",1,0.524694240123608,NA,NA,NA
"experimental",26,15,"ld","upper","shamrock","w","w","g","g",1,0.558104414606532,NA,NA,NA
"experimental",26,16,"ld","upper","demon","w","w","g","g",1,0.421153687298101,NA,NA,NA
"experimental",26,17,"ld","upper","entertain","w","w","g","g",1,0.498625193003136,NA,NA,NA
"experimental",26,18,"ld","upper","elalt","nw","nw","h","h",1,0.549305589769574,NA,NA,NA
"experimental",26,19,"ld","upper","beggarlan","nw","nw","h","h",1,0.518025514206784,NA,NA,NA
"experimental",26,20,"ld","upper","figure","w","w","g","g",1,0.431403588225294,NA,NA,NA
"experimental",26,21,"ld","upper","midday","w","w","g","g",1,0.620810236158832,NA,NA,NA
"experimental",26,22,"ld","upper","lifetime","w","w","g","g",1,0.4501437575409,NA,NA,NA
"experimental",26,23,"ld","upper","gradielts","nw","nw","h","h",1,0.518933305818791,NA,NA,NA
"experimental",26,24,"ld","upper","misest","nw","nw","h","h",1,0.775382119052665,NA,NA,NA
"experimental",26,25,"ld","upper","condensed","w","w","g","g",1,0.487197016966093,NA,NA,NA
"experimental",26,26,"ld","upper","decency","w","w","g","g",1,0.489553898254599,NA,NA,NA
"experimental",26,27,"ld","upper","explosion","w","w","g","g",1,0.403898363126245,NA,NA,NA
"experimental",26,28,"ld","upper","matter","w","w","g","g",1,0.450369215632236,NA,NA,NA
"experimental",26,29,"ld","upper","gepealed","nw","nw","h","h",1,0.463062406896824,NA,NA,NA
"experimental",26,30,"ld","upper","ludictous","nw","nw","h","h",1,0.45115716021246,NA,NA,NA
"experimental",27,1,"ld","upper","podes","nw","nw","h","h",1,0.470570062043407,NA,NA,NA
"experimental",27,2,"ld","upper","blueberry","w","w","g","g",1,0.425920089870488,NA,NA,NA
"experimental",27,3,"ld","upper","gaioty","nw","nw","h","h",1,0.471340791028524,NA,NA,NA
"experimental",27,4,"ld","upper","expected","w","w","g","g",1,0.434719576845055,NA,NA,NA
"experimental",27,5,"ld","upper","addition","w","w","g","g",1,0.455480261191042,NA,NA,NA
"experimental",27,6,"ld","upper","oppose","w","w","g","g",1,0.491541306370891,NA,NA,NA
"experimental",27,7,"ld","upper","lecked","nw","nw","h","g",0,0.430253453992918,NA,NA,NA
"experimental",27,8,"ld","upper","phraining","nw","nw","h","h",1,0.467654336027408,NA,NA,NA
"experimental",27,9,"ld","upper","grefab","nw","nw","h","h",1,0.511058826053159,NA,NA,NA
"experimental",27,10,"ld","upper","bedding","w","w","g","g",1,0.601137776114228,NA,NA,NA
"experimental",27,11,"ld","upper","erony","nw","nw","h","g",0,0.614244472749306,NA,NA,NA
"experimental",27,12,"ld","upper","acorn","w","w","g","g",1,0.540396849974059,NA,NA,NA
"experimental",27,13,"ld","upper","tinion","nw","nw","h","h",1,0.508990637064926,NA,NA,NA
"experimental",27,14,"ld","upper","labitable","nw","nw","h","g",0,0.583071332521286,NA,NA,NA
"experimental",27,15,"ld","upper","integral","w","w","g","g",1,0.686406622473442,NA,NA,NA
"experimental",27,16,"ld","upper","blocking","w","w","g","g",1,0.473187825823516,NA,NA,NA
"experimental",27,17,"ld","upper","boutique","w","w","g","h",0,0.588741884947012,NA,NA,NA
"experimental",27,18,"ld","upper","dishwater","w","w","g","g",1,0.763237840440524,NA,NA,NA
"experimental",27,19,"ld","upper","podges","nw","nw","h","h",1,0.507311123259569,NA,NA,NA
"experimental",27,20,"ld","upper","bentler","nw","nw","h","h",1,0.837405607084293,NA,NA,NA
"experimental",27,21,"ld","upper","volume","w","w","g","g",1,0.489129467601742,NA,NA,NA
"experimental",27,22,"ld","upper","lignpost","nw","nw","h","h",1,0.587905604270418,NA,NA,NA
"experimental",27,23,"ld","upper","asthmatic","w","w","g","h",0,0.826620367338364,NA,NA,NA
"experimental",27,24,"ld","upper","movie","w","w","g","g",1,0.504041484319714,NA,NA,NA
"experimental",27,25,"ld","upper","smabled","nw","nw","h","h",1,0.618215316150781,NA,NA,NA
"experimental",27,26,"ld","upper","bellicove","nw","nw","h","h",1,0.535646007651849,NA,NA,NA
"experimental",27,27,"ld","upper","tusied","nw","nw","h","h",1,0.608318003870409,NA,NA,NA
"experimental",27,28,"ld","upper","talent","w","w","g","g",1,0.494429884716737,NA,NA,NA
"experimental",27,29,"ld","upper","formation","w","w","g","g",1,0.497199940306928,NA,NA,NA
"experimental",27,30,"ld","upper","shurk","nw","nw","h","h",1,0.491860125963285,NA,NA,NA
"experimental",28,1,"hd","lower","asclibed","nw","nw","h","h",1,0.534577316430841,NA,NA,NA
"experimental",28,2,"hd","lower","unspoken","w","w","g","g",1,0.535331491958459,NA,NA,NA
"experimental",28,3,"hd","lower","agony","w","w","g","g",1,0.456027849568272,NA,NA,NA
"experimental",28,4,"hd","lower","egcused","nw","nw","h","h",1,0.572111950402359,NA,NA,NA
"experimental",28,5,"hd","lower","handed","w","w","g","g",1,0.571514370583827,NA,NA,NA
"experimental",28,6,"hd","lower","cripet","nw","nw","h","h",1,0.561911047709145,NA,NA,NA
"experimental",28,7,"hd","lower","bookend","w","w","g","h",0,0.650087012288168,NA,NA,NA
"experimental",28,8,"hd","lower","soluced","nw","nw","h","h",1,0.82271143386879,NA,NA,NA
"experimental",28,9,"hd","lower","capobly","nw","nw","h","h",1,0.516193046453736,NA,NA,NA
"experimental",28,10,"hd","lower","emergence","w","w","g","g",1,0.502117972549968,NA,NA,NA
"experimental",28,11,"hd","lower","accessory","w","w","g","g",1,0.440311003742863,NA,NA,NA
"experimental",28,12,"hd","lower","gewer","nw","nw","h","h",1,0.508972428261586,NA,NA,NA
"experimental",28,13,"hd","lower","culinary","w","w","g","g",1,0.599067269640727,NA,NA,NA
"experimental",28,14,"hd","lower","pleamed","nw","nw","h","h",1,0.62157003986249,NA,NA,NA
"experimental",28,15,"hd","lower","outlaved","nw","nw","h","g",0,0.538633575674794,NA,NA,NA
"experimental",28,16,"hd","lower","overwork","w","w","g","g",1,0.522355567637533,NA,NA,NA
"experimental",28,17,"hd","lower","gairs","nw","nw","h","h",1,0.452270214699638,NA,NA,NA
"experimental",28,18,"hd","lower","miurnal","nw","nw","h","h",1,0.544364051615048,NA,NA,NA
"experimental",28,19,"hd","lower","exploit","w","w","g","g",1,0.553354234421931,NA,NA,NA
"experimental",28,20,"hd","lower","thrapping","nw","nw","h","h",1,0.489200316401366,NA,NA,NA
"experimental",28,21,"hd","lower","resume","w","w","g","g",1,0.492026653746507,NA,NA,NA
"experimental",28,22,"hd","lower","antwers","nw","nw","h","h",1,0.542712678688076,NA,NA,NA
"experimental",28,23,"hd","lower","picnic","w","w","g","g",1,0.431412527092107,NA,NA,NA
"experimental",28,24,"hd","lower","tenpince","nw","nw","h","h",1,0.508885357075087,NA,NA,NA
"experimental",28,25,"hd","lower","perform","w","w","g","g",1,0.462917729678338,NA,NA,NA
"experimental",28,26,"hd","lower","parlayid","nw","nw","h","h",1,0.450000073527917,NA,NA,NA
"experimental",28,27,"hd","lower","pressures","w","w","g","g",1,0.59869349256951,NA,NA,NA
"experimental",28,28,"hd","lower","pretzel","w","w","g","h",0,0.517669283799478,NA,NA,NA
"experimental",28,29,"hd","lower","regional","w","w","g","g",1,0.494890732974454,NA,NA,NA
"experimental",28,30,"hd","lower","sunhess","nw","nw","h","h",1,0.513571309843428,NA,NA,NA
"experimental",29,1,"ld","upper","smolvers","nw","nw","h","h",1,0.53970292903341,NA,NA,NA
"experimental",29,2,"ld","upper","yearnungs","nw","nw","h","h",1,0.492325940259434,NA,NA,NA
"experimental",29,3,"ld","upper","rewrite","w","w","g","g",1,0.599248033397089,NA,NA,NA
"experimental",29,4,"ld","upper","fullity","nw","nw","h","g",0,0.653825776214944,NA,NA,NA
"experimental",29,5,"ld","upper","presence","w","w","g","g",1,0.481896599851098,NA,NA,NA
"experimental",29,6,"ld","upper","pender","nw","nw","h","g",0,0.453315731079783,NA,NA,NA
"experimental",29,7,"ld","upper","emission","w","w","g","g",1,0.481305972485643,NA,NA,NA
"experimental",29,8,"ld","upper","grested","nw","nw","h","h",1,0.580703525950412,NA,NA,NA
"experimental",29,9,"ld","upper","uncounted","w","w","g","g",1,0.532022786858761,NA,NA,NA
"experimental",29,10,"ld","upper","country","w","w","g","g",1,0.493485013357713,NA,NA,NA
"experimental",29,11,"ld","upper","bropic","nw","nw","h","h",1,0.519060105304561,NA,NA,NA
"experimental",29,12,"ld","upper","contact","w","w","g","g",1,0.472036367315013,NA,NA,NA
"experimental",29,13,"ld","upper","category","w","w","g","g",1,0.412022137962595,NA,NA,NA
"experimental",29,14,"ld","upper","optional","w","w","g","g",1,0.394153342654135,NA,NA,NA
"experimental",29,15,"ld","upper","glassware","w","w","g","g",1,0.472778624352031,NA,NA,NA
"experimental",29,16,"ld","upper","divider","w","w","g","h",0,0.4522188989813,NA,NA,NA
"experimental",29,17,"ld","upper","egpended","nw","nw","h","h",1,0.592348221213797,NA,NA,NA
"experimental",29,18,"ld","upper","bettled","nw","nw","h","h",1,0.59915069906674,NA,NA,NA
"experimental",29,19,"ld","upper","pregs","nw","nw","h","h",1,0.53381817486661,NA,NA,NA
"experimental",29,20,"ld","upper","landing","w","w","g","g",1,0.438633476353061,NA,NA,NA
"experimental",29,21,"ld","upper","classify","w","w","g","g",1,0.451289587873362,NA,NA,NA
"experimental",29,22,"ld","upper","fudden","nw","nw","h","g",0,0.438318629589958,NA,NA,NA
"experimental",29,23,"ld","upper","prama","nw","nw","h","h",1,0.619124100971931,NA,NA,NA
"experimental",29,24,"ld","upper","praiged","nw","nw","h","h",1,0.472534295319747,NA,NA,NA
"experimental",29,25,"ld","upper","golemic","nw","nw","h","h",1,0.483890629350753,NA,NA,NA
"experimental",29,26,"ld","upper","atch","nw","nw","h","h",1,0.56665758613326,NA,NA,NA
"experimental",29,27,"ld","upper","twarfs","nw","nw","h","h",1,0.598730241244994,NA,NA,NA
"experimental",29,28,"ld","upper","expired","w","w","g","g",1,0.445446217350764,NA,NA,NA
"experimental",29,29,"ld","upper","parody","w","w","g","g",1,0.450153027475608,NA,NA,NA
"experimental",29,30,"ld","upper","artifact","w","w","g","g",1,0.494908941778704,NA,NA,NA
"experimental",30,1,"hd","lower","atabaster","nw","nw","h","h",1,0.537612889480442,NA,NA,NA
"experimental",30,2,"hd","lower","favoting","nw","nw","h","h",1,0.6342847506221,NA,NA,NA
"experimental",30,3,"hd","lower","noils","nw","nw","h","h",1,0.57508329603661,NA,NA,NA
"experimental",30,4,"hd","lower","handcuff","w","w","g","g",1,0.558410322502823,NA,NA,NA
"experimental",30,5,"hd","lower","dehydrate","w","w","g","g",1,0.606537182903594,NA,NA,NA
"experimental",30,6,"hd","lower","atble","nw","nw","h","h",1,0.54048491436879,NA,NA,NA
"experimental",30,7,"hd","lower","dialogues","w","w","g","g",1,0.54839250105033,NA,NA,NA
"experimental",30,8,"hd","lower","cills","nw","nw","h","h",1,0.46917659198516,NA,NA,NA
"experimental",30,9,"hd","lower","overflow","w","w","g","g",1,0.40829860321719,NA,NA,NA
"experimental",30,10,"hd","lower","vergas","nw","nw","h","h",1,0.558542088024296,NA,NA,NA
"experimental",30,11,"hd","lower","disperse","w","w","g","g",1,0.502604975272334,NA,NA,NA
"experimental",30,12,"hd","lower","splum","nw","nw","h","h",1,0.496661952935028,NA,NA,NA
"experimental",30,13,"hd","lower","rejoiced","w","w","g","g",1,0.451480945843286,NA,NA,NA
"experimental",30,14,"hd","lower","stifle","w","w","g","g",1,0.423536723048528,NA,NA,NA
"experimental",30,15,"hd","lower","satisfies","w","w","g","g",1,0.436941050850692,NA,NA,NA
"experimental",30,16,"hd","lower","appain","nw","nw","h","h",1,0.425690658948042,NA,NA,NA
"experimental",30,17,"hd","lower","caterpillar","target","target","q","g",0,0.406102621535865,1,1,NA
"experimental",30,18,"hd","lower","pegend","aftertar1","nw","h","h",1,0.66011741436796,NA,NA,NA
"experimental",30,19,"hd","lower","measure","aftertar2","w","g","g",1,0.504239463672093,NA,NA,NA
"experimental",30,20,"hd","lower","legalosm","aftertar3","nw","h","h",1,0.490300459190621,NA,NA,NA
"experimental",30,21,"hd","lower","rangel","nw","nw","h","h",1,0.573004843903618,NA,NA,NA
"experimental",30,22,"hd","lower","describe","nw","w","g","h",0,0.492398113334275,NA,NA,NA
"experimental",30,23,"hd","lower","define","w","w","g","g",1,0.582870373546939,NA,NA,NA
"experimental",30,24,"hd","lower","demise","w","w","g","h",0,0.622518221911378,NA,NA,NA
"experimental",30,25,"hd","lower","casino","w","w","g","g",1,0.459908311091567,NA,NA,NA
"experimental",30,26,"hd","lower","thamp","w","nw","h","h",1,0.488041243302178,NA,NA,NA
"experimental",30,27,"hd","lower","reddar","nw","nw","h","h",1,0.513734858003772,NA,NA,NA
"experimental",30,28,"hd","lower","ulcer","nw","w","g","g",1,0.675846840820668,NA,NA,NA
"experimental",30,29,"hd","lower","mosary","w","nw","h","g",0,0.471249415942111,NA,NA,NA
"experimental",30,30,"hd","lower","surface","nw","w","g","h",0,0.530616405103501,NA,NA,NA
"experimental",31,1,"ld","upper","saucer","w","w","g","g",1,0.588831604686675,NA,NA,NA
"experimental",31,2,"ld","upper","unrealon","nw","nw","h","h",1,0.682726457786885,NA,NA,NA
"experimental",31,3,"ld","upper","cutout","w","w","g","g",1,0.582018201550454,NA,NA,NA
"experimental",31,4,"ld","upper","ephically","nw","nw","h","g",0,0.508249373234321,NA,NA,NA
"experimental",31,5,"ld","upper","clarms","nw","nw","h","h",1,0.599453296271349,NA,NA,NA
"experimental",31,6,"ld","upper","failure","w","w","g","g",1,0.478195577808037,NA,NA,NA
"experimental",31,7,"ld","upper","susher","nw","nw","h","h",1,0.489576410956943,NA,NA,NA
"experimental",31,8,"ld","upper","committed","w","w","g","g",1,0.476287626288467,NA,NA,NA
"experimental",31,9,"ld","upper","bloves","nw","nw","h","h",1,0.527724184996259,NA,NA,NA
"experimental",31,10,"ld","upper","bother","w","w","g","g",1,0.497216162694713,NA,NA,NA
"experimental",31,11,"ld","upper","harfing","nw","nw","h","h",1,0.539933353162269,NA,NA,NA
"experimental",31,12,"ld","upper","outfit","w","w","g","h",0,0.443715387827069,NA,NA,NA
"experimental",31,13,"ld","upper","tablet","w","w","g","g",1,0.544369348722284,NA,NA,NA
"experimental",31,14,"ld","upper","maiden","w","w","g","h",0,0.505140302833752,NA,NA,NA
"experimental",31,15,"ld","upper","priant","nw","nw","h","h",1,0.555188357521729,NA,NA,NA
"experimental",31,16,"ld","upper","exemplify","w","w","g","g",1,0.451244893537478,NA,NA,NA
"experimental",31,17,"ld","upper","peems","nw","nw","h","h",1,0.486679886951606,NA,NA,NA
"experimental",31,18,"ld","upper","bamboo","w","w","g","g",1,0.409368618714325,NA,NA,NA
"experimental",31,19,"ld","upper","newstrint","nw","nw","h","h",1,0.655455960716608,NA,NA,NA
"experimental",31,20,"ld","upper","rabbit","target","target","q","g",0,0.579531872223924,1,1,NA
"experimental",31,21,"ld","upper","grieving","aftertar1","w","g","g",1,1.06713912621399,NA,NA,NA
"experimental",31,22,"ld","upper","crazy","aftertar2","w","g","g",1,0.476630613929956,NA,NA,NA
"experimental",31,23,"ld","upper","detrabe","aftertar3","nw","h","h",1,0.672135555632849,NA,NA,NA
"experimental",31,24,"ld","upper","fillings","nw","w","g","h",0,0.651480151276701,NA,NA,NA
"experimental",31,25,"ld","upper","fabstand","w","nw","h","h",1,0.70292597992102,NA,NA,NA
"experimental",31,26,"ld","upper","admire","nw","w","g","g",1,0.544950375083317,NA,NA,NA
"experimental",31,27,"ld","upper","pracking","w","nw","h","h",1,0.553634649993,NA,NA,NA
"experimental",31,28,"ld","upper","rarely","nw","w","g","g",1,0.457686174947412,NA,NA,NA
"experimental",31,29,"ld","upper","miability","w","nw","h","h",1,0.645800991052965,NA,NA,NA
"experimental",31,30,"ld","upper","trises","nw","nw","h","h",1,0.770560427931741,NA,NA,NA
"experimental",32,1,"ld","upper","seeming","w","w","g","h",0,0.585868535781628,NA,NA,NA
"experimental",32,2,"ld","upper","kilotin","nw","nw","h","h",1,0.592025759859098,NA,NA,NA
"experimental",32,3,"ld","upper","finish","w","w","g","g",1,0.510831381546268,NA,NA,NA
"experimental",32,4,"ld","upper","forgery","w","w","g","g",1,0.509769311708624,NA,NA,NA
"experimental",32,5,"ld","upper","delegate","w","w","g","g",1,0.559594887926323,NA,NA,NA
"experimental",32,6,"ld","upper","fassed","nw","nw","h","h",1,0.478766009955507,NA,NA,NA
"experimental",32,7,"ld","upper","abraid","nw","nw","h","h",1,0.673996164263372,NA,NA,NA
"experimental",32,8,"ld","upper","nauling","nw","nw","h","h",1,0.517523944442473,NA,NA,NA
"experimental",32,9,"ld","upper","gigoho","nw","nw","h","h",1,0.462806490443654,NA,NA,NA
"experimental",32,10,"ld","upper","chemical","w","w","g","g",1,0.458955825142766,NA,NA,NA
"experimental",32,11,"ld","upper","superstar","w","w","g","g",1,0.462998841619992,NA,NA,NA
"experimental",32,12,"ld","upper","gounts","nw","nw","h","h",1,0.442978758966092,NA,NA,NA
"experimental",32,13,"ld","upper","churnad","nw","nw","h","h",1,0.495765417673283,NA,NA,NA
"experimental",32,14,"ld","upper","trembles","w","w","g","g",1,0.546476934940074,NA,NA,NA
"experimental",32,15,"ld","upper","latirizes","nw","nw","h","h",1,0.451201192409826,NA,NA,NA
"experimental",32,16,"ld","upper","frowsed","nw","nw","h","h",1,0.59843757611452,NA,NA,NA
"experimental",32,17,"ld","upper","befin","nw","nw","h","h",1,0.516982646379802,NA,NA,NA
"experimental",32,18,"ld","upper","ready","w","w","g","g",1,0.551088397149215,NA,NA,NA
"experimental",32,19,"ld","upper","blanned","nw","nw","h","h",1,0.623166124240925,NA,NA,NA
"experimental",32,20,"ld","upper","wrestle","w","w","g","g",1,0.46856014122568,NA,NA,NA
"experimental",32,21,"ld","upper","walnut","w","w","g","g",1,0.551927988517491,NA,NA,NA
"experimental",32,22,"ld","upper","downtrund","nw","nw","h","h",1,0.488024358774965,NA,NA,NA
"experimental",32,23,"ld","upper","arrested","w","w","g","g",1,0.738662577331525,NA,NA,NA
"experimental",32,24,"ld","upper","elpousal","nw","nw","h","h",1,0.459425943337919,NA,NA,NA
"experimental",32,25,"ld","upper","kickoff","w","w","g","g",1,0.415484128079697,NA,NA,NA
"experimental",32,26,"ld","upper","overcoat","w","w","g","g",1,0.58862601074452,NA,NA,NA
"experimental",32,27,"ld","upper","pallir","nw","nw","h","h",1,0.43520095139138,NA,NA,NA
"experimental",32,28,"ld","upper","clypaper","nw","nw","h","g",0,0.608008454212722,NA,NA,NA
"experimental",32,29,"ld","upper","embrace","w","w","g","g",1,0.573925216144744,NA,NA,NA
"experimental",32,30,"ld","upper","helpful","w","w","g","h",0,0.461998350644535,NA,NA,NA
"experimental",33,1,"hd","lower","abstain","w","w","g","g",1,0.618623193345229,NA,NA,NA
"experimental",33,2,"hd","lower","unmarked","w","w","g","g",1,0.471009059738208,NA,NA,NA
"experimental",33,3,"hd","lower","aggepting","nw","nw","h","h",1,0.514458575169556,NA,NA,NA
"experimental",33,4,"hd","lower","eugenifs","nw","nw","h","h",1,0.500431506293353,NA,NA,NA
"experimental",33,5,"hd","lower","ensues","w","w","g","g",1,0.558599694057193,NA,NA,NA
"experimental",33,6,"hd","lower","gremieres","nw","nw","h","h",1,0.51864560672675,NA,NA,NA
"experimental",33,7,"hd","lower","compose","w","w","g","g",1,0.471342777443169,NA,NA,NA
"experimental",33,8,"hd","lower","rainfall","w","w","g","g",1,0.434717921500123,NA,NA,NA
"experimental",33,9,"hd","lower","stalemate","w","w","g","g",1,0.455519989490313,NA,NA,NA
"experimental",33,10,"hd","lower","slending","nw","nw","h","g",0,0.539572818856868,NA,NA,NA
"experimental",33,11,"hd","lower","moozy","nw","nw","h","h",1,0.452337090668152,NA,NA,NA
"experimental",33,12,"hd","lower","subber","nw","nw","h","h",1,0.583521586567258,NA,NA,NA
"experimental",33,13,"hd","lower","glating","nw","nw","h","h",1,0.542992432121537,NA,NA,NA
"experimental",33,14,"hd","lower","plapping","nw","nw","h","h",1,0.55957800340002,NA,NA,NA
"experimental",33,15,"hd","lower","nameplate","w","w","g","g",1,0.519565647898162,NA,NA,NA
"experimental",33,16,"hd","lower","catgup","nw","nw","h","h",1,0.585008749195367,NA,NA,NA
"experimental",33,17,"hd","lower","heaviest","w","w","g","g",1,0.454996238092463,NA,NA,NA
"experimental",33,18,"hd","lower","even","w","w","g","g",1,0.683058520145096,NA,NA,NA
"experimental",33,19,"hd","lower","machinery","w","w","g","g",1,0.558280543395085,NA,NA,NA
"experimental",33,20,"hd","lower","gackpedal","nw","nw","h","h",1,0.534397876951516,NA,NA,NA
"experimental",33,21,"hd","lower","aicline","nw","nw","h","h",1,0.646464784702403,NA,NA,NA
"experimental",33,22,"hd","lower","lizard","target","target","q","q",1,0.554199785035053,1,NA,NA
"experimental",33,23,"hd","lower","remade","aftertar1","w","g","g",1,0.53024626979186,NA,NA,NA
"experimental",33,24,"hd","lower","diatonic","aftertar2","w","g","h",0,0.571310431986603,NA,NA,NA
"experimental",33,25,"hd","lower","defensa","aftertar3","nw","h","h",1,0.570204992091021,NA,NA,NA
"experimental",33,26,"hd","lower","goltish","nw","nw","h","h",1,0.529882093725064,NA,NA,NA
"experimental",33,27,"hd","lower","fictional","nw","w","g","g",1,0.499195294081801,NA,NA,NA
"experimental",33,28,"hd","lower","mixture","w","w","g","g",1,0.518015251062934,NA,NA,NA
"experimental",33,29,"hd","lower","gunrunker","w","nw","h","h",1,0.438667907544186,NA,NA,NA
"experimental",33,30,"hd","lower","orange","nw","w","g","g",1,0.539394372583956,NA,NA,NA
"experimental",34,1,"hd","lower","forgive","w","w","g","g",1,0.484352801885507,NA,NA,NA
"experimental",34,2,"hd","lower","lofty","w","w","g","h",0,0.454973394320405,NA,NA,NA
"experimental",34,3,"hd","lower","otoist","nw","nw","h","h",1,0.530998127835119,NA,NA,NA
"experimental",34,4,"hd","lower","borrent","nw","nw","h","h",1,0.604420988888705,NA,NA,NA
"experimental",34,5,"hd","lower","plunging","w","w","g","g",1,0.498525210119624,NA,NA,NA
"experimental",34,6,"hd","lower","female","w","w","g","g",1,0.493207908478325,NA,NA,NA
"experimental",34,7,"hd","lower","doxing","nw","nw","h","g",0,0.886966990119618,NA,NA,NA
"experimental",34,8,"hd","lower","phambled","nw","nw","h","h",1,0.521693098266041,NA,NA,NA
"experimental",34,9,"hd","lower","advantage","w","w","g","g",1,0.459105799468489,NA,NA,NA
"experimental",34,10,"hd","lower","seartfelt","nw","nw","h","h",1,0.647153408537633,NA,NA,NA
"experimental",34,11,"hd","lower","rapport","w","w","g","h",0,0.531905588378322,NA,NA,NA
"experimental",34,12,"hd","lower","lutton","nw","nw","h","h",1,0.701347111138602,NA,NA,NA
"experimental",34,13,"hd","lower","grummer","nw","nw","h","h",1,0.703407685536149,NA,NA,NA
"experimental",34,14,"hd","lower","butcher","w","w","g","g",1,0.729424092661247,NA,NA,NA
"experimental",34,15,"hd","lower","runabouk","nw","nw","h","h",1,0.474797152968676,NA,NA,NA
"experimental",34,16,"hd","lower","drine","nw","nw","h","h",1,0.541283122092864,NA,NA,NA
"experimental",34,17,"hd","lower","poars","nw","nw","h","h",1,0.437928630129136,NA,NA,NA
"experimental",34,18,"hd","lower","arrow","w","w","g","g",1,0.44270364050044,NA,NA,NA
"experimental",34,19,"hd","lower","prillway","nw","nw","h","h",1,0.471402038820997,NA,NA,NA
"experimental",34,20,"hd","lower","baseline","w","w","g","g",1,0.475291439212015,NA,NA,NA
"experimental",34,21,"hd","lower","miteous","nw","nw","h","h",1,0.478836527685417,NA,NA,NA
"experimental",34,22,"hd","lower","affluent","w","w","g","g",1,0.538353160102815,NA,NA,NA
"experimental",34,23,"hd","lower","amaze","w","w","g","g",1,0.41102032271101,NA,NA,NA
"experimental",34,24,"hd","lower","unstatle","nw","nw","h","g",0,0.52117563718275,NA,NA,NA
"experimental",34,25,"hd","lower","uncorked","w","w","g","g",1,0.586497898238122,NA,NA,NA
"experimental",34,26,"hd","lower","student","w","w","g","g",1,0.480377323516222,NA,NA,NA
"experimental",34,27,"hd","lower","cheathe","nw","nw","h","h",1,0.619726977896789,NA,NA,NA
"experimental",34,28,"hd","lower","comply","w","w","g","g",1,0.529120303608579,NA,NA,NA
"experimental",34,29,"hd","lower","ralliep","nw","nw","h","h",1,0.490476587979174,NA,NA,NA
"experimental",34,30,"hd","lower","ladybug","target","target","q","g",0,0.48524205362628,1,1,NA
"experimental",35,1,"hd","lower","splinging","nw","nw","h","h",1,0.552299448106169,NA,NA,NA
"experimental",35,2,"hd","lower","ameld","nw","nw","h","h",1,0.574691310161143,NA,NA,NA
"experimental",35,3,"hd","lower","cobalt","w","w","g","h",0,0.622093791259431,NA,NA,NA
"experimental",35,4,"hd","lower","eaglot","nw","nw","h","h",1,0.731519098251738,NA,NA,NA
"experimental",35,5,"hd","lower","unlined","w","w","g","g",1,0.572979682648111,NA,NA,NA
"experimental",35,6,"hd","lower","pressing","w","w","g","g",1,0.436437494671736,NA,NA,NA
"experimental",35,7,"hd","lower","anemic","w","w","g","h",0,0.577078980881197,NA,NA,NA
"experimental",35,8,"hd","lower","violate","w","w","g","g",1,0.520446291841836,NA,NA,NA
"experimental",35,9,"hd","lower","mounting","w","w","g","g",1,0.465913905498383,NA,NA,NA
"experimental",35,10,"hd","lower","facienda","nw","nw","h","h",1,0.517872560258184,NA,NA,NA
"experimental",35,11,"hd","lower","gorilla","target","target","q","g",0,0.455240567125657,1,1,NA
"experimental",35,12,"hd","lower","mining","aftertar1","w","g","g",1,0.514314229018964,NA,NA,NA
"experimental",35,13,"hd","lower","glapula","aftertar2","nw","h","h",1,0.524433026562292,NA,NA,NA
"experimental",35,14,"hd","lower","duplex","aftertar3","w","g","g",1,0.701705659029358,NA,NA,NA
"experimental",35,15,"hd","lower","chrayed","w","nw","h","h",1,0.663233106151893,NA,NA,NA
"experimental",35,16,"hd","lower","record","nw","w","g","g",1,0.442495729073926,NA,NA,NA
"experimental",35,17,"hd","lower","fallint","w","nw","h","h",1,0.536055871260942,NA,NA,NA
"experimental",35,18,"hd","lower","extruded","nw","w","g","g",1,0.488716624370682,NA,NA,NA
"experimental",35,19,"hd","lower","rasuals","w","nw","h","h",1,0.515472971049348,NA,NA,NA
"experimental",35,20,"hd","lower","warmer","nw","w","g","g",1,0.453513379363358,NA,NA,NA
"experimental",35,21,"hd","lower","brouhuha","w","nw","h","h",1,0.505605454991382,NA,NA,NA
"experimental",35,22,"hd","lower","earmaff","nw","nw","h","h",1,1.07484111895246,NA,NA,NA
"experimental",35,23,"hd","lower","retain","nw","w","g","g",1,0.494238857815617,NA,NA,NA
"experimental",35,24,"hd","lower","gerby","w","nw","h","h",1,0.560934062644264,NA,NA,NA
"experimental",35,25,"hd","lower","levels","nw","w","g","g",1,0.44905586430832,NA,NA,NA
"experimental",35,26,"hd","lower","elormity","w","nw","h","h",1,0.581719908245759,NA,NA,NA
"experimental",35,27,"hd","lower","cayward","nw","nw","h","h",1,0.541170227511429,NA,NA,NA
"experimental",35,28,"hd","lower","prohibit","nw","w","g","g",1,0.453862326248782,NA,NA,NA
"experimental",35,29,"hd","lower","dingly","w","nw","h","h",1,0.577943071366462,NA,NA,NA
"experimental",35,30,"hd","lower","remover","nw","w","g","g",1,0.441320433586043,NA,NA,NA
"experimental",36,1,"ld","upper","ronic","nw","nw","h","h",1,0.533931731585653,NA,NA,NA
"experimental",36,2,"ld","upper","thorifies","nw","nw","h","h",1,0.566104700649703,NA,NA,NA
"experimental",36,3,"ld","upper","cogantly","nw","nw","h","h",1,0.525971173839935,NA,NA,NA
"experimental",36,4,"ld","upper","entropy","w","w","g","g",1,0.727466811838895,NA,NA,NA
"experimental",36,5,"ld","upper","fuintets","nw","nw","h","h",1,0.480837840706045,NA,NA,NA
"experimental",36,6,"ld","upper","other","w","w","g","g",1,0.404170170899306,NA,NA,NA
"experimental",36,7,"ld","upper","sarlock","nw","nw","h","h",1,0.537252686242937,NA,NA,NA
"experimental",36,8,"ld","upper","seasoning","w","w","g","g",1,0.546036281899433,NA,NA,NA
"experimental",36,9,"ld","upper","haurded","nw","nw","h","h",1,0.538658736929392,NA,NA,NA
"experimental",36,10,"ld","upper","acidic","w","w","g","g",1,0.587406683059271,NA,NA,NA
"experimental",36,11,"ld","upper","causality","w","w","g","g",1,0.473450032591245,NA,NA,NA
"experimental",36,12,"ld","upper","except","w","w","g","g",1,0.508699627280293,NA,NA,NA
"experimental",36,13,"ld","upper","stretches","w","w","g","g",1,0.495759458428438,NA,NA,NA
"experimental",36,14,"ld","upper","scabry","nw","nw","h","h",1,0.450433111977873,NA,NA,NA
"experimental",36,15,"ld","upper","supplier","w","w","g","g",1,0.36757775973274,NA,NA,NA
"experimental",36,16,"ld","upper","vintnel","nw","nw","h","h",1,0.4312297769211,NA,NA,NA
"experimental",36,17,"ld","upper","schinter","nw","nw","h","h",1,0.555665759237854,NA,NA,NA
"experimental",36,18,"ld","upper","whirling","w","w","g","g",1,0.69980896386096,NA,NA,NA
"experimental",36,19,"ld","upper","removable","w","w","g","g",1,0.454548632599654,NA,NA,NA
"experimental",36,20,"ld","upper","traze","nw","nw","h","h",1,0.594533939750363,NA,NA,NA
"experimental",36,21,"ld","upper","venturous","w","w","g","g",1,0.649334492106391,NA,NA,NA
"experimental",36,22,"ld","upper","sponto","nw","nw","h","h",1,0.574005003810271,NA,NA,NA
"experimental",36,23,"ld","upper","porghum","nw","nw","h","h",1,0.69338224949388,NA,NA,NA
"experimental",36,24,"ld","upper","stagger","w","w","g","g",1,0.76017114689148,NA,NA,NA
"experimental",36,25,"ld","upper","infested","w","w","g","g",1,0.440212014066674,NA,NA,NA
"experimental",36,26,"ld","upper","neliefs","nw","nw","h","h",1,0.580018874945381,NA,NA,NA
"experimental",36,27,"ld","upper","apop","nw","nw","h","h",1,0.507307812567888,NA,NA,NA
"experimental",36,28,"ld","upper","togglo","nw","nw","h","h",1,0.509445857147512,NA,NA,NA
"experimental",36,29,"ld","upper","perishing","w","w","g","g",1,0.543497643647243,NA,NA,NA
"experimental",36,30,"ld","upper","unversed","w","w","g","g",1,0.528242970357496,NA,NA,NA
"experimental",37,1,"ld","upper","ilterfere","nw","nw","h","h",1,0.650530644950777,NA,NA,NA
"experimental",37,2,"ld","upper","arcients","nw","nw","h","h",1,0.613632656956725,NA,NA,NA
"experimental",37,3,"ld","upper","nogwhell","nw","nw","h","h",1,0.475723484454647,NA,NA,NA
"experimental",37,4,"ld","upper","peanimate","nw","nw","h","h",1,0.735100935400624,NA,NA,NA
"experimental",37,5,"ld","upper","glocked","nw","nw","h","g",0,0.391782556461294,NA,NA,NA
