"procedure","block","trial","PMdemand","context","stim","role","word_type","correct_key","response","correct","reaction_time","pressedQ","pressedQ_blank","pressedQ_fix"
"LDTpractice",1,1,NA,"upper","raestro","","nw","h","h",1,0.641619397030809,NA,NA,NA
"LDTpractice",2,1,NA,"upper","latador","","nw","h","h",1,0.693901175282008,NA,NA,NA
"LDTpractice",3,1,NA,"upper","grimace","","w","g","g",1,0.447269224525371,NA,NA,NA
"LDTpractice",4,1,NA,"upper","julled","","nw","h","g",0,0.378011544466062,NA,NA,NA
"LDTpractice",5,1,NA,"upper","picture","","w","g","g",1,0.404597059463413,NA,NA,NA
"LDTpractice",6,1,NA,"upper","sponsor","","w","g","g",1,0.440733919478589,NA,NA,NA
"LDTpractice",7,1,NA,"upper","lumbigo","","nw","h","h",1,0.526620871944033,NA,NA,NA
"LDTpractice",8,1,NA,"upper","revival","","w","g","h",0,0.35149886468389,NA,NA,NA
"LDTpractice",9,1,NA,"upper","treeps","","nw","h","h",1,0.520214021724314,NA,NA,NA
"LDTpractice",10,1,NA,"upper","unscrew","","w","g","g",1,0.448743475457377,NA,NA,NA
"LDTpractice",11,1,NA,"upper","overshoot","","w","g","g",1,0.405849825132464,NA,NA,NA
"LDTpractice",12,1,NA,"upper","turative","","nw","h","h",1,0.539506083316155,NA,NA,NA
"LDTpractice",13,1,NA,"upper","grutch","","nw","h","g",0,0.380175412439712,NA,NA,NA
"LDTpractice",14,1,NA,"upper","summary","","w","g","g",1,0.393474129183232,NA,NA,NA
"LDTpractice",1,2,NA,"lower","lurshing","","nw","h","h",1,0.523234034524648,NA,NA,NA
"LDTpractice",2,2,NA,"lower","hasking","","nw","h","h",1,0.627913465230449,NA,NA,NA
"LDTpractice",3,2,NA,"lower","hiring","","w","g","g",1,0.610011231938188,NA,NA,NA
"LDTpractice",4,2,NA,"lower","curlecs","","nw","h","h",1,0.49617807026334,NA,NA,NA
"LDTpractice",5,2,NA,"lower","umpire","","w","g","g",1,0.490918043586134,NA,NA,NA
"LDTpractice",6,2,NA,"lower","infinity","","w","g","g",1,0.373576211046384,NA,NA,NA
"LDTpractice",7,2,NA,"lower","crinklo","","nw","h","h",1,0.428179446187642,NA,NA,NA
"LDTpractice",8,2,NA,"lower","reputable","","w","g","g",1,0.489581186353462,NA,NA,NA
"LDTpractice",9,2,NA,"lower","alolition","","nw","h","h",1,0.428303597120248,NA,NA,NA
"LDTpractice",10,2,NA,"lower","tricycle","","w","g","g",1,0.481808344817182,NA,NA,NA
"LDTpractice",11,2,NA,"lower","slumber","","w","g","g",1,0.453246015915283,NA,NA,NA
"LDTpractice",12,2,NA,"lower","grocus","","nw","h","h",1,0.417344546069217,NA,NA,NA
"LDTpractice",13,2,NA,"lower","trotch","","nw","h","h",1,0.534108331870812,NA,NA,NA
"LDTpractice",14,2,NA,"lower","busted","","w","g","g",1,0.390581909075991,NA,NA,NA
"experimental",1,1,"ld","lower","even","w","w","g","g",1,0.627712175186389,NA,NA,NA
"experimental",1,2,"ld","lower","slutches","nw","nw","h","h",1,0.632776871065289,NA,NA,NA
"experimental",1,3,"ld","lower","subber","nw","nw","h","h",1,0.647830916448584,NA,NA,NA
"experimental",1,4,"ld","lower","athcan","nw","nw","h","h",1,0.629269193406799,NA,NA,NA
"experimental",1,5,"ld","lower","icepick","w","w","g","g",1,0.603429908276667,NA,NA,NA
"experimental",1,6,"ld","lower","attrove","nw","nw","h","h",1,0.569291712728955,NA,NA,NA
"experimental",1,7,"ld","lower","grefab","nw","nw","h","h",1,0.473312117183014,NA,NA,NA
"experimental",1,8,"ld","lower","podges","nw","nw","h","h",1,0.453333087103601,NA,NA,NA
"experimental",1,9,"ld","lower","phambled","nw","nw","h","h",1,0.594033172552372,NA,NA,NA
"experimental",1,10,"ld","lower","turning","w","w","g","g",1,0.457403251250071,NA,NA,NA
"experimental",1,11,"ld","lower","splinging","nw","nw","h","h",1,0.78215626538622,NA,NA,NA
"experimental",1,12,"ld","lower","asthmatic","w","w","g","g",1,0.734241951380682,NA,NA,NA
"experimental",1,13,"ld","lower","railway","w","w","g","g",1,0.45563236236012,NA,NA,NA
"experimental",1,14,"ld","lower","sludding","nw","nw","h","h",1,0.580390143892146,NA,NA,NA
"experimental",1,15,"ld","lower","boutique","w","w","g","g",1,0.515119529622098,NA,NA,NA
"experimental",1,16,"ld","lower","arrow","w","w","g","g",1,0.558263468226869,NA,NA,NA
"experimental",1,17,"ld","lower","vibrate","w","w","g","g",1,0.438918005182131,NA,NA,NA
"experimental",1,18,"ld","lower","omission","w","w","g","g",1,0.46829244671062,NA,NA,NA
"experimental",1,19,"ld","lower","minimum","w","w","g","g",1,0.480357930862738,NA,NA,NA
"experimental",1,20,"ld","lower","flicking","w","w","g","g",1,0.572450443502021,NA,NA,NA
"experimental",1,21,"ld","lower","classify","w","w","g","g",1,0.388474984996719,NA,NA,NA
"experimental",1,22,"ld","lower","scrooner","nw","nw","h","g",0,0.395902521408061,NA,NA,NA
"experimental",1,23,"ld","lower","bumbo","nw","nw","h","h",1,0.443278848044429,NA,NA,NA
"experimental",1,24,"ld","lower","brongs","nw","nw","h","h",1,0.576681176187776,NA,NA,NA
"experimental",1,25,"ld","lower","monkey","target","target","q","g",0,0.424749900847019,1,1,NA
"experimental",1,26,"ld","lower","owner","aftertar1","w","g","g",1,0.749974357457177,NA,NA,NA
"experimental",1,27,"ld","lower","duplex","aftertar2","w","g","h",0,0.924143878766699,NA,NA,NA
"experimental",1,28,"ld","lower","fullity","aftertar3","nw","h","g",0,0.521231728296698,NA,NA,NA
"experimental",1,29,"ld","lower","numbled","nw","nw","h","g",0,0.563245727886169,NA,NA,NA
"experimental",1,30,"ld","lower","bloodless","nw","w","g","h",0,0.588013342172417,NA,NA,NA
"experimental",2,1,"ld","lower","divider","w","w","g","g",1,0.442853093116355,NA,NA,NA
"experimental",2,2,"ld","lower","halents","nw","nw","h","h",1,0.568271688673121,NA,NA,NA
"experimental",2,3,"ld","lower","grolific","nw","nw","h","h",1,0.552347593560626,NA,NA,NA
"experimental",2,4,"ld","lower","passet","nw","nw","h","h",1,0.561032861678541,NA,NA,NA
"experimental",2,5,"ld","lower","pocket","w","w","g","g",1,0.497774154642684,NA,NA,NA
"experimental",2,6,"ld","lower","clypaper","nw","nw","h","h",1,0.629179473666227,NA,NA,NA
"experimental",2,7,"ld","lower","praiged","nw","nw","h","g",0,0.571259587764871,NA,NA,NA
"experimental",2,8,"ld","lower","pepperoni","w","w","g","g",1,0.451323828423483,NA,NA,NA
"experimental",2,9,"ld","lower","stranded","w","w","g","g",1,0.536058329173102,NA,NA,NA
"experimental",2,10,"ld","lower","hackal","nw","nw","h","h",1,0.529474356959327,NA,NA,NA
"experimental",2,11,"ld","lower","image","w","w","g","g",1,0.498625333430027,NA,NA,NA
"experimental",2,12,"ld","lower","fudden","nw","nw","h","h",1,0.533967627481616,NA,NA,NA
"experimental",2,13,"ld","lower","chight","nw","nw","h","h",1,0.599439531793905,NA,NA,NA
"experimental",2,14,"ld","lower","lignpost","nw","nw","h","h",1,0.646710578439524,NA,NA,NA
"experimental",2,15,"ld","lower","pammed","nw","nw","h","h",1,0.484244351631787,NA,NA,NA
"experimental",2,16,"ld","lower","tracing","w","w","g","g",1,0.535536233121093,NA,NA,NA
"experimental",2,17,"ld","lower","sustain","w","w","g","g",1,0.544952832995477,NA,NA,NA
"experimental",2,18,"ld","lower","govern","w","w","g","g",1,0.626324002236288,NA,NA,NA
"experimental",2,19,"ld","lower","plogging","nw","nw","h","h",1,0.608394621271145,NA,NA,NA
"experimental",2,20,"ld","lower","implode","w","w","g","g",1,0.503153366214974,NA,NA,NA
"experimental",2,21,"ld","lower","thamp","nw","nw","h","h",1,0.552954443315684,NA,NA,NA
"experimental",2,22,"ld","lower","country","w","w","g","g",1,0.465610455514252,NA,NA,NA
"experimental",2,23,"ld","lower","aicline","nw","nw","h","h",1,0.734391925707314,NA,NA,NA
"experimental",2,24,"ld","lower","culer","nw","nw","h","h",1,0.543685500282663,NA,NA,NA
"experimental",2,25,"ld","lower","handcuff","w","w","g","g",1,0.489070346651715,NA,NA,NA
"experimental",2,26,"ld","lower","apticle","nw","nw","h","h",1,0.524346426873308,NA,NA,NA
"experimental",2,27,"ld","lower","seeming","w","w","g","g",1,0.622597156798292,NA,NA,NA
"experimental",2,28,"ld","lower","heaviest","w","w","g","g",1,0.540676743836229,NA,NA,NA
"experimental",2,29,"ld","lower","movie","w","w","g","g",1,0.462158397473104,NA,NA,NA
"experimental",2,30,"ld","lower","strenuous","w","w","g","h",0,0.506757053928595,NA,NA,NA
"experimental",3,1,"ld","lower","maximized","w","w","g","g",1,0.451943589874645,NA,NA,NA
"experimental",3,2,"ld","lower","submit","w","w","g","g",1,0.409633614463019,NA,NA,NA
"experimental",3,3,"ld","lower","loached","nw","nw","h","h",1,0.696355059832058,NA,NA,NA
"experimental",3,4,"ld","lower","greakable","nw","nw","h","h",1,0.603767598810009,NA,NA,NA
"experimental",3,5,"ld","lower","reloant","nw","nw","h","h",1,0.538499633095853,NA,NA,NA
"experimental",3,6,"ld","lower","result","w","w","g","g",1,0.555018659475536,NA,NA,NA
"experimental",3,7,"ld","lower","epic","w","w","g","g",1,0.411695182068797,NA,NA,NA
"experimental",3,8,"ld","lower","capobly","nw","nw","h","h",1,0.538374488956833,NA,NA,NA
"experimental",3,9,"ld","lower","actively","w","w","g","g",1,0.42774111063045,NA,NA,NA
"experimental",3,10,"ld","lower","talate","nw","nw","h","h",1,0.561827427642129,NA,NA,NA
"experimental",3,11,"ld","lower","arbitrary","w","w","g","g",1,0.47455263329357,NA,NA,NA
"experimental",3,12,"ld","lower","hasks","nw","nw","h","h",1,0.526671856592657,NA,NA,NA
"experimental",3,13,"ld","lower","crimb","nw","nw","h","h",1,0.584688745753738,NA,NA,NA
"experimental",3,14,"ld","lower","huzzles","nw","nw","h","h",1,0.528094791805415,NA,NA,NA
"experimental",3,15,"ld","lower","accessory","w","w","g","g",1,0.51414122028109,NA,NA,NA
"experimental",3,16,"ld","lower","coupling","w","w","g","g",1,0.724925996530146,NA,NA,NA
"experimental",3,17,"ld","lower","itself","w","w","g","g",1,0.486077812591247,NA,NA,NA
"experimental",3,18,"ld","lower","collision","w","w","g","g",1,0.489286865877148,NA,NA,NA
"experimental",3,19,"ld","lower","couple","w","w","g","g",1,0.348759598526158,NA,NA,NA
"experimental",3,20,"ld","lower","mopping","w","w","g","g",1,0.446126042746982,NA,NA,NA
"experimental",3,21,"ld","lower","cavern","w","w","g","g",1,0.34743896368127,NA,NA,NA
"experimental",3,22,"ld","lower","rillains","nw","nw","h","g",0,0.540863797905331,NA,NA,NA
"experimental",3,23,"ld","lower","slimped","nw","nw","h","h",1,0.74795483563139,NA,NA,NA
"experimental",3,24,"ld","lower","vorm","nw","nw","h","h",1,0.535776589325906,NA,NA,NA
"experimental",3,25,"ld","lower","rivet","w","w","g","g",1,0.649133342491041,NA,NA,NA
"experimental",3,26,"ld","lower","igiom","nw","nw","h","h",1,0.685669140832033,NA,NA,NA
"experimental",3,27,"ld","lower","noblin","nw","nw","h","h",1,0.5690036825672,NA,NA,NA
"experimental",3,28,"ld","lower","hubris","w","w","g","h",0,0.465102264366578,NA,NA,NA
"experimental",3,29,"ld","lower","batire","nw","nw","h","h",1,0.645822650976697,NA,NA,NA
"experimental",3,30,"ld","lower","shillac","nw","nw","h","h",1,0.499274560035701,NA,NA,NA
"experimental",4,1,"hd","upper","elbalm","nw","nw","h","g",0,0.670931266487969,NA,NA,NA
"experimental",4,2,"hd","upper","carony","nw","nw","h","h",1,0.594037145381662,NA,NA,NA
"experimental",4,3,"hd","upper","culinary","w","w","g","g",1,0.617466909227005,NA,NA,NA
"experimental",4,4,"hd","upper","alber","nw","nw","h","h",1,0.479426964409868,NA,NA,NA
"experimental",4,5,"hd","upper","drine","nw","nw","h","h",1,0.499630790443916,NA,NA,NA
"experimental",4,6,"hd","upper","holdup","w","w","g","g",1,0.58296718616657,NA,NA,NA
"experimental",4,7,"hd","upper","committed","w","w","g","g",1,0.422979343025872,NA,NA,NA
"experimental",4,8,"hd","upper","castaway","w","w","g","g",1,0.621013321977443,NA,NA,NA
"experimental",4,9,"hd","upper","recount","w","w","g","g",1,0.467137015371918,NA,NA,NA
"experimental",4,10,"hd","upper","gures","nw","nw","h","h",1,0.495151424825963,NA,NA,NA
"experimental",4,11,"hd","upper","talent","w","w","g","g",1,0.474529789522421,NA,NA,NA
"experimental",4,12,"hd","upper","dislokes","nw","nw","h","h",1,0.549879473035617,NA,NA,NA
"experimental",4,13,"hd","upper","epthuse","nw","nw","h","h",1,0.470967154384198,NA,NA,NA
"experimental",4,14,"hd","upper","bentler","nw","nw","h","h",1,0.419009161762006,NA,NA,NA
"experimental",4,15,"hd","upper","female","w","w","g","g",1,0.48908027872676,NA,NA,NA
"experimental",4,16,"hd","upper","soluced","nw","nw","h","h",1,0.508515693260051,NA,NA,NA
"experimental",4,17,"hd","upper","vopings","nw","nw","h","h",1,0.50301199968635,NA,NA,NA
"experimental",4,18,"hd","upper","peems","nw","nw","h","h",1,0.513902188353313,NA,NA,NA
"experimental",4,19,"hd","upper","dabble","w","w","g","h",0,0.436489281888498,NA,NA,NA
"experimental",4,20,"hd","upper","regional","w","w","g","g",1,0.67365066849743,NA,NA,NA
"experimental",4,21,"hd","upper","teliever","nw","nw","h","h",1,0.542117225711991,NA,NA,NA
"experimental",4,22,"hd","upper","confined","w","w","g","g",1,0.470628470642623,NA,NA,NA
"experimental",4,23,"hd","upper","border","w","w","g","g",1,0.474603286873389,NA,NA,NA
"experimental",4,24,"hd","upper","crocodile","target","target","q","g",0,0.334625263245471,NA,NA,NA
"experimental",4,25,"hd","upper","miurnal","aftertar1","nw","h","g",0,0.375942693339312,NA,NA,NA
"experimental",4,26,"hd","upper","antonym","aftertar2","w","g","q",0,0.424131463672893,NA,NA,1
"experimental",4,27,"hd","upper","tredits","aftertar3","nw","h","h",1,0.622219075825342,NA,NA,NA
"experimental",4,28,"hd","upper","overcoat","nw","w","g","g",1,0.572326623640038,NA,NA,NA
"experimental",4,29,"hd","upper","airline","w","w","g","g",1,0.484365191872712,NA,NA,NA
"experimental",4,30,"hd","upper","slogan","w","w","g","g",1,0.479739824759235,NA,NA,NA
"experimental",5,1,"hd","upper","quickel","nw","nw","h","h",1,0.659189236896054,NA,NA,NA
"experimental",5,2,"hd","upper","amplifier","w","w","g","g",1,0.575953155124807,NA,NA,NA
"experimental",5,3,"hd","upper","scack","nw","nw","h","h",1,0.599985795894099,NA,NA,NA
"experimental",5,4,"hd","upper","butler","w","w","g","g",1,0.455324799117079,NA,NA,NA
"experimental",5,5,"hd","upper","amkles","nw","nw","h","h",1,0.66007550901486,NA,NA,NA
"experimental",5,6,"hd","upper","abraid","nw","nw","h","h",1,0.504840825678912,NA,NA,NA
"experimental",5,7,"hd","upper","brimitar","nw","nw","h","h",1,0.595553773164283,NA,NA,NA
"experimental",5,8,"hd","upper","bamps","nw","nw","h","h",1,0.458091875085302,NA,NA,NA
"experimental",5,9,"hd","upper","mennel","nw","nw","h","h",1,0.374692907293138,NA,NA,NA
"experimental",5,10,"hd","upper","atch","nw","nw","h","h",1,0.438638582818385,NA,NA,NA
"experimental",5,11,"hd","upper","optional","w","w","g","g",1,0.484058621837903,NA,NA,NA
"experimental",5,12,"hd","upper","presence","w","w","g","g",1,0.527475361423058,NA,NA,NA
"experimental",5,13,"hd","upper","delegate","w","w","g","h",0,0.409527672334661,NA,NA,NA
"experimental",5,14,"hd","upper","acroad","nw","nw","h","g",0,0.400169671700496,NA,NA,NA
"experimental",5,15,"hd","upper","miteous","nw","nw","h","h",1,0.575602552893542,NA,NA,NA
"experimental",5,16,"hd","upper","defensa","nw","nw","h","h",1,0.495444089954617,NA,NA,NA
"experimental",5,17,"hd","upper","comment","w","w","g","g",1,0.571099350296208,NA,NA,NA
"experimental",5,18,"hd","upper","meteoroid","w","w","g","g",1,0.554307854006765,NA,NA,NA
"experimental",5,19,"hd","upper","achieve","w","w","g","g",1,0.530980059460489,NA,NA,NA
"experimental",5,20,"hd","upper","casino","w","w","g","g",1,0.508970913344456,NA,NA,NA
"experimental",5,21,"hd","upper","pregs","nw","nw","h","h",1,0.607726854794237,NA,NA,NA
"experimental",5,22,"hd","upper","antwers","nw","nw","h","h",1,0.462507675427332,NA,NA,NA
"experimental",5,23,"hd","upper","eyesight","w","w","g","g",1,0.531182673781586,NA,NA,NA
"experimental",5,24,"hd","upper","unspoken","w","w","g","g",1,0.51727810048942,NA,NA,NA
"experimental",5,25,"hd","upper","usually","w","w","g","g",1,0.455330096225225,NA,NA,NA
"experimental",5,26,"hd","upper","cooray","nw","nw","h","h",1,0.620052228230634,NA,NA,NA
"experimental",5,27,"hd","upper","butcher","w","w","g","g",1,0.593257808599446,NA,NA,NA
"experimental",5,28,"hd","upper","series","w","w","g","g",1,0.4966154126123,NA,NA,NA
"experimental",5,29,"hd","upper","reddar","nw","nw","h","h",1,0.708001079370661,NA,NA,NA
"experimental",5,30,"hd","upper","machinery","w","w","g","g",1,0.598664829980407,NA,NA,NA
"experimental",6,1,"hd","upper","parlayid","nw","nw","h","h",1,0.598398981450373,NA,NA,NA
"experimental",6,2,"hd","upper","official","w","w","g","g",1,0.437765884535111,NA,NA,NA
"experimental",6,3,"hd","upper","caloric","w","w","g","h",0,0.506278327935433,NA,NA,NA
"experimental",6,4,"hd","upper","removable","w","w","g","g",1,0.477094251169547,NA,NA,NA
"experimental",6,5,"hd","upper","curricula","w","w","g","h",0,0.569012952502817,NA,NA,NA
"experimental",6,6,"hd","upper","coverall","w","w","g","h",0,0.633055962360231,NA,NA,NA
"experimental",6,7,"hd","upper","chonemic","nw","nw","h","h",1,0.479069409726435,NA,NA,NA
"experimental",6,8,"hd","upper","cervical","w","w","g","g",1,0.643156551101129,NA,NA,NA
"experimental",6,9,"hd","upper","undimmec","nw","nw","h","h",1,0.520503045094301,NA,NA,NA
"experimental",6,10,"hd","upper","facienda","nw","nw","h","h",1,0.450702080557676,NA,NA,NA
"experimental",6,11,"hd","upper","agony","w","w","g","g",1,0.604929651532075,NA,NA,NA
"experimental",6,12,"hd","upper","nomma","nw","nw","h","h",1,0.541976521324614,NA,NA,NA
"experimental",6,13,"hd","upper","donastic","nw","nw","h","h",1,0.582517263190311,NA,NA,NA
"experimental",6,14,"hd","upper","ireology","nw","nw","h","h",1,0.694532193085251,NA,NA,NA
"experimental",6,15,"hd","upper","thrapping","nw","nw","h","h",1,0.601902355212587,NA,NA,NA
"experimental",6,16,"hd","upper","elderly","w","w","g","g",1,0.45662192805321,NA,NA,NA
"experimental",6,17,"hd","upper","located","w","w","g","g",1,0.44541424406998,NA,NA,NA
"experimental",6,18,"hd","upper","overwork","w","w","g","g",1,0.4108334090688,NA,NA,NA
"experimental",6,19,"hd","upper","rewrite","w","w","g","g",1,0.473561081185835,NA,NA,NA
"experimental",6,20,"hd","upper","prison","w","w","g","g",1,0.373606669407309,NA,NA,NA
"experimental",6,21,"hd","upper","sarlock","nw","nw","h","g",0,0.477655744451113,NA,NA,NA
"experimental",6,22,"hd","upper","natch","nw","nw","h","h",1,0.457731340778992,NA,NA,NA
"experimental",6,23,"hd","upper","army","w","w","g","g",1,0.558455488335312,NA,NA,NA
"experimental",6,24,"hd","upper","schides","nw","nw","h","h",1,0.518294813853572,NA,NA,NA
"experimental",6,25,"hd","upper","gelented","nw","nw","h","h",1,0.632315360666325,NA,NA,NA
"experimental",6,26,"hd","upper","cobalt","w","w","g","g",1,0.614342940714778,NA,NA,NA
"experimental",6,27,"hd","upper","caterpillar","target","target","q","g",0,0.493058736719831,1,1,NA
"experimental",6,28,"hd","upper","pastnoss","aftertar1","nw","h","h",1,0.552443603615757,NA,NA,NA
"experimental",6,29,"hd","upper","arranged","aftertar2","w","g","g",1,0.641177088642507,NA,NA,NA
"experimental",6,30,"hd","upper","halms","aftertar3","nw","h","h",1,0.542612836232365,NA,NA,NA
"experimental",7,1,"hd","upper","wrestle","w","w","g","g",1,0.511375799660527,NA,NA,NA
"experimental",7,2,"hd","upper","cessation","w","w","g","g",1,0.66606719851552,NA,NA,NA
"experimental",7,3,"hd","upper","aggepting","nw","nw","h","h",1,0.630739471507695,NA,NA,NA
"experimental",7,4,"hd","upper","purport","w","w","g","h",0,0.540792286969008,NA,NA,NA
"experimental",7,5,"hd","upper","rarely","w","w","g","g",1,0.574155780701403,NA,NA,NA
"experimental",7,6,"hd","upper","explosion","w","w","g","g",1,0.414205348375617,NA,NA,NA
"experimental",7,7,"hd","upper","funtair","nw","nw","h","h",1,0.492901478872227,NA,NA,NA
"experimental",7,8,"hd","upper","befin","nw","nw","h","h",1,0.504364086102214,NA,NA,NA
"experimental",7,9,"hd","upper","worps","nw","nw","h","h",1,0.522198119149834,NA,NA,NA
"experimental",7,10,"hd","upper","artifact","w","w","g","g",1,0.532154361739231,NA,NA,NA
"experimental",7,11,"hd","upper","mantos","nw","nw","h","h",1,0.462269305638983,NA,NA,NA
"experimental",7,12,"hd","upper","chraps","nw","nw","h","h",1,0.427009778875799,NA,NA,NA
"experimental",7,13,"hd","upper","bloves","nw","nw","h","h",1,0.401143677145228,NA,NA,NA
"experimental",7,14,"hd","upper","tapling","nw","nw","h","h",1,0.479901717573739,NA,NA,NA
"experimental",7,15,"hd","upper","bureaug","nw","nw","h","h",1,0.411929910098479,NA,NA,NA
"experimental",7,16,"hd","upper","gund","nw","nw","h","h",1,0.498669696697107,NA,NA,NA
"experimental",7,17,"hd","upper","birn","nw","nw","h","h",1,0.422045065881321,NA,NA,NA
"experimental",7,18,"hd","upper","twarfs","nw","nw","h","h",1,0.380124427792907,NA,NA,NA
"experimental",7,19,"hd","upper","charcoal","w","w","g","g",1,0.651266421033142,NA,NA,NA
"experimental",7,20,"hd","upper","resonant","w","w","g","h",0,0.543994387800922,NA,NA,NA
"experimental",7,21,"hd","upper","stalemate","w","w","g","g",1,0.641335339698344,NA,NA,NA
"experimental",7,22,"hd","upper","golemic","nw","nw","h","h",1,0.782756162689111,NA,NA,NA
"experimental",7,23,"hd","upper","kettle","w","w","g","h",0,0.526820175571629,NA,NA,NA
"experimental",7,24,"hd","upper","region","w","w","g","g",1,0.504840163541303,NA,NA,NA
"experimental",7,25,"hd","upper","fictional","w","w","g","g",1,0.403622722951695,NA,NA,NA
"experimental",7,26,"hd","upper","expired","w","w","g","g",1,0.450510060451052,NA,NA,NA
"experimental",7,27,"hd","upper","dialect","w","w","g","g",1,0.50300570937361,NA,NA,NA
"experimental",7,28,"hd","upper","intended","w","w","g","g",1,0.433872511315712,NA,NA,NA
"experimental",7,29,"hd","upper","crundle","nw","nw","h","h",1,0.646094458750667,NA,NA,NA
"experimental",7,30,"hd","upper","porcupine","target","target","q","g",0,0.56337815554798,1,1,NA
"experimental",8,1,"ld","lower","acidic","w","w","g","g",1,0.508372671387406,NA,NA,NA
"experimental",8,2,"ld","lower","personify","w","w","g","g",1,0.43843464422207,NA,NA,NA
"experimental",8,3,"ld","lower","gelfry","nw","nw","h","h",1,0.595795784714937,NA,NA,NA
"experimental",8,4,"ld","lower","tenpince","nw","nw","h","h",1,0.729362654226861,NA,NA,NA
"experimental",8,5,"ld","lower","mustled","nw","nw","h","h",1,0.851153394025459,NA,NA,NA
"experimental",8,6,"ld","lower","frogmy","nw","nw","h","h",1,0.503688042894282,NA,NA,NA
"experimental",8,7,"ld","lower","pollute","w","w","g","g",1,0.777821908057376,NA,NA,NA
"experimental",8,8,"ld","lower","entertain","w","w","g","g",1,0.585153566842564,NA,NA,NA
"experimental",8,9,"ld","lower","intercede","w","w","g","g",1,0.520656661179601,NA,NA,NA
"experimental",8,10,"ld","lower","alchemist","w","w","g","g",1,0.585895161742883,NA,NA,NA
"experimental",8,11,"ld","lower","arrested","w","w","g","g",1,0.40075798158432,NA,NA,NA
"experimental",8,12,"ld","lower","mineluyer","nw","nw","h","h",1,0.527479996389957,NA,NA,NA
"experimental",8,13,"ld","lower","upstairs","w","w","g","g",1,0.632958296959259,NA,NA,NA
"experimental",8,14,"ld","lower","foster","w","w","g","g",1,0.805407251889847,NA,NA,NA
"experimental",8,15,"ld","lower","dariner","nw","nw","h","h",1,0.603390842117733,NA,NA,NA
"experimental",8,16,"ld","lower","educate","w","w","g","g",1,0.489462663595987,NA,NA,NA
"experimental",8,17,"ld","lower","martial","w","w","g","g",1,0.444147573496593,NA,NA,NA
"experimental",8,18,"ld","lower","reprint","w","w","g","g",1,0.52894133562404,NA,NA,NA
"experimental",8,19,"ld","lower","thorifies","nw","nw","h","h",1,0.554279050989862,NA,NA,NA
"experimental",8,20,"ld","lower","analysis","w","w","g","g",1,0.482358250676043,NA,NA,NA
"experimental",8,21,"ld","lower","veirs","nw","nw","h","h",1,0.533858374661577,NA,NA,NA
"experimental",8,22,"ld","lower","churnad","nw","nw","h","h",1,0.559162652041778,NA,NA,NA
"experimental",8,23,"ld","lower","naxis","nw","nw","h","h",1,0.486354255333936,NA,NA,NA
"experimental",8,24,"ld","lower","misest","nw","nw","h","h",1,0.553129247826291,NA,NA,NA
"experimental",8,25,"ld","lower","tyena","nw","nw","h","h",1,0.488990227917384,NA,NA,NA
"experimental",8,26,"ld","lower","dounger","nw","nw","h","h",1,0.467807761471704,NA,NA,NA
"experimental",8,27,"ld","lower","pretzel","w","w","g","h",0,0.375815231716842,NA,NA,NA
"experimental",8,28,"ld","lower","ilterfere","nw","nw","h","h",1,0.735132527397582,NA,NA,NA
"experimental",8,29,"ld","lower","leather","w","w","g","g",1,0.464524548697227,NA,NA,NA
"experimental",8,30,"ld","lower","trallion","nw","nw","h","h",1,0.548723379561125,NA,NA,NA
"experimental",9,1,"ld","lower","unwose","nw","nw","h","h",1,0.525416111300729,NA,NA,NA
"experimental",9,2,"ld","lower","urgent","w","w","g","g",1,1.0067741039893,NA,NA,NA
"experimental",9,3,"ld","lower","mystery","w","w","g","g",1,0.524900967702706,NA,NA,NA
"experimental",9,4,"ld","lower","widely","w","w","g","g",1,0.4543186799674,NA,NA,NA
"experimental",9,5,"ld","lower","brudent","nw","nw","h","g",0,0.402396111745475,NA,NA,NA
"experimental",9,6,"ld","lower","become","w","w","g","g",1,0.44917552070001,NA,NA,NA
"experimental",9,7,"ld","lower","omners","nw","nw","h","h",1,0.765783240503879,NA,NA,NA
"experimental",9,8,"ld","lower","reses","nw","nw","h","h",1,0.581944844627287,NA,NA,NA
"experimental",9,9,"ld","lower","mogus","nw","nw","h","h",1,0.524437801957902,NA,NA,NA
"experimental",9,10,"ld","lower","ciping","nw","nw","h","h",1,0.493755306213643,NA,NA,NA
"experimental",9,11,"ld","lower","fonducts","nw","nw","h","h",1,0.520481194529566,NA,NA,NA
"experimental",9,12,"ld","lower","etber","nw","nw","h","h",1,0.530510603402945,NA,NA,NA
"experimental",9,13,"ld","lower","erithets","nw","nw","h","h",1,0.43602115010799,NA,NA,NA
"experimental",9,14,"ld","lower","reason","w","w","g","g",1,0.552747194027688,NA,NA,NA
"experimental",9,15,"ld","lower","zears","nw","nw","h","h",1,0.528740707719408,NA,NA,NA
"experimental",9,16,"ld","lower","undue","w","w","g","g",1,0.562140950129105,NA,NA,NA
"experimental",9,17,"ld","lower","tasher","nw","nw","h","h",1,0.498171437624478,NA,NA,NA
"experimental",9,18,"ld","lower","bulmed","nw","nw","h","h",1,0.436977608886082,NA,NA,NA
"experimental",9,19,"ld","lower","graiking","nw","nw","h","h",1,0.496748171342915,NA,NA,NA
"experimental",9,20,"ld","lower","publish","w","w","g","g",1,0.523450884818885,NA,NA,NA
"experimental",9,21,"ld","lower","earterner","nw","nw","h","h",1,0.556824310626325,NA,NA,NA
"experimental",9,22,"ld","lower","otiates","nw","nw","h","h",1,0.420926052147479,NA,NA,NA
"experimental",9,23,"ld","lower","obviously","w","w","g","g",1,0.498292277863584,NA,NA,NA
"experimental",9,24,"ld","lower","protest","w","w","g","g",1,0.525013862281412,NA,NA,NA
"experimental",9,25,"ld","lower","amidst","w","w","g","g",1,0.462392463361539,NA,NA,NA
"experimental",9,26,"ld","lower","surround","w","w","g","g",1,0.466500369393543,NA,NA,NA
"experimental",9,27,"ld","lower","euphoric","w","w","g","g",1,0.470449031161479,NA,NA,NA
"experimental",9,28,"ld","lower","senior","w","w","g","g",1,0.369841088879184,NA,NA,NA
"experimental",9,29,"ld","lower","infancy","w","w","g","g",1,0.487925178456862,NA,NA,NA
"experimental",9,30,"ld","lower","harmful","w","w","g","g",1,0.403826330479205,NA,NA,NA
"experimental",10,1,"hd","upper","calming","w","w","g","g",1,0.522145810222355,NA,NA,NA
"experimental",10,2,"hd","upper","repayment","w","w","g","g",1,0.411265123242629,NA,NA,NA
"experimental",10,3,"hd","upper","hustle","w","w","g","g",1,0.378138012882118,NA,NA,NA
"experimental",10,4,"hd","upper","mounting","w","w","g","g",1,0.377580492431662,NA,NA,NA
"experimental",10,5,"hd","upper","hodels","nw","nw","h","h",1,0.688084621360758,NA,NA,NA
"experimental",10,6,"hd","upper","chrayed","nw","nw","h","h",1,0.698686448795343,NA,NA,NA
"experimental",10,7,"hd","upper","ganter","nw","nw","h","h",1,0.541426946530919,NA,NA,NA
"experimental",10,8,"hd","upper","mebase","nw","nw","h","h",1,0.598148031034725,NA,NA,NA
"experimental",10,9,"hd","upper","enunciate","w","w","g","g",1,0.509026201891174,NA,NA,NA
"experimental",10,10,"hd","upper","pived","nw","nw","h","h",1,0.542982309405488,NA,NA,NA
"experimental",10,11,"hd","upper","etcess","nw","nw","h","h",1,0.431698711267018,NA,NA,NA
"experimental",10,12,"hd","upper","handle","w","w","g","g",1,0.477098886138265,NA,NA,NA
"experimental",10,13,"hd","upper","dorth","nw","nw","h","h",1,0.512542487347673,NA,NA,NA
"experimental",10,14,"hd","upper","ifling","nw","nw","h","h",1,0.482676408131738,NA,NA,NA
"experimental",10,15,"hd","upper","violate","w","w","g","g",1,0.469101248647348,NA,NA,NA
"experimental",10,16,"hd","upper","spider","target","target","q","g",0,0.481095552931947,1,1,NA
"experimental",10,17,"hd","upper","triplet","aftertar1","w","g","h",0,0.540436718700221,NA,NA,NA
"experimental",10,18,"hd","upper","gymnasium","aftertar2","w","g","g",1,0.445171239312913,NA,NA,NA
"experimental",10,19,"hd","upper","chone","aftertar3","nw","h","g",0,0.409965345754244,NA,NA,NA
"experimental",10,20,"hd","upper","trises","nw","nw","h","h",1,0.495949301479413,NA,NA,NA
"experimental",10,21,"hd","upper","doxing","nw","nw","h","h",1,0.466607635797118,NA,NA,NA
"experimental",10,22,"hd","upper","derived","nw","w","g","g",1,0.58272550568654,NA,NA,NA
"experimental",10,23,"hd","upper","maiden","w","w","g","g",1,0.446007519991326,NA,NA,NA
"experimental",10,24,"hd","upper","populace","w","w","g","g",1,0.569878367265119,NA,NA,NA
"experimental",10,25,"hd","upper","topefuls","w","nw","h","h",1,0.593085321572289,NA,NA,NA
"experimental",10,26,"hd","upper","brouhuha","nw","nw","h","h",1,0.408126256617834,NA,NA,NA
"experimental",10,27,"hd","upper","flougy","nw","nw","h","h",1,0.774429111392237,NA,NA,NA
"experimental",10,28,"hd","upper","garment","nw","w","g","g",1,0.557822815188047,NA,NA,NA
"experimental",10,29,"hd","upper","buttress","w","w","g","g",1,0.573925025502831,NA,NA,NA
"experimental",10,30,"hd","upper","baults","w","nw","h","h",1,0.605361034637099,NA,NA,NA
"experimental",11,1,"ld","lower","command","w","w","g","g",1,0.555112352045398,NA,NA,NA
"experimental",11,2,"ld","lower","solidity","w","w","g","g",1,0.475104856637699,NA,NA,NA
"experimental",11,3,"ld","lower","contund","nw","nw","h","h",1,0.542515832970821,NA,NA,NA
"experimental",11,4,"ld","lower","hecture","nw","nw","h","h",1,0.615275562513489,NA,NA,NA
"experimental",11,5,"ld","lower","slending","nw","nw","h","h",1,0.71735941107363,NA,NA,NA
"experimental",11,6,"ld","lower","duries","nw","nw","h","h",1,0.503414248707486,NA,NA,NA
"experimental",11,7,"ld","lower","pillage","w","w","g","h",0,0.729465947802964,NA,NA,NA
"experimental",11,8,"ld","lower","figure","w","w","g","g",1,0.442937515748781,NA,NA,NA
"experimental",11,9,"ld","lower","helpful","w","w","g","g",1,0.415655100188815,NA,NA,NA
"experimental",11,10,"ld","lower","butterfly","target","target","q","q",1,0.564788510131621,1,NA,NA
"experimental",11,11,"ld","lower","gradielts","aftertar1","nw","h","h",1,0.6048144394681,NA,NA,NA
"experimental",11,12,"ld","lower","potter","aftertar2","w","g","g",1,0.762861555242125,NA,NA,NA
"experimental",11,13,"ld","lower","frigs","aftertar3","nw","h","h",1,0.570925870060819,NA,NA,NA
"experimental",11,14,"ld","lower","jungle","nw","w","g","g",1,0.482251315341273,NA,NA,NA
"experimental",11,15,"ld","lower","unmarked","w","w","g","g",1,0.54167822801719,NA,NA,NA
"experimental",11,16,"ld","lower","shamrock","w","w","g","g",1,0.782473760702487,NA,NA,NA
"experimental",11,17,"ld","lower","gounts","w","nw","h","h",1,0.525771017430088,NA,NA,NA
"experimental",11,18,"ld","lower","begut","nw","nw","h","h",1,0.423119054206836,NA,NA,NA
"experimental",11,19,"ld","lower","ringlat","nw","nw","h","h",1,0.444349194611277,NA,NA,NA
"experimental",11,20,"ld","lower","scarlet","nw","w","g","g",1,0.520383198061609,NA,NA,NA
"experimental",11,21,"ld","lower","havel","w","nw","h","h",1,0.577684977855824,NA,NA,NA
"experimental",11,22,"ld","lower","trooper","nw","w","g","h",0,0.489220983115956,NA,NA,NA
"experimental",11,23,"ld","lower","buzzer","w","w","g","g",1,0.49187086060374,NA,NA,NA
"experimental",11,24,"ld","lower","welayed","w","nw","h","h",1,0.518639456840901,NA,NA,NA
"experimental",11,25,"ld","lower","chiffol","nw","nw","h","h",1,0.544727043832609,NA,NA,NA
"experimental",11,26,"ld","lower","corduroy","nw","w","g","g",1,0.761458484179457,NA,NA,NA
"experimental",11,27,"ld","lower","bullet","w","w","g","g",1,0.505509916434676,NA,NA,NA
"experimental",11,28,"ld","lower","bluads","w","nw","h","h",1,0.515588985679642,NA,NA,NA
"experimental",11,29,"ld","lower","previous","nw","w","g","g",1,0.492784280393607,NA,NA,NA
"experimental",11,30,"ld","lower","sooled","w","nw","h","h",1,0.607484512174779,NA,NA,NA
"experimental",12,1,"ld","lower","marvel","w","w","g","g",1,0.534466217623049,NA,NA,NA
"experimental",12,2,"ld","lower","shazer","nw","nw","h","h",1,0.487845390791335,NA,NA,NA
"experimental",12,3,"ld","lower","sonnet","w","w","g","h",0,0.474605604358658,NA,NA,NA
"experimental",12,4,"ld","lower","forgery","w","w","g","g",1,0.501973766828087,NA,NA,NA
"experimental",12,5,"ld","lower","fuintets","nw","nw","h","h",1,0.519847197105264,NA,NA,NA
"experimental",12,6,"ld","lower","orange","w","w","g","g",1,0.489143512935698,NA,NA,NA
"experimental",12,7,"ld","lower","describe","w","w","g","g",1,0.507842629674997,NA,NA,NA
"experimental",12,8,"ld","lower","lavilion","nw","nw","h","h",1,0.509927041051924,NA,NA,NA
"experimental",12,9,"ld","lower","budget","w","w","g","g",1,0.471944139449988,NA,NA,NA
"experimental",12,10,"ld","lower","fallacy","w","w","g","g",1,0.707354170248436,NA,NA,NA
"experimental",12,11,"ld","lower","slears","nw","nw","h","h",1,0.557465922640404,NA,NA,NA
"experimental",12,12,"ld","lower","frequency","w","w","g","g",1,0.525513445631077,NA,NA,NA
"experimental",12,13,"ld","lower","fallint","nw","nw","h","h",1,0.526831431921892,NA,NA,NA
"experimental",12,14,"ld","lower","number","w","w","g","g",1,0.544164888413434,NA,NA,NA
"experimental",12,15,"ld","lower","dreaded","w","w","g","g",1,0.720068549939242,NA,NA,NA
"experimental",12,16,"ld","lower","houted","nw","nw","h","h",1,0.601509045060084,NA,NA,NA
"experimental",12,17,"ld","lower","offonents","nw","nw","h","h",1,0.567666825334527,NA,NA,NA
"experimental",12,18,"ld","lower","latter","w","w","g","g",1,0.472296065956471,NA,NA,NA
"experimental",12,19,"ld","lower","downtrund","nw","nw","h","g",0,0.803593986147462,NA,NA,NA
"experimental",12,20,"ld","lower","laser","w","w","g","g",1,0.593667341139735,NA,NA,NA
"experimental",12,21,"ld","lower","sonkers","nw","nw","h","h",1,0.496501524823543,NA,NA,NA
"experimental",12,22,"ld","lower","medium","w","w","g","g",1,0.475218744426456,NA,NA,NA
"experimental",12,23,"ld","lower","rualify","nw","nw","h","h",1,0.533889164091306,NA,NA,NA
"experimental",12,24,"ld","lower","except","w","w","g","g",1,0.558440590222745,NA,NA,NA
"experimental",12,25,"ld","lower","mosary","nw","nw","h","h",1,0.502509436715627,NA,NA,NA
"experimental",12,26,"ld","lower","record","w","w","g","g",1,0.416587721989345,NA,NA,NA
"experimental",12,27,"ld","lower","ifkling","nw","nw","h","h",1,0.454549766236596,NA,NA,NA
"experimental",12,28,"ld","lower","lutton","nw","nw","h","h",1,0.554656138752762,NA,NA,NA
"experimental",12,29,"ld","lower","butled","nw","nw","h","h",1,0.82672313920375,NA,NA,NA
"experimental",12,30,"ld","lower","ebciting","nw","nw","h","h",1,0.528151073560366,NA,NA,NA
"experimental",13,1,"ld","lower","digested","w","w","g","g",1,0.497570878183978,NA,NA,NA
"experimental",13,2,"ld","lower","parody","w","w","g","g",1,0.596293381648138,NA,NA,NA
"experimental",13,3,"ld","lower","impirt","nw","nw","h","h",1,0.690977172534986,NA,NA,NA
"experimental",13,4,"ld","lower","arrival","w","w","g","g",1,0.445761866680186,NA,NA,NA
"experimental",13,5,"ld","lower","grested","nw","nw","h","h",1,0.54641251688372,NA,NA,NA
"experimental",13,6,"ld","lower","blocking","w","w","g","g",1,0.459114547693389,NA,NA,NA
"experimental",13,7,"ld","lower","correct","w","w","g","g",1,0.415182995579016,NA,NA,NA
"experimental",13,8,"ld","lower","senalize","nw","nw","h","h",1,0.629357588870334,NA,NA,NA
"experimental",13,9,"ld","lower","retain","w","w","g","g",1,0.506598802872759,NA,NA,NA
"experimental",13,10,"ld","lower","planofoad","nw","nw","h","h",1,0.627822090144036,NA,NA,NA
"experimental",13,11,"ld","lower","befriend","w","w","g","g",1,0.801354303339394,NA,NA,NA
"experimental",13,12,"ld","lower","traze","nw","nw","h","h",1,0.512554405837363,NA,NA,NA
"experimental",13,13,"ld","lower","mortgage","w","w","g","g",1,0.610663769235543,NA,NA,NA
"experimental",13,14,"ld","lower","cheathe","nw","nw","h","h",1,0.68073025123158,NA,NA,NA
"experimental",13,15,"ld","lower","egpended","nw","nw","h","h",1,0.508142909395247,NA,NA,NA
"experimental",13,16,"ld","lower","emission","w","w","g","g",1,0.718213569483851,NA,NA,NA
"experimental",13,17,"ld","lower","spigat","nw","nw","h","h",1,0.496286992014575,NA,NA,NA
"experimental",13,18,"ld","lower","jinds","nw","nw","h","h",1,0.475004211615669,NA,NA,NA
"experimental",13,19,"ld","lower","quittint","nw","nw","h","h",1,0.44550859877927,NA,NA,NA
"experimental",13,20,"ld","lower","release","w","w","g","g",1,0.490230412959136,NA,NA,NA
"experimental",13,21,"ld","lower","causality","w","w","g","g",1,0.516934450710323,NA,NA,NA
"experimental",13,22,"ld","lower","dazid","nw","nw","h","h",1,0.519032104853977,NA,NA,NA
"experimental",13,23,"ld","lower","bellicove","nw","nw","h","h",1,0.424563508915526,NA,NA,NA
"experimental",13,24,"ld","lower","pakened","nw","nw","h","h",1,0.485748398787109,NA,NA,NA
"experimental",13,25,"ld","lower","standard","w","w","g","g",1,0.512456409369406,NA,NA,NA
"experimental",13,26,"ld","lower","handbook","w","w","g","g",1,0.6265531020872,NA,NA,NA
"experimental",13,27,"ld","lower","ipiocy","nw","nw","h","h",1,0.54378978706518,NA,NA,NA
"experimental",13,28,"ld","lower","bengths","nw","nw","h","h",1,0.48067112228091,NA,NA,NA
"experimental",13,29,"ld","lower","provide","w","w","g","g",1,0.555179559081807,NA,NA,NA
"experimental",13,30,"ld","lower","forgive","w","w","g","g",1,0.539232951266968,NA,NA,NA
"experimental",14,1,"hd","upper","defeat","w","w","g","g",1,0.572847726483815,NA,NA,NA
"experimental",14,2,"hd","upper","derisury","nw","nw","h","h",1,0.460221974006345,NA,NA,NA
"experimental",14,3,"hd","upper","digar","nw","nw","h","h",1,0.480311250112209,NA,NA,NA
"experimental",14,4,"hd","upper","congraks","nw","nw","h","h",1,0.531661068704125,NA,NA,NA
"experimental",14,5,"hd","upper","burning","w","w","g","g",1,0.468123932510935,NA,NA,NA
"experimental",14,6,"hd","upper","probable","w","w","g","g",1,0.471500175717665,NA,NA,NA
"experimental",14,7,"hd","upper","rarren","nw","nw","h","h",1,0.659685178485233,NA,NA,NA
"experimental",14,8,"hd","upper","gettle","nw","nw","h","h",1,0.551560973257438,NA,NA,NA
"experimental",14,9,"hd","upper","ragtam","nw","nw","h","h",1,0.472363604065322,NA,NA,NA
"experimental",14,10,"hd","upper","sunhess","nw","nw","h","h",1,0.475790831918857,NA,NA,NA
"experimental",14,11,"hd","upper","harfing","nw","nw","h","h",1,0.439235169429594,NA,NA,NA
"experimental",14,12,"hd","upper","combat","w","w","g","g",1,0.59602488456585,NA,NA,NA
"experimental",14,13,"hd","upper","ements","nw","nw","h","h",1,0.49871439103299,NA,NA,NA
"experimental",14,14,"hd","upper","whirling","w","w","g","g",1,0.701438295582193,NA,NA,NA
"experimental",14,15,"hd","upper","ladybug","target","target","q","g",0,0.638630504730827,NA,NA,NA
"experimental",14,16,"hd","upper","efficient","aftertar1","w","g","g",1,0.587295253182674,NA,NA,NA
"experimental",14,17,"hd","upper","glattery","aftertar2","nw","h","h",1,0.625998561257802,NA,NA,NA
"experimental",14,18,"hd","upper","outflow","aftertar3","w","g","g",1,0.655408758255362,NA,NA,NA
"experimental",14,19,"hd","upper","aefated","w","nw","h","h",1,0.683505272858383,NA,NA,NA
"experimental",14,20,"hd","upper","tablet","nw","w","g","g",1,0.646902929616772,NA,NA,NA
"experimental",14,21,"hd","upper","enabled","w","w","g","g",1,0.763655459068104,NA,NA,NA
"experimental",14,22,"hd","upper","organize","w","w","g","g",1,0.435682466366416,NA,NA,NA
"experimental",14,23,"hd","upper","nelvet","w","nw","h","h",1,0.464412316254311,NA,NA,NA
"experimental",14,24,"hd","upper","shests","nw","nw","h","h",1,0.483580226913546,NA,NA,NA
"experimental",14,25,"hd","upper","haurded","nw","nw","h","h",1,0.50296531893764,NA,NA,NA
"experimental",14,26,"hd","upper","telecast","nw","w","g","g",1,0.640968515079294,NA,NA,NA
"experimental",14,27,"hd","upper","destroy","w","w","g","g",1,0.461674043302992,NA,NA,NA
"experimental",14,28,"hd","upper","footstep","w","w","g","g",1,0.537756713918498,NA,NA,NA
"experimental",14,29,"hd","upper","bookend","w","w","g","g",1,0.530470875104584,NA,NA,NA
"experimental",14,30,"hd","upper","egect","w","nw","h","h",1,0.523924975843329,NA,NA,NA
"experimental",15,1,"hd","upper","practice","w","w","g","g",1,0.461063551789266,NA,NA,NA
"experimental",15,2,"hd","upper","grieving","w","w","g","g",1,0.432593260113208,NA,NA,NA
"experimental",15,3,"hd","upper","disperse","w","w","g","g",1,0.470599005486292,NA,NA,NA
"experimental",15,4,"hd","upper","happen","w","w","g","g",1,0.441964172445296,NA,NA,NA
"experimental",15,5,"hd","upper","warden","w","w","g","g",1,0.366184761171098,NA,NA,NA
"experimental",15,6,"hd","upper","standard","w","w","g","g",1,0.351379348721821,NA,NA,NA
"experimental",15,7,"hd","upper","huests","nw","nw","h","h",1,0.519666433347084,NA,NA,NA
"experimental",15,8,"hd","upper","serfume","nw","nw","h","h",1,0.504956699882314,NA,NA,NA
"experimental",15,9,"hd","upper","arpired","nw","nw","h","h",1,0.643059878908389,NA,NA,NA
"experimental",15,10,"hd","upper","peags","nw","nw","h","h",1,0.430824357637903,NA,NA,NA
"experimental",15,11,"hd","upper","sprea","nw","nw","h","h",1,0.404182560885602,NA,NA,NA
"experimental",15,12,"hd","upper","poars","nw","nw","h","h",1,0.466309011424528,NA,NA,NA
"experimental",15,13,"hd","upper","wimpid","nw","nw","h","h",1,0.438280697066148,NA,NA,NA
"experimental",15,14,"hd","upper","prawls","nw","nw","h","g",0,0.651006862817667,NA,NA,NA
"experimental",15,15,"hd","upper","pracking","nw","nw","h","g",0,0.431081929438733,NA,NA,NA
"experimental",15,16,"hd","upper","deeper","w","w","g","g",1,0.45255176390674,NA,NA,NA
"experimental",15,17,"hd","upper","selongs","nw","nw","h","h",1,0.521060565544758,NA,NA,NA
"experimental",15,18,"hd","upper","gallon","w","w","g","g",1,0.586629804189215,NA,NA,NA
"experimental",15,19,"hd","upper","draze","nw","nw","h","h",1,0.713372014213746,NA,NA,NA
"experimental",15,20,"hd","upper","posing","w","w","g","h",0,0.490464809916375,NA,NA,NA
"experimental",15,21,"hd","upper","affluent","w","w","g","g",1,0.541142227060845,NA,NA,NA
"experimental",15,22,"hd","upper","audience","w","w","g","g",1,0.485816267962946,NA,NA,NA
"experimental",15,23,"hd","upper","vented","w","w","g","g",1,0.608544595597778,NA,NA,NA
"experimental",15,24,"hd","upper","legalosm","nw","nw","h","h",1,0.430608831620702,NA,NA,NA
"experimental",15,25,"hd","upper","design","w","w","g","g",1,0.524022972313105,NA,NA,NA
"experimental",15,26,"hd","upper","blueberry","w","w","g","g",1,0.893664990548132,NA,NA,NA
"experimental",15,27,"hd","upper","nameplate","w","w","g","g",1,0.584295766671858,NA,NA,NA
"experimental",15,28,"hd","upper","lecked","nw","nw","h","h",1,0.582070319835111,NA,NA,NA
"experimental",15,29,"hd","upper","moozy","nw","nw","h","h",1,0.413462760268885,NA,NA,NA
"experimental",15,30,"hd","upper","temelity","nw","nw","h","h",1,0.475400170320427,NA,NA,NA
"experimental",16,1,"hd","upper","volder","nw","nw","h","h",1,0.551858935492419,NA,NA,NA
"experimental",16,2,"hd","upper","atabaster","nw","nw","h","h",1,0.623851577813184,NA,NA,NA
"experimental",16,3,"hd","upper","gigoho","nw","nw","h","h",1,0.493181894444206,NA,NA,NA
"experimental",16,4,"hd","upper","aqueduct","w","w","g","h",0,0.439975440051057,NA,NA,NA
"experimental",16,5,"hd","upper","aligning","w","w","g","g",1,0.651780902493556,NA,NA,NA
"experimental",16,6,"hd","upper","noils","nw","nw","h","h",1,0.455791937691174,NA,NA,NA
"experimental",16,7,"hd","upper","permute","w","w","g","h",0,0.587747824713006,NA,NA,NA
"experimental",16,8,"hd","upper","snocks","nw","nw","h","h",1,0.530600323143517,NA,NA,NA
"experimental",16,9,"hd","upper","vaporize","w","w","g","g",1,0.6119628845845,NA,NA,NA
"experimental",16,10,"hd","upper","unsmilung","nw","nw","h","h",1,0.602012601239039,NA,NA,NA
"experimental",16,11,"hd","upper","roodies","nw","nw","h","h",1,1.14418104458855,NA,NA,NA
"experimental",16,12,"hd","upper","measure","w","w","g","g",1,0.568871917044817,NA,NA,NA
"experimental",16,13,"hd","upper","guffy","nw","nw","h","h",1,0.552268468032707,NA,NA,NA
"experimental",16,14,"hd","upper","failure","w","w","g","g",1,0.519556518391255,NA,NA,NA
"experimental",16,15,"hd","upper","detrabe","nw","nw","h","h",1,0.576833136929054,NA,NA,NA
"experimental",16,16,"hd","upper","listless","w","w","g","g",1,0.62416576243777,NA,NA,NA
"experimental",16,17,"hd","upper","prama","nw","nw","h","h",1,0.581545906299652,NA,NA,NA
"experimental",16,18,"hd","upper","filny","nw","nw","h","h",1,0.484961116344493,NA,NA,NA
"experimental",16,19,"hd","upper","ausht","nw","nw","h","h",1,0.399720410863665,NA,NA,NA
"experimental",16,20,"hd","upper","target","w","w","g","g",1,0.614396904986279,NA,NA,NA
"experimental",16,21,"hd","upper","overflow","w","w","g","g",1,0.476531764679749,NA,NA,NA
"experimental",16,22,"hd","upper","system","w","w","g","g",1,0.423839129611224,NA,NA,NA
"experimental",16,23,"hd","upper","buaint","nw","nw","h","h",1,0.573285068832774,NA,NA,NA
"experimental",16,24,"hd","upper","ready","w","w","g","g",1,0.531764031209605,NA,NA,NA
"experimental",16,25,"hd","upper","paterways","nw","nw","h","h",1,0.597113439936948,NA,NA,NA
"experimental",16,26,"hd","upper","melodic","w","w","g","g",1,0.515862448799453,NA,NA,NA
"experimental",16,27,"hd","upper","squirrel","target","target","q","g",0,0.461826004044269,1,1,NA
"experimental",16,28,"hd","upper","landing","aftertar1","w","g","g",1,0.833792458794051,NA,NA,NA
"experimental",16,29,"hd","upper","dishwater","aftertar2","w","g","g",1,0.583872660296038,NA,NA,NA
"experimental",16,30,"hd","upper","tinion","aftertar3","nw","h","h",1,0.607409359476151,NA,NA,NA
"experimental",17,1,"hd","upper","minister","w","w","g","g",1,0.501041476096361,NA,NA,NA
"experimental",17,2,"hd","upper","function","w","w","g","g",1,0.383014992552489,NA,NA,NA
"experimental",17,3,"hd","upper","illness","w","w","g","g",1,0.390382605448394,NA,NA,NA
"experimental",17,4,"hd","upper","frose","nw","nw","h","g",0,0.365075679514121,NA,NA,NA
"experimental",17,5,"hd","upper","slooch","nw","nw","h","h",1,0.693081116993199,NA,NA,NA
"experimental",17,6,"hd","upper","despise","w","w","g","g",1,0.591845467599342,NA,NA,NA
"experimental",17,7,"hd","upper","apop","nw","nw","h","h",1,0.50256671167881,NA,NA,NA
"experimental",17,8,"hd","upper","togglo","nw","nw","h","h",1,0.583872660296038,NA,NA,NA
"experimental",17,9,"hd","upper","extend","w","w","g","g",1,0.550524395745015,NA,NA,NA
"experimental",17,10,"hd","upper","unversed","w","w","g","g",1,0.446501806232845,NA,NA,NA
"experimental",17,11,"hd","upper","clooped","nw","nw","h","h",1,0.595191583513952,NA,NA,NA
"experimental",17,12,"hd","upper","sampling","w","w","g","g",1,0.529941826600407,NA,NA,NA
"experimental",17,13,"hd","upper","deficit","w","w","g","g",1,0.739323531786795,NA,NA,NA
"experimental",17,14,"hd","upper","outset","w","w","g","g",1,0.796039981321883,NA,NA,NA
"experimental",17,15,"hd","upper","other","w","w","g","g",1,0.570778875357064,NA,NA,NA
"experimental",17,16,"hd","upper","lanthers","nw","nw","h","h",1,0.578198135041021,NA,NA,NA
"experimental",17,17,"hd","upper","suspect","w","w","g","g",1,0.465735268584467,NA,NA,NA
"experimental",17,18,"hd","upper","fuack","nw","nw","h","h",1,0.469601494134622,NA,NA,NA
"experimental",17,19,"hd","upper","superstar","w","w","g","g",1,0.480148364089473,NA,NA,NA
"experimental",17,20,"hd","upper","chining","nw","nw","h","h",1,0.395525433646981,NA,NA,NA
"experimental",17,21,"hd","upper","kiner","nw","nw","h","h",1,0.458099820743883,NA,NA,NA
"experimental",17,22,"hd","upper","visible","w","w","g","g",1,0.494112198759467,NA,NA,NA
"experimental",17,23,"hd","upper","metrol","nw","nw","h","h",1,0.528962855119971,NA,NA,NA
"experimental",17,24,"hd","upper","frowsed","nw","nw","h","h",1,0.489548741576073,NA,NA,NA
"experimental",17,25,"hd","upper","shivering","w","w","g","g",1,0.540466514925356,NA,NA,NA
"experimental",17,26,"hd","upper","nearsipe","nw","nw","h","h",1,0.517693923346087,NA,NA,NA
"experimental",17,27,"hd","upper","shimble","nw","nw","h","h",1,0.487223311854905,NA,NA,NA
"experimental",17,28,"hd","upper","fomrade","nw","nw","h","h",1,0.449938304023817,NA,NA,NA
"experimental",17,29,"hd","upper","ignoble","w","w","g","h",0,0.597889134958677,NA,NA,NA
"experimental",17,30,"hd","upper","dolphin","target","target","q","g",0,0.636627205296463,NA,NA,NA
"experimental",18,1,"ld","lower","rejoiced","w","w","g","g",1,0.578189527243012,NA,NA,NA
"experimental",18,2,"ld","lower","rangel","nw","nw","h","h",1,0.481611027600593,NA,NA,NA
"experimental",18,3,"ld","lower","vinegar","w","w","g","g",1,0.677046775852432,NA,NA,NA
"experimental",18,4,"ld","lower","edasion","nw","nw","h","h",1,0.544404251410015,NA,NA,NA
"experimental",18,5,"ld","lower","fraft","nw","nw","h","h",1,0.472247398791296,NA,NA,NA
"experimental",18,6,"ld","lower","brother","w","w","g","g",1,0.523571062920382,NA,NA,NA
"experimental",18,7,"ld","lower","caution","w","w","g","g",1,0.549028294248274,NA,NA,NA
"experimental",18,8,"ld","lower","goltish","nw","nw","h","h",1,0.525702486116643,NA,NA,NA
"experimental",18,9,"ld","lower","ensues","w","w","g","g",1,0.551109063864715,NA,NA,NA
"experimental",18,10,"ld","lower","fuestion","nw","nw","h","h",1,0.535149213283148,NA,NA,NA
"experimental",18,11,"ld","lower","guivers","nw","nw","h","h",1,0.935921663827685,NA,NA,NA
"experimental",18,12,"ld","lower","sodent","nw","nw","h","h",1,0.464641747177666,NA,NA,NA
"experimental",18,13,"ld","lower","pexts","nw","nw","h","h",1,0.48396095643875,NA,NA,NA
"experimental",18,14,"ld","lower","party","w","w","g","g",1,0.638532508261051,NA,NA,NA
"experimental",18,15,"ld","lower","potatoes","w","w","g","g",1,0.459225455861088,NA,NA,NA
"experimental",18,16,"ld","lower","permeable","w","w","g","g",1,0.567180153680965,NA,NA,NA
"experimental",18,17,"ld","lower","glamorous","w","w","g","g",1,0.44650611013094,NA,NA,NA
"experimental",18,18,"ld","lower","poughest","nw","nw","h","h",1,0.54723654800182,NA,NA,NA
"experimental",18,19,"ld","lower","levels","w","w","g","h",0,0.580402724521264,NA,NA,NA
"experimental",18,20,"ld","lower","asclibed","nw","nw","h","h",1,0.603701053911209,NA,NA,NA
"experimental",18,21,"ld","lower","ounwit","nw","nw","h","h",1,0.626110793702537,NA,NA,NA
"experimental",18,22,"ld","lower","mining","w","w","g","g",1,0.663486845549414,NA,NA,NA
"experimental",18,23,"ld","lower","cayward","nw","nw","h","h",1,0.611633470778543,NA,NA,NA
"experimental",18,24,"ld","lower","ugifies","nw","nw","h","h",1,0.728836916416185,NA,NA,NA
"experimental",18,25,"ld","lower","consonant","w","w","g","g",1,0.538226501046665,NA,NA,NA
"experimental",18,26,"ld","lower","emergence","w","w","g","g",1,0.594922755362859,NA,NA,NA
"experimental",18,27,"ld","lower","seldom","w","w","g","g",1,0.521640598699378,NA,NA,NA
"experimental",18,28,"ld","lower","glapula","nw","nw","h","h",1,0.571009630557455,NA,NA,NA
"experimental",18,29,"ld","lower","sullen","w","w","g","g",1,0.554413133997514,NA,NA,NA
"experimental",18,30,"ld","lower","ofsters","nw","nw","h","h",1,0.538476127185277,NA,NA,NA
"experimental",19,1,"ld","lower","forecast","w","w","g","g",1,0.499316274748708,NA,NA,NA
"experimental",19,2,"ld","lower","reforest","w","w","g","g",1,0.365992078925046,NA,NA,NA
"experimental",19,3,"ld","lower","pressing","w","w","g","g",1,0.421998716199596,NA,NA,NA
"experimental",19,4,"ld","lower","rascaps","nw","nw","h","h",1,0.555393760821971,NA,NA,NA
"experimental",19,5,"ld","lower","ronvince","nw","nw","h","h",1,0.53150612833997,NA,NA,NA
"experimental",19,6,"ld","lower","triangle","w","w","g","g",1,0.492870027301251,NA,NA,NA
"experimental",19,7,"ld","lower","digest","w","w","g","g",1,0.471622671304431,NA,NA,NA
"experimental",19,8,"ld","lower","glates","nw","nw","h","g",0,0.394974203509264,NA,NA,NA
"experimental",19,9,"ld","lower","oalis","nw","nw","h","h",1,0.624774598605654,NA,NA,NA
"experimental",19,10,"ld","lower","maintain","w","w","g","g",1,0.65422717245383,NA,NA,NA
"experimental",19,11,"ld","lower","mubby","nw","nw","h","h",1,0.474199051441246,NA,NA,NA
"experimental",19,12,"ld","lower","bickering","w","w","g","g",1,0.477499810878726,NA,NA,NA
"experimental",19,13,"ld","lower","unburnid","nw","nw","h","h",1,0.67287100064641,NA,NA,NA
"experimental",19,14,"ld","lower","rocket","w","w","g","g",1,0.532329828391084,NA,NA,NA
"experimental",19,15,"ld","lower","felevance","nw","nw","h","h",1,0.604713132306642,NA,NA,NA
"experimental",19,16,"ld","lower","suburb","w","w","g","g",1,0.483817603495481,NA,NA,NA
"experimental",19,17,"ld","lower","dingly","nw","nw","h","h",1,0.647250221156355,NA,NA,NA
"experimental",19,18,"ld","lower","uncle","w","w","g","g",1,0.548000986671468,NA,NA,NA
"experimental",19,19,"ld","lower","ottans","nw","nw","h","h",1,0.923807181437951,NA,NA,NA
"experimental",19,20,"ld","lower","halter","w","w","g","g",1,0.757180077536759,NA,NA,NA
"experimental",19,21,"ld","lower","spiud","nw","nw","h","h",1,0.517416487395167,NA,NA,NA
"experimental",19,22,"ld","lower","hinsome","nw","nw","h","h",1,0.550646229192353,NA,NA,NA
"experimental",19,23,"ld","lower","pigned","nw","nw","h","h",1,0.44668124571399,NA,NA,NA
"experimental",19,24,"ld","lower","curtail","w","w","g","g",1,0.739451324478068,NA,NA,NA
"experimental",19,25,"ld","lower","checkout","w","w","g","g",1,0.516247151153948,NA,NA,NA
"experimental",19,26,"ld","lower","obtuse","w","w","g","g",1,0.55022047426246,NA,NA,NA
"experimental",19,27,"ld","lower","sorping","nw","nw","h","h",1,0.567162938086767,NA,NA,NA
"experimental",19,28,"ld","lower","geborn","nw","nw","h","h",1,0.53433478316947,NA,NA,NA
"experimental",19,29,"ld","lower","acoustic","w","w","g","g",1,0.670210197877168,NA,NA,NA
"experimental",19,30,"ld","lower","browting","nw","nw","h","h",1,0.545509691308325,NA,NA,NA
"experimental",20,1,"hd","upper","gontracts","nw","nw","h","h",1,0.667217332747896,NA,NA,NA
"experimental",20,2,"hd","upper","scrobby","nw","nw","h","g",0,0.494617410284263,NA,NA,NA
"experimental",20,3,"hd","upper","intrude","w","w","g","g",1,0.545351771321293,NA,NA,NA
"experimental",20,4,"hd","upper","puggers","nw","nw","h","h",1,0.553078925315276,NA,NA,NA
"experimental",20,5,"hd","upper","mabit","nw","nw","h","g",0,0.62509275605953,NA,NA,NA
"experimental",20,6,"hd","upper","skiing","w","w","g","g",1,0.64647485720343,NA,NA,NA
"experimental",20,7,"hd","upper","outlaved","nw","nw","h","h",1,0.59515185521559,NA,NA,NA
"experimental",20,8,"hd","upper","insertion","w","w","g","g",1,0.513885634894905,NA,NA,NA
"experimental",20,9,"hd","upper","encrusted","w","w","g","h",0,0.587479989770145,NA,NA,NA
"experimental",20,10,"hd","upper","puyer","nw","nw","h","h",1,0.498730613420776,NA,NA,NA
"experimental",20,11,"hd","upper","apology","w","w","g","g",1,0.54940438880476,NA,NA,NA
"experimental",20,12,"hd","upper","eugenifs","nw","nw","h","h",1,0.525994820176493,NA,NA,NA
"experimental",20,13,"hd","upper","rainfall","w","w","g","g",1,0.487600730688428,NA,NA,NA
"experimental",20,14,"hd","upper","gonesty","nw","nw","h","h",1,0.489498087996253,NA,NA,NA
"experimental",20,15,"hd","upper","legalize","w","w","g","g",1,0.516292176556817,NA,NA,NA
"experimental",20,16,"hd","upper","elephant","target","target","q","q",1,0.606211882357456,1,NA,NA
"experimental",20,17,"hd","upper","miability","aftertar1","nw","h","h",1,0.484272823579886,NA,NA,NA
"experimental",20,18,"hd","upper","crazy","aftertar2","w","g","g",1,0.503008357927683,NA,NA,NA
"experimental",20,19,"hd","upper","nimono","aftertar3","nw","h","h",1,0.561044118028803,NA,NA,NA
"experimental",20,20,"hd","upper","ebuating","nw","nw","h","h",1,0.46514364801078,NA,NA,NA
"experimental",20,21,"hd","upper","schinter","nw","nw","h","h",1,0.469276384228579,NA,NA,NA
"experimental",20,22,"hd","upper","infested","nw","w","g","h",0,0.496606804814292,NA,NA,NA
"experimental",20,23,"hd","upper","bypassed","w","w","g","h",0,0.443398364008317,NA,NA,NA
"experimental",20,24,"hd","upper","expensive","w","w","g","g",1,0.463172462283183,NA,NA,NA
"experimental",20,25,"hd","upper","porghum","w","nw","h","h",1,0.435202747165022,NA,NA,NA
"experimental",20,26,"hd","upper","lightels","nw","nw","h","h",1,0.45586377969812,NA,NA,NA
"experimental",20,27,"hd","upper","entropy","nw","w","g","g",1,0.611949972888397,NA,NA,NA
"experimental",20,28,"hd","upper","attract","w","w","g","g",1,0.514039582050827,NA,NA,NA
"experimental",20,29,"hd","upper","extruded","w","w","g","g",1,0.452067740807252,NA,NA,NA
"experimental",20,30,"hd","upper","earmaff","w","nw","h","g",0,0.672123115433351,NA,NA,NA
"experimental",21,1,"ld","lower","grummer","nw","nw","h","h",1,0.571496633278002,NA,NA,NA
"experimental",21,2,"ld","lower","restock","w","w","g","g",1,0.426971705923279,NA,NA,NA
"experimental",21,3,"ld","lower","lovud","nw","nw","h","h",1,0.488297631252863,NA,NA,NA
"experimental",21,4,"ld","lower","sengry","nw","nw","h","h",1,0.578992038865181,NA,NA,NA
"experimental",21,5,"ld","lower","rebool","nw","nw","h","h",1,0.514442493207753,NA,NA,NA
"experimental",21,6,"ld","lower","scrib","nw","nw","h","h",1,0.484549928458364,NA,NA,NA
"experimental",21,7,"ld","lower","snays","nw","nw","h","h",1,0.463961069001016,NA,NA,NA
"experimental",21,8,"ld","lower","satisfies","w","w","g","g",1,0.564076711456437,NA,NA,NA
"experimental",21,9,"ld","lower","inforl","nw","nw","h","h",1,0.515163892889177,NA,NA,NA
"experimental",21,10,"ld","lower","racile","nw","nw","h","h",1,0.45321489541675,NA,NA,NA
"experimental",21,11,"ld","lower","massacre","w","w","g","g",1,0.513258258853966,NA,NA,NA
"experimental",21,12,"ld","lower","actual","w","w","g","g",1,0.491302745940629,NA,NA,NA
"experimental",21,13,"ld","lower","crudios","nw","nw","h","h",1,0.48599968027338,NA,NA,NA
"experimental",21,14,"ld","lower","grenavier","nw","nw","h","h",1,0.544751874018402,NA,NA,NA
"experimental",21,15,"ld","lower","gumdrep","nw","nw","h","h",1,0.465606151614338,NA,NA,NA
"experimental",21,16,"ld","lower","potent","w","w","g","g",1,0.621520850985689,NA,NA,NA
"experimental",21,17,"ld","lower","splum","nw","nw","h","h",1,0.506994430508712,NA,NA,NA
"experimental",21,18,"ld","lower","trembla","nw","nw","h","h",1,0.484218528237761,NA,NA,NA
"experimental",21,19,"ld","lower","fission","w","w","g","g",1,0.767749791262759,NA,NA,NA
"experimental",21,20,"ld","lower","painter","w","w","g","g",1,0.526185516007899,NA,NA,NA
"experimental",21,21,"ld","lower","gensions","nw","nw","h","h",1,0.575851516894545,NA,NA,NA
"experimental",21,22,"ld","lower","knowledge","w","w","g","g",1,0.567107980607034,NA,NA,NA
"experimental",21,23,"ld","lower","rapport","w","w","g","g",1,0.686415370699251,NA,NA,NA
"experimental",21,24,"ld","lower","fetching","w","w","g","g",1,0.665168345769416,NA,NA,NA
"experimental",21,25,"ld","lower","alarm","w","w","g","g",1,0.53324854528546,NA,NA,NA
"experimental",21,26,"ld","lower","carnival","w","w","g","g",1,0.478590021595664,NA,NA,NA
"experimental",21,27,"ld","lower","spaceship","w","w","g","g",1,0.513986279916935,NA,NA,NA
"experimental",21,28,"ld","lower","jaguar","target","target","q","q",1,0.628062115280045,1,NA,NA
"experimental",21,29,"ld","lower","prominent","aftertar1","w","g","g",1,0.656669469582994,NA,NA,NA
"experimental",21,30,"ld","lower","imotope","aftertar2","nw","h","h",1,0.548543277942372,NA,NA,NA
"experimental",22,1,"ld","lower","brank","nw","nw","h","h",1,0.646092803403008,NA,NA,NA
"experimental",22,2,"ld","lower","frunted","nw","nw","h","h",1,0.578944695977043,NA,NA,NA
"experimental",22,3,"ld","lower","issue","w","w","g","g",1,0.929417148210632,NA,NA,NA
"experimental",22,4,"ld","lower","deceit","w","w","g","g",1,0.602807167202627,NA,NA,NA
"experimental",22,5,"ld","lower","gairs","nw","nw","h","h",1,0.61683258073208,NA,NA,NA
"experimental",22,6,"ld","lower","hangar","w","w","g","h",0,0.502938833404187,NA,NA,NA
"experimental",22,7,"ld","lower","whirlpool","w","w","g","g",1,0.488984930811057,NA,NA,NA
"experimental",22,8,"ld","lower","innocent","w","w","g","g",1,0.483779530542961,NA,NA,NA
"experimental",22,9,"ld","lower","lentils","w","w","g","g",1,0.622455459200864,NA,NA,NA
"experimental",22,10,"ld","lower","migmarole","nw","nw","h","h",1,0.635888590019022,NA,NA,NA
"experimental",22,11,"ld","lower","ignore","w","w","g","g",1,0.584608627019406,NA,NA,NA
"experimental",22,12,"ld","lower","childhood","w","w","g","g",1,0.543348140818125,NA,NA,NA
"experimental",22,13,"ld","lower","staircase","w","w","g","g",1,0.511164246472617,NA,NA,NA
"experimental",22,14,"ld","lower","twenties","w","w","g","g",1,0.57720923148554,NA,NA,NA
"experimental",22,15,"ld","lower","pircus","nw","nw","h","h",1,0.544549259699124,NA,NA,NA
"experimental",22,16,"ld","lower","corg","nw","nw","h","h",1,0.48929414939812,NA,NA,NA
"experimental",22,17,"ld","lower","sefraud","nw","nw","h","h",1,0.484040744102458,NA,NA,NA
"experimental",22,18,"ld","lower","handed","w","w","g","g",1,0.502754758957963,NA,NA,NA
"experimental",22,19,"ld","lower","neally","nw","nw","h","h",1,0.544811135398049,NA,NA,NA
"experimental",22,20,"ld","lower","stelled","nw","nw","h","h",1,0.633550579672374,NA,NA,NA
"experimental",22,21,"ld","lower","stuggard","nw","nw","h","h",1,0.510958321459839,NA,NA,NA
"experimental",22,22,"ld","lower","earnest","w","w","g","g",1,0.529029400018771,NA,NA,NA
"experimental",22,23,"ld","lower","sequence","w","w","g","g",1,0.465501533763018,NA,NA,NA
"experimental",22,24,"ld","lower","chrik","nw","nw","h","h",1,0.517516139210784,NA,NA,NA
"experimental",22,25,"ld","lower","bother","w","w","g","g",1,0.543004491037209,NA,NA,NA
"experimental",22,26,"ld","lower","doads","nw","nw","h","h",1,0.495569565162441,NA,NA,NA
"experimental",22,27,"ld","lower","susher","nw","nw","h","h",1,0.466448391536687,NA,NA,NA
"experimental",22,28,"ld","lower","horks","nw","nw","h","h",1,0.414393726721755,NA,NA,NA
"experimental",22,29,"ld","lower","plashed","nw","nw","h","h",1,0.500468395397547,NA,NA,NA
"experimental",22,30,"ld","lower","ethical","w","w","g","g",1,0.518460348430381,NA,NA,NA
"experimental",23,1,"ld","lower","yearnungs","nw","nw","h","h",1,0.599297172060687,NA,NA,NA
"experimental",23,2,"ld","lower","unlined","w","w","g","g",1,0.742014461848157,NA,NA,NA
"experimental",23,3,"ld","lower","seasoning","w","w","g","g",1,0.398727203408271,NA,NA,NA
"experimental",23,4,"ld","lower","vintnel","nw","nw","h","h",1,0.46149327954663,NA,NA,NA
"experimental",23,5,"ld","lower","professor","w","w","g","g",1,0.481551766222765,NA,NA,NA
"experimental",23,6,"ld","lower","stretches","w","w","g","g",1,0.468995306517172,NA,NA,NA
"experimental",23,7,"ld","lower","ordinary","w","w","g","g",1,0.488398607343697,NA,NA,NA
"experimental",23,8,"ld","lower","glassware","w","w","g","g",1,0.443077226931564,NA,NA,NA
"experimental",23,9,"ld","lower","blipover","nw","nw","h","h",1,0.614912710725548,NA,NA,NA
"experimental",23,10,"ld","lower","blassed","nw","nw","h","h",1,0.580953292519553,NA,NA,NA
"experimental",23,11,"ld","lower","partner","w","w","g","g",1,0.524295773291669,NA,NA,NA
"experimental",23,12,"ld","lower","patio","w","w","g","g",1,0.75767535698651,NA,NA,NA
"experimental",23,13,"ld","lower","nollow","nw","nw","h","h",1,0.493741732378112,NA,NA,NA
"experimental",23,14,"ld","lower","dentures","w","w","g","h",0,0.528480818436947,NA,NA,NA
"experimental",23,15,"ld","lower","cripet","nw","nw","h","h",1,0.617861543654726,NA,NA,NA
"experimental",23,16,"ld","lower","treason","w","w","g","g",1,0.559287465113812,NA,NA,NA
"experimental",23,17,"ld","lower","scabry","nw","nw","h","h",1,0.503364257263456,NA,NA,NA
"experimental",23,18,"ld","lower","oginous","nw","nw","h","h",1,0.449464875138801,NA,NA,NA
"experimental",23,19,"ld","lower","mixture","w","w","g","g",1,0.56424654993134,NA,NA,NA
"experimental",23,20,"ld","lower","veranpah","nw","nw","h","h",1,0.485241531914653,NA,NA,NA
"experimental",23,21,"ld","lower","courier","w","w","g","g",1,0.511997878595139,NA,NA,NA
"experimental",23,22,"ld","lower","flieves","nw","nw","h","h",1,0.561957206749867,NA,NA,NA
"experimental",23,23,"ld","lower","absent","w","w","g","g",1,0.506081672858272,NA,NA,NA
"experimental",23,24,"ld","lower","thaken","nw","nw","h","h",1,0.452033309615217,NA,NA,NA
"experimental",23,25,"ld","lower","pressures","w","w","g","g",1,0.568014447942915,NA,NA,NA
"experimental",23,26,"ld","lower","rawhide","w","w","g","h",0,0.455544297965389,NA,NA,NA
"experimental",23,27,"ld","lower","ghists","nw","nw","h","h",1,0.451126511208713,NA,NA,NA
"experimental",23,28,"ld","lower","gremieres","nw","nw","h","h",1,0.480353295895838,NA,NA,NA
"experimental",23,29,"ld","lower","elormity","nw","nw","h","h",1,0.506818963860496,NA,NA,NA
"experimental",23,30,"ld","lower","collute","nw","nw","h","h",1,0.516921870083024,NA,NA,NA
"experimental",24,1,"hd","upper","urgency","w","w","g","g",1,0.519210551126889,NA,NA,NA
"experimental",24,2,"hd","upper","frader","nw","nw","h","h",1,0.408606637955018,NA,NA,NA
"experimental",24,3,"hd","upper","breiled","nw","nw","h","h",1,0.4547116590511,NA,NA,NA
"experimental",24,4,"hd","upper","primal","w","w","g","g",1,0.554813065531562,NA,NA,NA
"experimental",24,5,"hd","upper","pegend","nw","nw","h","h",1,0.481906341285139,NA,NA,NA
"experimental",24,6,"hd","upper","ezulated","nw","nw","h","h",1,0.381208348191649,NA,NA,NA
"experimental",24,7,"hd","upper","brials","nw","nw","h","h",1,0.604635662126384,NA,NA,NA
"experimental",24,8,"hd","upper","rumblos","nw","nw","h","h",1,0.442674646843443,NA,NA,NA
"experimental",24,9,"hd","upper","plartly","nw","nw","h","h",1,0.431430214184729,NA,NA,NA
"experimental",24,10,"hd","upper","demise","w","w","g","g",1,0.588830089767725,NA,NA,NA
"experimental",24,11,"hd","upper","catacomb","w","w","g","g",1,0.707541555388161,NA,NA,NA
"experimental",24,12,"hd","upper","beggarlan","nw","nw","h","h",1,0.541641479341706,NA,NA,NA
"experimental",24,13,"hd","upper","gaioty","nw","nw","h","h",1,0.558424698903764,NA,NA,NA
"experimental",24,14,"hd","upper","demon","w","w","g","h",0,0.429522924803678,NA,NA,NA
"experimental",24,15,"hd","upper","index","w","w","g","h",0,0.914884536739919,NA,NA,NA
"experimental",24,16,"hd","upper","entitle","w","w","g","g",1,0.460940394064892,NA,NA,NA
"experimental",24,17,"hd","upper","thesis","w","w","g","g",1,0.328993445909873,NA,NA,NA
"experimental",24,18,"hd","upper","fivalve","nw","nw","h","h",1,0.570384240929343,NA,NA,NA
"experimental",24,19,"hd","upper","currowing","nw","nw","h","h",1,0.593730906417477,NA,NA,NA
"experimental",24,20,"hd","upper","condensed","w","w","g","g",1,0.456448116749016,NA,NA,NA
"experimental",24,21,"hd","upper","hanling","nw","nw","h","h",1,0.484450276644566,NA,NA,NA
"experimental",24,22,"hd","upper","matter","w","w","g","g",1,0.519284379546662,NA,NA,NA
"experimental",24,23,"hd","upper","sweeping","w","w","g","g",1,0.455776046372193,NA,NA,NA
"experimental",24,24,"hd","upper","acorn","w","w","g","g",1,0.43580794157242,NA,NA,NA
"experimental",24,25,"hd","upper","surfaced","w","w","g","g",1,0.328544847208832,NA,NA,NA
"experimental",24,26,"hd","upper","trewl","nw","nw","h","h",1,0.601836472451396,NA,NA,NA
"experimental",24,27,"hd","upper","dusmy","nw","nw","h","h",1,0.46399152736376,NA,NA,NA
"experimental",24,28,"hd","upper","opert","nw","nw","h","h",1,0.412027244428828,NA,NA,NA
"experimental",24,29,"hd","upper","octopus","target","target","q","g",0,0.450225009910355,1,1,NA
"experimental",24,30,"hd","upper","ergonomic","aftertar1","w","g","g",1,0.566879873962534,NA,NA,NA
"experimental",25,1,"hd","upper","ebince","nw","nw","h","g",0,0.542938608277836,NA,NA,NA
"experimental",25,2,"hd","upper","splatter","w","w","g","g",1,0.447606583991728,NA,NA,NA
"experimental",25,3,"hd","upper","showdown","w","w","g","g",1,0.444415739510077,NA,NA,NA
"experimental",25,4,"hd","upper","distrust","w","w","g","g",1,0.401080442936291,NA,NA,NA
"experimental",25,5,"hd","upper","preserve","w","w","g","g",1,0.415148233318178,NA,NA,NA
"experimental",25,6,"hd","upper","afford","w","w","g","g",1,0.413199891363547,NA,NA,NA
"experimental",25,7,"hd","upper","trembles","w","w","g","g",1,0.435456015065938,NA,NA,NA
"experimental",25,8,"hd","upper","pypecast","nw","nw","h","h",1,0.496047960086798,NA,NA,NA
"experimental",25,9,"hd","upper","outrank","w","w","g","g",1,0.546729681129364,NA,NA,NA
"experimental",25,10,"hd","upper","anonymous","w","w","g","g",1,0.458594769126648,NA,NA,NA
"experimental",25,11,"hd","upper","chyme","nw","nw","h","h",1,0.534605597737027,NA,NA,NA
"experimental",25,12,"hd","upper","binder","w","w","g","g",1,0.551292807243954,NA,NA,NA
"experimental",25,13,"hd","upper","gablus","nw","nw","h","h",1,0.479348501019558,NA,NA,NA
"experimental",25,14,"hd","upper","rantho","nw","nw","h","h",1,0.4586543615751,NA,NA,NA
"experimental",25,15,"hd","upper","addma","nw","nw","h","h",1,0.470703954408236,NA,NA,NA
"experimental",25,16,"hd","upper","tiery","nw","nw","h","h",1,0.514146848456221,NA,NA,NA
"experimental",25,17,"hd","upper","blanned","nw","nw","h","g",0,0.540171863378418,NA,NA,NA
"experimental",25,18,"hd","upper","cogantly","nw","nw","h","g",0,0.636850676972244,NA,NA,NA
"experimental",25,19,"hd","upper","bailmenz","nw","nw","h","h",1,0.465636278908278,NA,NA,NA
"experimental",25,20,"hd","upper","acting","w","w","g","g",1,0.50799425934747,NA,NA,NA
"experimental",25,21,"hd","upper","tharcely","nw","nw","h","h",1,0.510969577810101,NA,NA,NA
"experimental",25,22,"hd","upper","huntry","nw","nw","h","h",1,0.512853030213591,NA,NA,NA
"experimental",25,23,"hd","upper","gaining","w","w","g","h",0,0.467067821917226,NA,NA,NA
"experimental",25,24,"hd","upper","paranoid","w","w","g","g",1,0.783045186057279,NA,NA,NA
"experimental",25,25,"hd","upper","teamwork","w","w","g","g",1,0.470528156689397,NA,NA,NA
"experimental",25,26,"hd","upper","supplier","w","w","g","g",1,0.52194981728644,NA,NA,NA
"experimental",25,27,"hd","upper","fravity","nw","nw","h","h",1,0.539282942707359,NA,NA,NA
"experimental",25,28,"hd","upper","uncarled","nw","nw","h","h",1,0.604041392998624,NA,NA,NA
"experimental",25,29,"hd","upper","lawsuit","w","w","g","g",1,0.562018785611144,NA,NA,NA
"experimental",25,30,"hd","upper","olerates","nw","nw","h","h",1,0.505184144389204,NA,NA,NA
"experimental",26,1,"hd","upper","allained","nw","nw","h","h",1,0.612135371613476,NA,NA,NA
"experimental",26,2,"hd","upper","markot","nw","nw","h","h",1,0.610208549151139,NA,NA,NA
"experimental",26,3,"hd","upper","cassette","w","w","g","g",1,0.696286197447989,NA,NA,NA
"experimental",26,4,"hd","upper","nogwhell","nw","nw","h","h",1,0.458200465767732,NA,NA,NA
"experimental",26,5,"hd","upper","dontrite","nw","nw","h","h",1,0.614207533431909,NA,NA,NA
"experimental",26,6,"hd","upper","ephically","nw","nw","h","h",1,0.716390040599435,NA,NA,NA
"experimental",26,7,"hd","upper","sength","nw","nw","h","h",1,0.406213670130455,NA,NA,NA
"experimental",26,8,"hd","upper","unstatle","nw","nw","h","h",1,0.612351559768285,NA,NA,NA
"experimental",26,9,"hd","upper","embrace","w","w","g","g",1,0.674231363789659,NA,NA,NA
"experimental",26,10,"hd","upper","subpoena","w","w","g","h",0,0.429664291332301,NA,NA,NA
"experimental",26,11,"hd","upper","clume","nw","nw","h","h",1,0.491071328604448,NA,NA,NA
"experimental",26,12,"hd","upper","contusiok","nw","nw","h","h",1,0.461840902156837,NA,NA,NA
"experimental",26,13,"hd","upper","resent","w","w","g","g",1,0.417780895211763,NA,NA,NA
"experimental",26,14,"hd","upper","tunneg","nw","nw","h","h",1,0.607217008300722,NA,NA,NA
"experimental",26,15,"hd","upper","fracture","w","w","g","g",1,0.484789953592554,NA,NA,NA
"experimental",26,16,"hd","upper","priant","nw","nw","h","h",1,0.496288316289792,NA,NA,NA
"experimental",26,17,"hd","upper","equitable","w","w","g","g",1,0.451084465426902,NA,NA,NA
"experimental",26,18,"hd","upper","kangaroo","target","target","q","g",0,0.535674288958035,1,1,NA
"experimental",26,19,"hd","upper","outfit","aftertar1","w","g","g",1,0.528632779176405,NA,NA,NA
"experimental",26,20,"hd","upper","kilotin","aftertar2","nw","h","h",1,0.466069317357324,NA,NA,NA
"experimental",26,21,"hd","upper","bamboo","aftertar3","w","g","g",1,0.886119593520561,NA,NA,NA
"experimental",26,22,"hd","upper","gewer","w","nw","h","h",1,0.456876189162358,NA,NA,NA
"experimental",26,23,"hd","upper","phonology","nw","w","g","h",0,0.452945736196853,NA,NA,NA
"experimental",26,24,"hd","upper","baseline","w","w","g","g",1,0.513009956990572,NA,NA,NA
"experimental",26,25,"hd","upper","engineer","w","w","g","g",1,0.538151017279233,NA,NA,NA
"experimental",26,26,"hd","upper","picnic","w","w","g","g",1,0.626862982813691,NA,NA,NA
"experimental",26,27,"hd","upper","runabouk","w","nw","h","h",1,0.520190184744934,NA,NA,NA
"experimental",26,28,"hd","upper","static","nw","w","g","g",1,0.465611448722484,NA,NA,NA
"experimental",26,29,"hd","upper","brighten","w","w","g","g",1,0.41363822691892,NA,NA,NA
"experimental",26,30,"hd","upper","godomy","w","nw","h","g",0,0.35577594705137,NA,NA,NA
"experimental",27,1,"hd","upper","rational","w","w","g","g",1,0.451824736050185,NA,NA,NA
"experimental",27,2,"hd","upper","neuran","nw","nw","h","h",1,0.495852298217869,NA,NA,NA
"experimental",27,3,"hd","upper","volition","w","w","g","g",1,0.618571355917084,NA,NA,NA
"experimental",27,4,"hd","upper","kraums","nw","nw","h","h",1,0.591970611738361,NA,NA,NA
"experimental",27,5,"hd","upper","dominion","w","w","g","g",1,0.45453023315531,NA,NA,NA
"experimental",27,6,"hd","upper","throttle","w","w","g","h",0,0.474615536431884,NA,NA,NA
"experimental",27,7,"hd","upper","redefloy","nw","nw","h","h",1,0.478099377112812,NA,NA,NA
"experimental",27,8,"hd","upper","regards","w","w","g","g",1,0.537449812816703,NA,NA,NA
"experimental",27,9,"hd","upper","adok","nw","nw","h","h",1,0.43411717141862,NA,NA,NA
"experimental",27,10,"hd","upper","giving","w","w","g","g",1,0.486896215536035,NA,NA,NA
"experimental",27,11,"hd","upper","booster","w","w","g","h",0,0.800831545147958,NA,NA,NA
"experimental",27,12,"hd","upper","valif","nw","nw","h","h",1,0.519512817261784,NA,NA,NA
"experimental",27,13,"hd","upper","geissue","nw","nw","h","h",1,0.552789570876485,NA,NA,NA
"experimental",27,14,"hd","upper","anemic","w","w","g","g",1,0.76106649830399,NA,NA,NA
"experimental",27,15,"hd","upper","filter","w","w","g","g",1,0.552999137651568,NA,NA,NA
"experimental",27,16,"hd","upper","rabbit","target","target","q","g",0,0.441118621831265,1,1,NA
"experimental",27,17,"hd","upper","rodeo","aftertar1","w","g","g",1,0.645831920912315,NA,NA,NA
"experimental",27,18,"hd","upper","pamine","aftertar2","nw","h","h",1,0.59462015815916,NA,NA,NA
"experimental",27,19,"hd","upper","yellep","aftertar3","nw","h","h",1,0.577271472486245,NA,NA,NA
"experimental",27,20,"hd","upper","maunches","nw","nw","h","h",1,0.695777013093902,NA,NA,NA
"experimental",27,21,"hd","upper","ounside","nw","nw","h","h",1,0.626466030900701,NA,NA,NA
"experimental",27,22,"hd","upper","dests","nw","nw","h","h",1,0.415871619414247,NA,NA,NA
"experimental",27,23,"hd","upper","ameld","nw","nw","h","h",1,0.4378648742113,NA,NA,NA
"experimental",27,24,"hd","upper","tragedy","nw","w","g","g",1,0.570598111600702,NA,NA,NA
"experimental",27,25,"hd","upper","paying","w","w","g","g",1,0.434003283629863,NA,NA,NA
"experimental",27,26,"hd","upper","eggays","w","nw","h","h",1,0.814723537811005,NA,NA,NA
"experimental",27,27,"hd","upper","living","nw","w","g","g",1,0.500892163910976,NA,NA,NA
"experimental",27,28,"hd","upper","observer","w","w","g","g",1,0.502867653536669,NA,NA,NA
"experimental",27,29,"hd","upper","arrigns","w","nw","h","h",1,0.544966075760385,NA,NA,NA
"experimental",27,30,"hd","upper","abstain","nw","w","g","g",1,0.448846437962857,NA,NA,NA
"experimental",28,1,"ld","lower","trophy","w","w","g","g",1,0.502436601502268,NA,NA,NA
"experimental",28,2,"ld","lower","revising","w","w","g","g",1,0.41647880023811,NA,NA,NA
"experimental",28,3,"ld","lower","seartfelt","nw","nw","h","h",1,0.590472523828794,NA,NA,NA
"experimental",28,4,"ld","lower","finstrel","nw","nw","h","h",1,0.501112324895075,NA,NA,NA
"experimental",28,5,"ld","lower","assent","w","w","g","g",1,0.543215713158133,NA,NA,NA
"experimental",28,6,"ld","lower","lofty","w","w","g","h",0,0.487107437653322,NA,NA,NA
"experimental",28,7,"ld","lower","dialogues","w","w","g","g",1,0.568820270258584,NA,NA,NA
"experimental",28,8,"ld","lower","stifle","w","w","g","g",1,0.568643148262709,NA,NA,NA
"experimental",28,9,"ld","lower","atble","nw","nw","h","h",1,0.512039924375131,NA,NA,NA
"experimental",28,10,"ld","lower","graciap","nw","nw","h","h",1,0.546031456289711,NA,NA,NA
"experimental",28,11,"ld","lower","profats","nw","nw","h","h",1,0.482744277307575,NA,NA,NA
"experimental",28,12,"ld","lower","monopoly","w","w","g","g",1,0.534199706955405,NA,NA,NA
"experimental",28,13,"ld","lower","emotion","w","w","g","g",1,0.454893747082679,NA,NA,NA
"experimental",28,14,"ld","lower","incidonts","nw","nw","h","h",1,0.570970895465507,NA,NA,NA
"experimental",28,15,"ld","lower","otoist","nw","nw","h","h",1,0.514330260764837,NA,NA,NA
"experimental",28,16,"ld","lower","column","w","w","g","h",0,0.515423782173457,NA,NA,NA
"experimental",28,17,"ld","lower","plunging","w","w","g","g",1,0.597373991360655,NA,NA,NA
"experimental",28,18,"ld","lower","season","w","w","g","g",1,0.500246910134592,NA,NA,NA
"experimental",28,19,"ld","lower","roughly","w","w","g","g",1,0.462792394897406,NA,NA,NA
"experimental",28,20,"ld","lower","hostade","nw","nw","h","h",1,0.698915879718697,NA,NA,NA
"experimental",28,21,"ld","lower","refebs","nw","nw","h","h",1,0.613626176002072,NA,NA,NA
"experimental",28,22,"ld","lower","robbery","w","w","g","g",1,0.611677502976818,NA,NA,NA
"experimental",28,23,"ld","lower","integral","w","w","g","g",1,0.465831940777207,NA,NA,NA
"experimental",28,24,"ld","lower","walsams","nw","nw","h","h",1,0.533807390012953,NA,NA,NA
"experimental",28,25,"ld","lower","favoting","nw","nw","h","h",1,0.573614482638732,NA,NA,NA
"experimental",28,26,"ld","lower","erony","nw","nw","h","h",1,0.485012100994936,NA,NA,NA
"experimental",28,27,"ld","lower","pimorous","nw","nw","h","h",1,0.815691915080606,NA,NA,NA
"experimental",28,28,"ld","lower","exclusion","w","w","g","h",0,0.509720784970341,NA,NA,NA
"experimental",28,29,"ld","lower","amms","nw","nw","h","h",1,0.591800442196472,NA,NA,NA
"experimental",28,30,"ld","lower","peanimate","nw","nw","h","h",1,0.534474494352253,NA,NA,NA
"experimental",29,1,"ld","lower","nostril","w","w","g","g",1,0.494523386645596,NA,NA,NA
"experimental",29,2,"ld","lower","expected","w","w","g","g",1,0.423625921077473,NA,NA,NA
"experimental",29,3,"ld","lower","cookbook","w","w","g","g",1,0.454312058584037,NA,NA,NA
"experimental",29,4,"ld","lower","rootsie","nw","nw","h","h",1,0.674692212047376,NA,NA,NA
"experimental",29,5,"ld","lower","glocked","nw","nw","h","h",1,0.782135076962732,NA,NA,NA
"experimental",29,6,"ld","lower","mitten","w","w","g","g",1,0.637555854264065,NA,NA,NA
"experimental",29,7,"ld","lower","insole","w","w","g","g",1,0.634302768785346,NA,NA,NA
"experimental",29,8,"ld","lower","typical","w","w","g","g",1,0.567139763244995,NA,NA,NA
"experimental",29,9,"ld","lower","poyride","nw","nw","h","h",1,0.694422278125785,NA,NA,NA
"experimental",29,10,"ld","lower","fatho","nw","nw","h","h",1,0.584252727681815,NA,NA,NA
"experimental",29,11,"ld","lower","guitar","w","w","g","g",1,0.430957116368518,NA,NA,NA
"experimental",29,12,"ld","lower","fidelity","w","w","g","g",1,0.50050183338135,NA,NA,NA
"experimental",29,13,"ld","lower","podes","nw","nw","h","h",1,0.494341960751626,NA,NA,NA
"experimental",29,14,"ld","lower","peadgear","nw","nw","h","h",1,0.4570648985773,NA,NA,NA
"experimental",29,15,"ld","lower","axis","w","w","g","g",1,0.493107072816201,NA,NA,NA
"experimental",29,16,"ld","lower","terming","w","w","g","g",1,0.775915280813933,NA,NA,NA
"experimental",29,17,"ld","lower","ecistle","nw","nw","h","h",1,0.527263477166343,NA,NA,NA
"experimental",29,18,"ld","lower","retona","nw","nw","h","h",1,0.480686682531086,NA,NA,NA
"experimental",29,19,"ld","lower","iolize","nw","nw","h","h",1,0.828073570271954,NA,NA,NA
"experimental",29,20,"ld","lower","tucker","w","w","g","g",1,0.848622039293332,NA,NA,NA
"experimental",29,21,"ld","lower","lindo","nw","nw","h","h",1,0.501224226269187,NA,NA,NA
"experimental",29,22,"ld","lower","treenery","nw","nw","h","h",1,0.615320256849373,NA,NA,NA
"experimental",29,23,"ld","lower","wrecber","nw","nw","h","h",1,0.421373326571484,NA,NA,NA
"experimental",29,24,"ld","lower","loneliest","w","w","g","g",1,0.498776300964892,NA,NA,NA
"experimental",29,25,"ld","lower","moisture","w","w","g","g",1,0.501524505989437,NA,NA,NA
"experimental",29,26,"ld","lower","burrowing","w","w","g","g",1,0.415529624980991,NA,NA,NA
"experimental",29,27,"ld","lower","ufionize","nw","nw","h","h",1,0.501606611138413,NA,NA,NA
"experimental",29,28,"ld","lower","setwixt","nw","nw","h","h",1,0.471630616963012,NA,NA,NA
"experimental",29,29,"ld","lower","afternoon","w","w","g","g",1,0.666333709183164,NA,NA,NA
"experimental",29,30,"ld","lower","hemoter","nw","nw","h","h",1,0.502171415111661,NA,NA,NA
"experimental",30,1,"hd","upper","tritical","nw","nw","h","h",1,0.63322546976633,NA,NA,NA
"experimental",30,2,"hd","upper","bingu","nw","nw","h","h",1,0.454652066602648,NA,NA,NA
"experimental",30,3,"hd","upper","desert","w","w","g","g",1,0.50672494022001,NA,NA,NA
"experimental",30,4,"hd","upper","mandlers","nw","nw","h","h",1,0.492818711583823,NA,NA,NA
"experimental",30,5,"hd","upper","dehydrate","w","w","g","g",1,0.630586848628809,NA,NA,NA
"experimental",30,6,"hd","upper","glaims","nw","nw","h","h",1,0.484000022597684,NA,NA,NA
"experimental",30,7,"hd","upper","etuip","nw","nw","h","h",1,0.454668288990433,NA,NA,NA
"experimental",30,8,"hd","upper","pranny","nw","nw","h","h",1,0.426718438022362,NA,NA,NA
"experimental",30,9,"hd","upper","argue","w","w","g","h",0,0.456185578912482,NA,NA,NA
"experimental",30,10,"hd","upper","riosk","nw","nw","h","h",1,0.476193743077602,NA,NA,NA
"experimental",30,11,"hd","upper","humanize","w","w","g","g",1,0.423642143467077,NA,NA,NA
"experimental",30,12,"hd","upper","statute","w","w","g","g",1,0.572981809491466,NA,NA,NA
"experimental",30,13,"hd","upper","louches","nw","nw","h","h",1,0.56437566689965,NA,NA,NA
"experimental",30,14,"hd","upper","mullet","w","w","g","g",1,0.524455017553919,NA,NA,NA
"experimental",30,15,"hd","upper","cartles","nw","nw","h","h",1,0.573018889235755,NA,NA,NA
"experimental",30,16,"hd","upper","gunrunker","nw","nw","h","h",1,0.468192794895003,NA,NA,NA
"experimental",30,17,"hd","upper","angry","w","w","g","g",1,0.535663032605953,NA,NA,NA
"experimental",30,18,"hd","upper","terrify","w","w","g","g",1,0.44039324932055,NA,NA,NA
"experimental",30,19,"hd","upper","lizard","target","target","q","g",0,0.45319271378321,1,1,NA
"experimental",30,20,"hd","upper","odacles","aftertar1","nw","h","h",1,0.545038248836136,NA,NA,NA
"experimental",30,21,"hd","upper","unamufed","aftertar2","nw","h","h",1,0.489999988829368,NA,NA,NA
"experimental",30,22,"hd","upper","thacked","aftertar3","nw","h","h",1,0.468676155856883,NA,NA,NA
"experimental",30,23,"hd","upper","arrive","nw","w","g","g",1,0.543983462519464,NA,NA,NA
"experimental",30,24,"hd","upper","aviation","w","w","g","g",1,0.400787446738832,NA,NA,NA
"experimental",30,25,"hd","upper","presently","w","w","g","g",1,0.470802281946817,NA,NA,NA
"experimental",30,26,"hd","upper","razelle","w","nw","h","h",1,0.52926942515478,NA,NA,NA
"experimental",30,27,"hd","upper","larger","nw","w","g","g",1,0.466580157057251,NA,NA,NA
"experimental",30,28,"hd","upper","compose","w","w","g","g",1,0.502338273963687,NA,NA,NA
"experimental",30,29,"hd","upper","religious","w","w","g","g",1,0.463655823245062,NA,NA,NA
"experimental",30,30,"hd","upper","oleandur","w","nw","h","h",1,0.492136046994347,NA,NA,NA
"experimental",31,1,"ld","lower","comply","w","w","g","g",1,0.598343361833031,NA,NA,NA
"experimental",31,2,"ld","lower","ilcurring","nw","nw","h","h",1,0.557065328966928,NA,NA,NA
"experimental",31,3,"ld","lower","admire","w","w","g","g",1,0.589087330499751,NA,NA,NA
"experimental",31,4,"ld","lower","sputter","w","w","g","g",1,0.443789025606748,NA,NA,NA
"experimental",31,5,"ld","lower","tining","nw","nw","h","h",1,0.656567500285746,NA,NA,NA
"experimental",31,6,"ld","lower","colicky","w","w","g","h",0,0.468629475106354,NA,NA,NA
"experimental",31,7,"ld","lower","farochial","nw","nw","h","h",1,0.519994522877823,NA,NA,NA
"experimental",31,8,"ld","lower","labitable","nw","nw","h","h",1,0.497379520213144,NA,NA,NA
"experimental",31,9,"ld","lower","geadpan","nw","nw","h","h",1,0.516244502599875,NA,NA,NA
"experimental",31,10,"ld","lower","noblest","w","w","g","g",1,0.669043510186384,NA,NA,NA
"experimental",31,11,"ld","lower","graveyard","w","w","g","g",1,0.496710429459199,NA,NA,NA
"experimental",31,12,"ld","lower","flamingo","target","target","q","g",0,0.563347697185236,NA,NA,NA
"experimental",31,13,"ld","lower","contact","aftertar1","w","g","g",1,0.651392558378575,NA,NA,NA
"experimental",31,14,"ld","lower","oppose","aftertar2","w","g","g",1,0.49526133978361,NA,NA,NA
"experimental",31,15,"ld","lower","relaying","aftertar3","w","g","g",1,0.514182934994096,NA,NA,NA
"experimental",31,16,"ld","lower","inverted","w","w","g","g",1,0.444326681908933,NA,NA,NA
"experimental",31,17,"ld","lower","pester","w","w","g","h",0,0.609022328382707,NA,NA,NA
"experimental",31,18,"ld","lower","dealer","w","w","g","g",1,0.727008090423624,NA,NA,NA
"experimental",31,19,"ld","lower","dredigest","w","nw","h","h",1,0.59244039886471,NA,NA,NA
"experimental",31,20,"ld","lower","bettled","nw","nw","h","h",1,0.654242070566397,NA,NA,NA
"experimental",31,21,"ld","lower","rationale","nw","w","g","g",1,0.522261684425757,NA,NA,NA
"experimental",31,22,"ld","lower","flacked","w","nw","h","h",1,0.539528596018499,NA,NA,NA
"experimental",31,23,"ld","lower","fabstand","nw","nw","h","h",1,0.507997901107956,NA,NA,NA
"experimental",31,24,"ld","lower","chappef","nw","nw","h","h",1,0.46209383898713,NA,NA,NA
"experimental",31,25,"ld","lower","sefine","nw","nw","h","h",1,0.490531023746371,NA,NA,NA
"experimental",31,26,"ld","lower","brimitive","nw","nw","h","h",1,0.533221728683202,NA,NA,NA
"experimental",31,27,"ld","lower","joadbed","nw","nw","h","h",1,0.462570578565646,NA,NA,NA
"experimental",31,28,"ld","lower","gazes","nw","w","g","h",0,0.490657492164246,NA,NA,NA
"experimental",31,29,"ld","lower","borrent","w","nw","h","h",1,0.485457057933672,NA,NA,NA
"experimental",31,30,"ld","lower","oppose","nw","w","g","g",1,0.567339729013838,NA,NA,NA
"experimental",32,1,"ld","lower","uncorked","w","w","g","g",1,0.614985545937088,NA,NA,NA
"experimental",32,2,"ld","lower","stable","w","w","g","g",1,0.469055561103232,NA,NA,NA
"experimental",32,3,"ld","lower","resume","w","w","g","g",1,0.400469620353761,NA,NA,NA
"experimental",32,4,"ld","lower","rowel","nw","nw","h","h",1,0.56653721738985,NA,NA,NA
"experimental",32,5,"ld","lower","seighing","nw","nw","h","h",1,0.525673020962131,NA,NA,NA
"experimental",32,6,"ld","lower","hatred","w","w","g","g",1,0.671017344468055,NA,NA,NA
"experimental",32,7,"ld","lower","saturate","w","w","g","g",1,0.602706522180597,NA,NA,NA
"experimental",32,8,"ld","lower","prame","nw","nw","h","g",0,0.488375432501925,NA,NA,NA
"experimental",32,9,"ld","lower","diatonic","w","w","g","h",0,0.867179458437022,NA,NA,NA
"experimental",32,10,"ld","lower","lasprey","nw","nw","h","h",1,0.478499970786288,NA,NA,NA
"experimental",32,11,"ld","lower","maroon","w","w","g","h",0,0.473942803917453,NA,NA,NA
"experimental",32,12,"ld","lower","cherry","w","w","g","g",1,0.477339573410063,NA,NA,NA
"experimental",32,13,"ld","lower","baladroit","nw","nw","h","h",1,0.45672025559179,NA,NA,NA
"experimental",32,14,"ld","lower","imprives","nw","nw","h","h",1,0.700732456150945,NA,NA,NA
"experimental",32,15,"ld","lower","mitro","nw","nw","h","h",1,0.437917514205765,NA,NA,NA
"experimental",32,16,"ld","lower","unbridled","w","w","g","h",0,0.563591364081731,NA,NA,NA
"experimental",32,17,"ld","lower","egcused","nw","nw","h","h",1,0.618566389879561,NA,NA,NA
"experimental",32,18,"ld","lower","sunshine","w","w","g","g",1,0.455307252454077,NA,NA,NA
"experimental",32,19,"ld","lower","shurk","nw","nw","h","h",1,0.507878385144068,NA,NA,NA
"experimental",32,20,"ld","lower","sheerio","nw","nw","h","h",1,0.598039440354114,NA,NA,NA
"experimental",32,21,"ld","lower","prillway","nw","nw","h","h",1,0.636864581878399,NA,NA,NA
"experimental",32,22,"ld","lower","recipus","nw","nw","h","h",1,0.561030213126287,NA,NA,NA
"experimental",32,23,"ld","lower","vivid","w","w","g","g",1,0.505039136101914,NA,NA,NA
"experimental",32,24,"ld","lower","century","w","w","g","g",1,0.475125713994203,NA,NA,NA
"experimental",32,25,"ld","lower","volume","w","w","g","g",1,0.453604232738144,NA,NA,NA
"experimental",32,26,"ld","lower","portify","nw","nw","h","h",1,0.601685835987155,NA,NA,NA
"experimental",32,27,"ld","lower","elvisages","nw","nw","h","h",1,0.679681424158844,NA,NA,NA
"experimental",32,28,"ld","lower","catgup","nw","nw","h","h",1,0.6512028557554,NA,NA,NA
"experimental",32,29,"ld","lower","postal","w","w","g","g",1,0.438524695031447,NA,NA,NA
"experimental",32,30,"ld","lower","hardest","w","w","g","g",1,0.435224266660953,NA,NA,NA
"experimental",33,1,"ld","lower","exemplify","w","w","g","g",1,0.503394384555577,NA,NA,NA
"experimental",33,2,"ld","lower","beartiset","nw","nw","h","h",1,0.505333125507605,NA,NA,NA
"experimental",33,3,"ld","lower","pariah","w","w","g","h",0,0.443330825901285,NA,NA,NA
"experimental",33,4,"ld","lower","smabled","nw","nw","h","h",1,0.528076914071789,NA,NA,NA
"experimental",33,5,"ld","lower","leuter","nw","nw","h","h",1,0.465507824077577,NA,NA,NA
"experimental",33,6,"ld","lower","goblet","w","w","g","g",1,0.661506058815576,NA,NA,NA
"experimental",33,7,"ld","lower","slowning","nw","nw","h","h",1,0.569618477982658,NA,NA,NA
"experimental",33,8,"ld","lower","penalize","w","w","g","g",1,0.655766975076403,NA,NA,NA
"experimental",33,9,"ld","lower","drauns","nw","nw","h","h",1,0.53303699209755,NA,NA,NA
"experimental",33,10,"ld","lower","unrealon","nw","nw","h","h",1,0.661475931525274,NA,NA,NA
"experimental",33,11,"ld","lower","ludictous","nw","nw","h","h",1,0.83060724248935,NA,NA,NA
"experimental",33,12,"ld","lower","dorte","nw","nw","h","h",1,0.587497205364343,NA,NA,NA
"experimental",33,13,"ld","lower","virulent","w","w","g","g",1,0.66631748679356,NA,NA,NA
"experimental",33,14,"ld","lower","define","w","w","g","g",1,0.46299798884138,NA,NA,NA
"experimental",33,15,"ld","lower","sponto","nw","nw","h","h",1,0.579075799361817,NA,NA,NA
"experimental",33,16,"ld","lower","formation","w","w","g","h",0,0.498249238873541,NA,NA,NA
"experimental",33,17,"ld","lower","gestalion","nw","nw","h","h",1,0.613357678919783,NA,NA,NA
"experimental",33,18,"ld","lower","usage","w","w","g","g",1,0.547455384708883,NA,NA,NA
"experimental",33,19,"ld","lower","plymie","nw","nw","h","h",1,0.660137087876137,NA,NA,NA
"experimental",33,20,"ld","lower","envelop","w","w","g","g",1,0.527292280181427,NA,NA,NA
"experimental",33,21,"ld","lower","appain","nw","nw","h","h",1,0.648695006933849,NA,NA,NA
"experimental",33,22,"ld","lower","uncounted","w","w","g","g",1,0.605360041430686,NA,NA,NA
"experimental",33,23,"ld","lower","marinate","w","w","g","g",1,0.595452797073449,NA,NA,NA
"experimental",33,24,"ld","lower","lifetime","w","w","g","g",1,0.450157140734518,NA,NA,NA
"experimental",33,25,"ld","lower","bropic","nw","nw","h","h",1,0.574871221138892,NA,NA,NA
"experimental",33,26,"ld","lower","colored","w","w","g","g",1,0.486331742631592,NA,NA,NA
"experimental",33,27,"ld","lower","irregular","w","w","g","g",1,0.384966314129997,NA,NA,NA
"experimental",33,28,"ld","lower","tibs","nw","nw","h","h",1,0.599155143394455,NA,NA,NA
"experimental",33,29,"ld","lower","stagger","w","w","g","g",1,0.589778271818432,NA,NA,NA
"experimental",33,30,"ld","lower","coster","nw","nw","h","h",1,0.603607030272542,NA,NA,NA
"experimental",34,1,"hd","upper","hutting","nw","nw","h","h",1,0.754586481803926,NA,NA,NA
"experimental",34,2,"hd","upper","bedding","w","w","g","g",1,0.49064590474336,NA,NA,NA
"experimental",34,3,"hd","upper","preclude","w","w","g","g",1,0.485373959576464,NA,NA,NA
"experimental",34,4,"hd","upper","module","w","w","g","g",1,0.448065114765996,NA,NA,NA
"experimental",34,5,"hd","upper","metebing","nw","nw","h","h",1,0.443925095027225,NA,NA,NA
"experimental",34,6,"hd","upper","withep","nw","nw","h","h",1,0.424594298345255,NA,NA,NA
"experimental",34,7,"hd","upper","nature","w","w","g","g",1,0.557982390517282,NA,NA,NA
"experimental",34,8,"hd","upper","drobate","nw","nw","h","h",1,0.429976158473437,NA,NA,NA
"experimental",34,9,"hd","upper","realize","w","w","g","h",0,0.36346006205531,NA,NA,NA
"experimental",34,10,"hd","upper","computer","w","w","g","g",1,0.411577983588359,NA,NA,NA
"experimental",34,11,"hd","upper","servant","w","w","g","g",1,0.38568837594903,NA,NA,NA
"experimental",34,12,"hd","upper","itfidels","nw","nw","h","h",1,0.456689466160242,NA,NA,NA
"experimental",34,13,"hd","upper","rasuals","nw","nw","h","h",1,0.813008599607201,NA,NA,NA
"experimental",34,14,"hd","upper","intersect","w","w","g","g",1,0.515130454905375,NA,NA,NA
"experimental",34,15,"hd","upper","lenie","nw","nw","h","h",1,0.492227753149564,NA,NA,NA
"experimental",34,16,"hd","upper","padicals","nw","nw","h","h",1,1.12702371688647,NA,NA,NA
"experimental",34,17,"hd","upper","hivinity","nw","nw","h","h",1,0.456375281535656,NA,NA,NA
"experimental",34,18,"hd","upper","manage","w","w","g","g",1,0.540453603227434,NA,NA,NA
"experimental",34,19,"hd","upper","threaded","w","w","g","g",1,0.709175712720025,NA,NA,NA
"experimental",34,20,"hd","upper","heuls","nw","nw","h","h",1,0.479309765931248,NA,NA,NA
"experimental",34,21,"hd","upper","miracle","w","w","g","g",1,0.426700560288737,NA,NA,NA
"experimental",34,22,"hd","upper","deserve","w","w","g","g",1,0.423988772867233,NA,NA,NA
"experimental",34,23,"hd","upper","chicken","target","target","q","g",0,0.461364824715929,1,1,NA
"experimental",34,24,"hd","upper","decantel","aftertar1","nw","h","h",1,0.481499457297105,NA,NA,NA
"experimental",34,25,"hd","upper","micron","aftertar2","w","g","g",1,0.540854196900909,NA,NA,NA
"experimental",34,26,"hd","upper","phraining","aftertar3","nw","h","h",1,0.620544528059327,NA,NA,NA
"experimental",34,27,"hd","upper","fomes","nw","nw","h","h",1,0.577991878959438,NA,NA,NA
"experimental",34,28,"hd","upper","fragment","nw","w","g","g",1,0.593427316005545,NA,NA,NA
"experimental",34,29,"hd","upper","remover","w","w","g","g",1,0.488106604350833,NA,NA,NA
"experimental",34,30,"hd","upper","fashing","w","nw","h","h",1,0.730857431446566,NA,NA,NA
"experimental",35,1,"hd","upper","slooping","nw","nw","h","h",1,0.644292118287922,NA,NA,NA
"experimental",35,2,"hd","upper","endgume","nw","nw","h","h",1,0.568957995024903,NA,NA,NA
"experimental",35,3,"hd","upper","deakers","nw","nw","h","h",1,0.511651580261969,NA,NA,NA
"experimental",35,4,"hd","upper","planar","w","w","g","h",0,0.385672484630049,NA,NA,NA
"experimental",35,5,"hd","upper","encounter","w","w","g","g",1,0.590968796486777,NA,NA,NA
"experimental",35,6,"hd","upper","decency","w","w","g","g",1,0.61368311989645,NA,NA,NA
"experimental",35,7,"hd","upper","prohibit","w","w","g","g",1,0.572657361723031,NA,NA,NA
"experimental",35,8,"hd","upper","dileting","nw","nw","h","h",1,0.516020037714043,NA,NA,NA
"experimental",35,9,"hd","upper","moyeur","nw","nw","h","h",1,0.510111115501786,NA,NA,NA
"experimental",35,10,"hd","upper","recollect","w","w","g","h",0,0.504137634801737,NA,NA,NA
"experimental",35,11,"hd","upper","sliding","w","w","g","g",1,0.553351726297478,NA,NA,NA
"experimental",35,12,"hd","upper","iflaid","nw","nw","h","h",1,0.521341312185541,NA,NA,NA
"experimental",35,13,"hd","upper","warmer","w","w","g","g",1,0.498747829016793,NA,NA,NA
"experimental",35,14,"hd","upper","infusion","w","w","g","g",1,0.461453882317073,NA,NA,NA
"experimental",35,15,"hd","upper","gerby","nw","nw","h","h",1,0.585538600265863,NA,NA,NA
"experimental",35,16,"hd","upper","wienegs","nw","nw","h","h",1,0.47961170099552,NA,NA,NA
"experimental",35,17,"hd","upper","elpousal","nw","nw","h","h",1,0.490974987478694,NA,NA,NA
"experimental",35,18,"hd","upper","inversion","w","w","g","h",0,0.661693775025924,NA,NA,NA
"experimental",35,19,"hd","upper","contain","w","w","g","g",1,0.465858095238218,NA,NA,NA
"experimental",35,20,"hd","upper","alticles","nw","nw","h","h",1,0.548985917397658,NA,NA,NA
"experimental",35,21,"hd","upper","cegalia","nw","nw","h","h",1,0.437656962785695,NA,NA,NA
"experimental",35,22,"hd","upper","peahem","nw","nw","h","h",1,0.442369401085671,NA,NA,NA
"experimental",35,23,"hd","upper","balign","nw","nw","h","h",1,0.415049574710793,NA,NA,NA
"experimental",35,24,"hd","upper","antique","w","w","g","g",1,0.493108728162042,NA,NA,NA
"experimental",35,25,"hd","upper","eaglot","nw","nw","h","h",1,0.487778845892535,NA,NA,NA
"experimental",35,26,"hd","upper","boulder","w","w","g","h",0,0.434535642825722,NA,NA,NA
"experimental",35,27,"hd","upper","chemical","w","w","g","g",1,0.463294957869948,NA,NA,NA
"experimental",35,28,"hd","upper","inducing","w","w","g","g",1,0.515310887592932,NA,NA,NA
"experimental",35,29,"hd","upper","tycoon","w","w","g","g",1,0.621454306086889,NA,NA,NA
"experimental",35,30,"hd","upper","arcients","nw","nw","h","g",0,0.417858034323217,NA,NA,NA
"experimental",36,1,"hd","upper","trake","nw","nw","h","h",1,0.607383867150929,NA,NA,NA
"experimental",36,2,"hd","upper","company","w","w","g","g",1,0.437267956531286,NA,NA,NA
"experimental",36,3,"hd","upper","ascending","w","w","g","g",1,0.49748215164982,NA,NA,NA
"experimental",36,4,"hd","upper","snife","nw","nw","h","h",1,0.45236868266511,NA,NA,NA
"experimental",36,5,"hd","upper","finish","w","w","g","g",1,0.430891895744935,NA,NA,NA
"experimental",36,6,"hd","upper","sazer","nw","nw","h","h",1,0.45222201903016,NA,NA,NA
"experimental",36,7,"hd","upper","smallash","nw","nw","h","h",1,0.608324103543055,NA,NA,NA
"experimental",36,8,"hd","upper","airmen","w","w","g","h",0,0.45438125203691,NA,NA,NA
"experimental",36,9,"hd","upper","enacted","w","w","g","g",1,0.538385745307096,NA,NA,NA
"experimental",36,10,"hd","upper","sopes","nw","nw","h","h",1,0.467308178122039,NA,NA,NA
"experimental",36,11,"hd","upper","pallir","nw","nw","h","h",1,0.390536221533694,NA,NA,NA
"experimental",36,12,"hd","upper","disease","w","w","g","g",1,0.533304495971606,NA,NA,NA
"experimental",36,13,"hd","upper","mandate","w","w","g","g",1,0.47066786787218,NA,NA,NA
"experimental",36,14,"hd","upper","daylight","w","w","g","g",1,0.490050311340383,NA,NA,NA
"experimental",36,15,"hd","upper","latpin","nw","nw","h","h",1,0.531925924024108,NA,NA,NA
"experimental",36,16,"hd","upper","swatches","w","w","g","g",1,0.37329778188905,NA,NA,NA
"experimental",36,17,"hd","upper","anterior","w","w","g","g",1,0.484655870586721,NA,NA,NA
"experimental",36,18,"hd","upper","trecious","nw","nw","h","h",1,0.902645572348774,NA,NA,NA
"experimental",36,19,"hd","upper","ulcer","w","w","g","g",1,0.624734870307293,NA,NA,NA
"experimental",36,20,"hd","upper","esdings","nw","nw","h","h",1,0.542151987972829,NA,NA,NA
"experimental",36,21,"hd","upper","forbid","w","w","g","g",1,0.526870829151449,NA,NA,NA
"experimental",36,22,"hd","upper","tuckel","nw","nw","h","h",1,0.512276969890081,NA,NA,NA
"experimental",36,23,"hd","upper","rearrange","w","w","g","g",1,0.570320344582797,NA,NA,NA
"experimental",36,24,"hd","upper","gigglod","nw","nw","h","h",1,0.913752942380597,NA,NA,NA
"experimental",36,25,"hd","upper","coyote","target","target","q","g",0,0.570925207921391,NA,NA,NA
"experimental",36,26,"hd","upper","greft","aftertar1","nw","h","h",1,0.690238226190559,NA,NA,NA
"experimental",36,27,"hd","upper","atsless","aftertar2","nw","h","h",1,0.597034645479653,NA,NA,NA
"experimental",36,28,"hd","upper","turntable","aftertar3","w","g","g",1,0.755724035409003,NA,NA,NA
"experimental",36,29,"hd","upper","vergas","w","nw","h","h",1,0.587677969122524,NA,NA,NA
"experimental",36,30,"hd","upper","theles","nw","nw","h","h",1,0.458410694678605,NA,NA,NA
"experimental",37,1,"hd","upper","persona","w","w","g","g",1,0.534595996730786,NA,NA,NA
"experimental",37,2,"hd","upper","companion","w","w","g","g",1,0.463289329694817,NA,NA,NA
"experimental",37,3,"hd","upper","summon","w","w","g","g",1,0.467306522778017,NA,NA,NA
"experimental",37,4,"hd","upper","blerapies","nw","nw","h","h",1,0.542688982137406,NA,NA,NA
"experimental",37,5,"hd","upper","misobeyed","nw","nw","h","g",0,0.621816495737221,NA,NA,NA
"experimental",37,6,"hd","upper","remade","w","w","g","g",1,0.380842847849635,NA,NA,NA
