"procedure","block","trial","PMdemand","context","stim","role","word_type","correct_key","response","correct","reaction_time","pressedQ","pressedQ_blank","pressedQ_fix"
"LDTpractice",1,1,NA,"upper","crinklo","","nw","h","h",1,4.09547151112929,NA,NA,NA
"LDTpractice",2,1,NA,"upper","sponsor","","w","g","g",1,1.10344961541705,NA,NA,NA
"LDTpractice",3,1,NA,"upper","lumbigo","","nw","h","h",1,0.720546953380108,NA,NA,NA
"LDTpractice",4,1,NA,"upper","reputable","","w","g","g",1,1.19417845422868,NA,NA,NA
"LDTpractice",5,1,NA,"upper","trotch","","nw","h","h",1,1.10589423007332,NA,NA,NA
"LDTpractice",6,1,NA,"upper","tricycle","","w","g","g",1,0.714489050093107,NA,NA,NA
"LDTpractice",7,1,NA,"upper","hasking","","nw","h","h",1,0.925251313718036,NA,NA,NA
"LDTpractice",8,1,NA,"upper","raestro","","nw","h","h",1,0.558674995787442,NA,NA,NA
"LDTpractice",9,1,NA,"upper","alolition","","nw","h","h",1,0.558802457409911,NA,NA,NA
"LDTpractice",10,1,NA,"upper","summary","","w","g","g",1,0.81564226327464,NA,NA,NA
"LDTpractice",11,1,NA,"upper","julled","","nw","h","h",1,0.667411678819917,NA,NA,NA
"LDTpractice",12,1,NA,"upper","picture","","w","g","g",1,0.568143242388032,NA,NA,NA
"LDTpractice",13,1,NA,"upper","overshoot","","w","g","g",1,0.678544541238807,NA,NA,NA
"LDTpractice",14,1,NA,"upper","umpire","","w","g","g",1,0.611091519123875,NA,NA,NA
"LDTpractice",1,2,NA,"lower","grutch","","nw","h","h",1,0.849380858358927,NA,NA,NA
"LDTpractice",2,2,NA,"lower","busted","","w","g","g",1,0.709834548877552,NA,NA,NA
"LDTpractice",3,2,NA,"lower","lurshing","","nw","h","h",1,0.751377106062137,NA,NA,NA
"LDTpractice",4,2,NA,"lower","revival","","w","g","g",1,0.76893635164015,NA,NA,NA
"LDTpractice",5,2,NA,"lower","latador","","nw","h","h",1,0.720090077957138,NA,NA,NA
"LDTpractice",6,2,NA,"lower","slumber","","w","g","g",1,0.793687412398867,NA,NA,NA
"LDTpractice",7,2,NA,"lower","turative","","nw","h","h",1,0.671512963599525,NA,NA,NA
"LDTpractice",8,2,NA,"lower","curlecs","","nw","h","h",1,0.7949630219955,NA,NA,NA
"LDTpractice",9,2,NA,"lower","grocus","","nw","h","h",1,0.593636229168624,NA,NA,NA
"LDTpractice",10,2,NA,"lower","unscrew","","w","g","h",0,0.823697837768123,NA,NA,NA
"LDTpractice",11,2,NA,"lower","treeps","","nw","h","h",1,0.621878083213232,NA,NA,NA
"LDTpractice",12,2,NA,"lower","grimace","","w","g","g",1,0.675320258713327,NA,NA,NA
"LDTpractice",13,2,NA,"lower","hiring","","w","g","g",1,0.613734775222838,NA,NA,NA
"LDTpractice",14,2,NA,"lower","infinity","","w","g","g",1,0.523394942749292,NA,NA,NA
"experimental",1,1,"ld","lower","realize","w","w","g","g",1,0.774498975486495,NA,NA,NA
"experimental",1,2,"ld","lower","holdup","w","w","g","g",1,0.656904868315905,NA,NA,NA
"experimental",1,3,"ld","lower","oldest","w","w","g","g",1,0.533562076394446,NA,NA,NA
"experimental",1,4,"ld","lower","usage","w","w","g","g",1,0.535635893465951,NA,NA,NA
"experimental",1,5,"ld","lower","vorm","nw","nw","h","h",1,0.673011051490903,NA,NA,NA
"experimental",1,6,"ld","lower","formation","w","w","g","g",1,0.621043788851239,NA,NA,NA
"experimental",1,7,"ld","lower","crundle","nw","nw","h","h",1,1.01814633794129,NA,NA,NA
"experimental",1,8,"ld","lower","joses","nw","nw","h","g",0,0.544195024296641,NA,NA,NA
"experimental",1,9,"ld","lower","comment","w","w","g","g",1,0.441597687429748,NA,NA,NA
"experimental",1,10,"ld","lower","hegacy","nw","nw","h","h",1,0.662726388312876,NA,NA,NA
"experimental",1,11,"ld","lower","mabit","nw","nw","h","h",1,1.10776046686806,NA,NA,NA
"experimental",1,12,"ld","lower","traze","nw","nw","h","h",1,0.518666613148525,NA,NA,NA
"experimental",1,13,"ld","lower","scack","nw","nw","h","h",1,0.68067166057881,NA,NA,NA
"experimental",1,14,"ld","lower","cabinet","w","w","g","g",1,0.700768882292323,NA,NA,NA
"experimental",1,15,"ld","lower","intrude","w","w","g","g",1,0.814531526295468,NA,NA,NA
"experimental",1,16,"ld","lower","dolphin","target","target","q","q",1,0.51720130094327,1,NA,NA
"experimental",1,17,"ld","lower","causality","aftertar1","w","g","g",1,1.5033109637443,NA,NA,NA
"experimental",1,18,"ld","lower","overwork","aftertar2","w","g","g",1,0.54605894361157,NA,NA,NA
"experimental",1,19,"ld","lower","actively","aftertar3","w","g","g",1,0.459450260386802,NA,NA,NA
"experimental",1,20,"ld","lower","tredits","w","nw","h","h",1,1.01623706205282,NA,NA,NA
"experimental",1,21,"ld","lower","undimmec","nw","nw","h","h",1,0.646927437279373,NA,NA,NA
"experimental",1,22,"ld","lower","squadroim","nw","nw","h","h",1,0.635754515533336,NA,NA,NA
"experimental",1,23,"ld","lower","smabled","nw","nw","h","h",1,0.505078541929834,NA,NA,NA
"experimental",1,24,"ld","lower","padicals","nw","nw","h","h",1,0.579834949458018,NA,NA,NA
"experimental",1,25,"ld","lower","ameld","nw","nw","h","h",1,0.483060125843622,NA,NA,NA
"experimental",1,26,"ld","lower","parlayid","nw","nw","h","h",1,0.534927405533381,NA,NA,NA
"experimental",1,27,"ld","lower","plymie","nw","nw","h","h",1,0.49635652510915,NA,NA,NA
"experimental",1,28,"ld","lower","retreat","nw","w","g","g",1,0.763760747620836,NA,NA,NA
"experimental",1,29,"ld","lower","explosion","w","w","g","g",1,2.35543329908978,NA,NA,NA
"experimental",1,30,"ld","lower","anemic","w","w","g","h",0,0.613321932032704,NA,NA,NA
"experimental",2,1,"hd","upper","sefine","nw","nw","h","h",1,0.667312358156778,NA,NA,NA
"experimental",2,2,"hd","upper","optional","w","w","g","g",1,0.567233795532957,NA,NA,NA
"experimental",2,3,"hd","upper","slears","nw","nw","h","h",1,0.583421090501361,NA,NA,NA
"experimental",2,4,"hd","upper","pregs","nw","nw","h","h",1,0.703443258884363,NA,NA,NA
"experimental",2,5,"hd","upper","season","w","w","g","g",1,0.594681083457544,NA,NA,NA
"experimental",2,6,"hd","upper","lasprey","nw","nw","h","h",1,0.634177302126773,NA,NA,NA
"experimental",2,7,"hd","upper","correct","w","w","g","g",1,0.503651633742265,NA,NA,NA
"experimental",2,8,"hd","upper","removable","w","w","g","g",1,0.561460611526854,NA,NA,NA
"experimental",2,9,"hd","upper","boulder","w","w","g","h",0,0.610082751372829,NA,NA,NA
"experimental",2,10,"hd","upper","cills","nw","nw","h","h",1,0.6088826257037,NA,NA,NA
"experimental",2,11,"hd","upper","gackpedal","nw","nw","h","h",1,0.52763229678385,NA,NA,NA
"experimental",2,12,"hd","upper","painter","w","w","g","h",0,0.457661493797786,NA,NA,NA
"experimental",2,13,"hd","upper","puggers","nw","nw","h","h",1,0.630551101639867,NA,NA,NA
"experimental",2,14,"hd","upper","turning","w","w","g","g",1,0.652469203807414,NA,NA,NA
"experimental",2,15,"hd","upper","digar","nw","nw","h","h",1,0.633273483370431,NA,NA,NA
"experimental",2,16,"hd","upper","fictional","w","w","g","g",1,0.607296804548241,NA,NA,NA
"experimental",2,17,"hd","upper","scrib","nw","nw","h","h",1,0.917204346857034,NA,NA,NA
"experimental",2,18,"hd","upper","orange","w","w","g","g",1,0.839170354651287,NA,NA,NA
"experimental",2,19,"hd","upper","surface","w","w","g","g",1,0.692494140006602,NA,NA,NA
"experimental",2,20,"hd","upper","sarlock","nw","nw","h","h",1,0.600000702543184,NA,NA,NA
"experimental",2,21,"hd","upper","refebs","nw","nw","h","h",1,0.879354203934781,NA,NA,NA
"experimental",2,22,"hd","upper","crocodile","target","target","q","q",1,0.811395970289595,1,NA,NA
"experimental",2,23,"hd","upper","triplet","aftertar1","w","g","g",1,1.64225505839568,NA,NA,NA
"experimental",2,24,"hd","upper","balign","aftertar2","nw","h","h",1,0.543671272927895,NA,NA,NA
"experimental",2,25,"hd","upper","attract","aftertar3","w","g","g",1,0.528938033501618,NA,NA,NA
"experimental",2,26,"hd","upper","dealer","w","w","g","g",1,0.946087812772021,NA,NA,NA
"experimental",2,27,"hd","upper","brongs","w","nw","h","h",1,0.739429813576862,NA,NA,NA
"experimental",2,28,"hd","upper","bengths","nw","nw","h","h",1,0.652778422343545,NA,NA,NA
"experimental",2,29,"hd","upper","topefuls","nw","nw","h","h",1,0.697506857919507,NA,NA,NA
"experimental",2,30,"hd","upper","probable","nw","w","g","g",1,0.548771062167361,NA,NA,NA
"experimental",3,1,"hd","upper","pocket","w","w","g","g",1,0.757554525276646,NA,NA,NA
"experimental",3,2,"hd","upper","gelfry","nw","nw","h","h",1,0.558352865511551,NA,NA,NA
"experimental",3,3,"hd","upper","educate","w","w","g","g",1,0.695113228051923,NA,NA,NA
"experimental",3,4,"hd","upper","attended","w","w","g","g",1,0.882457977160811,NA,NA,NA
"experimental",3,5,"hd","upper","clattest","nw","nw","h","h",1,0.654510245192796,NA,NA,NA
"experimental",3,6,"hd","upper","chrayed","nw","nw","h","h",1,0.619251711643301,NA,NA,NA
"experimental",3,7,"hd","upper","greft","nw","nw","h","h",1,0.489328589173965,NA,NA,NA
"experimental",3,8,"hd","upper","ciping","nw","nw","h","h",1,0.54068999516312,NA,NA,NA
"experimental",3,9,"hd","upper","dominion","w","w","g","g",1,0.966190662700683,NA,NA,NA
"experimental",3,10,"hd","upper","mounting","w","w","g","g",1,0.645965019240975,NA,NA,NA
"experimental",3,11,"hd","upper","arrested","w","w","g","g",1,0.491246141726151,NA,NA,NA
"experimental",3,12,"hd","upper","gund","nw","nw","h","h",1,0.622687547234818,NA,NA,NA
"experimental",3,13,"hd","upper","preserve","w","w","g","g",1,0.684696468291804,NA,NA,NA
"experimental",3,14,"hd","upper","contusiok","nw","nw","h","h",1,0.600043741520494,NA,NA,NA
"experimental",3,15,"hd","upper","swatches","w","w","g","g",1,0.575413852115162,NA,NA,NA
"experimental",3,16,"hd","upper","tiery","nw","nw","h","h",1,0.719429926131852,NA,NA,NA
"experimental",3,17,"hd","upper","amidst","w","w","g","g",1,1.09762478480116,NA,NA,NA
"experimental",3,18,"hd","upper","pammed","nw","nw","h","h",1,0.692988095106557,NA,NA,NA
"experimental",3,19,"hd","upper","resent","w","w","g","g",1,0.624348852201365,NA,NA,NA
"experimental",3,20,"hd","upper","trallion","nw","nw","h","h",1,0.973409625585191,NA,NA,NA
"experimental",3,21,"hd","upper","restock","w","w","g","g",1,0.733473879517987,NA,NA,NA
"experimental",3,22,"hd","upper","kettle","w","w","g","g",1,0.735111016430892,NA,NA,NA
"experimental",3,23,"hd","upper","churnad","nw","nw","h","h",1,0.648858894710429,NA,NA,NA
"experimental",3,24,"hd","upper","elbalm","nw","nw","h","h",1,0.646348066278733,NA,NA,NA
"experimental",3,25,"hd","upper","racile","nw","nw","h","h",1,0.659827877883799,NA,NA,NA
"experimental",3,26,"hd","upper","neuran","nw","nw","h","h",1,0.568561713793315,NA,NA,NA
"experimental",3,27,"hd","upper","confined","w","w","g","h",0,0.728596237720922,NA,NA,NA
"experimental",3,28,"hd","upper","cavern","w","w","g","g",1,0.69064611196518,NA,NA,NA
"experimental",3,29,"hd","upper","foster","w","w","g","g",1,0.621146089280955,NA,NA,NA
"experimental",3,30,"hd","upper","batire","nw","nw","h","h",1,0.683233804651536,NA,NA,NA
"experimental",4,1,"ld","lower","equitable","w","w","g","g",1,1.43964802124538,NA,NA,NA
"experimental",4,2,"ld","lower","rearrange","w","w","g","g",1,0.589043637970462,NA,NA,NA
"experimental",4,3,"ld","lower","oleandur","nw","nw","h","h",1,0.61947915609926,NA,NA,NA
"experimental",4,4,"ld","lower","smolvers","nw","nw","h","h",1,0.577491311007179,NA,NA,NA
"experimental",4,5,"ld","lower","owner","w","w","g","g",1,0.617531476193108,NA,NA,NA
"experimental",4,6,"ld","lower","paranoid","w","w","g","g",1,0.567745959502645,NA,NA,NA
"experimental",4,7,"ld","lower","ounside","nw","nw","h","h",1,1.11168131884187,NA,NA,NA
"experimental",4,8,"ld","lower","splinging","nw","nw","h","h",1,0.794380671344697,NA,NA,NA
"experimental",4,9,"ld","lower","divider","w","w","g","g",1,0.889921931317076,NA,NA,NA
"experimental",4,10,"ld","lower","expensive","w","w","g","g",1,0.621275537298061,NA,NA,NA
"experimental",4,11,"ld","lower","elpousal","nw","nw","h","h",1,0.899410704150796,NA,NA,NA
"experimental",4,12,"ld","lower","regards","w","w","g","g",1,0.709198565105908,NA,NA,NA
"experimental",4,13,"ld","lower","rantho","nw","nw","h","h",1,0.75244811468292,NA,NA,NA
"experimental",4,14,"ld","lower","rewrite","w","w","g","g",1,0.721286561805755,NA,NA,NA
"experimental",4,15,"ld","lower","define","w","w","g","g",1,0.587205542018637,NA,NA,NA
"experimental",4,16,"ld","lower","twenties","w","w","g","g",1,1.09899110719562,NA,NA,NA
"experimental",4,17,"ld","lower","nogwhell","nw","nw","h","h",1,0.694036591099575,NA,NA,NA
"experimental",4,18,"ld","lower","dumult","nw","nw","h","h",1,0.809332747361623,NA,NA,NA
"experimental",4,19,"ld","lower","larger","w","w","g","g",1,0.632053162553348,NA,NA,NA
"experimental",4,20,"ld","lower","hindsight","w","w","g","g",1,0.838150661671534,NA,NA,NA
"experimental",4,21,"ld","lower","fudden","nw","nw","h","h",1,0.722719760262407,NA,NA,NA
"experimental",4,22,"ld","lower","chemical","w","w","g","g",1,0.580700695281848,NA,NA,NA
"experimental",4,23,"ld","lower","duplex","w","w","g","h",0,1.62086302507669,NA,NA,NA
"experimental",4,24,"ld","lower","chrik","nw","nw","h","h",1,0.54688827181235,NA,NA,NA
"experimental",4,25,"ld","lower","lightels","nw","nw","h","h",1,0.628333269502036,NA,NA,NA
"experimental",4,26,"ld","lower","theles","nw","nw","h","h",1,0.626432270393707,NA,NA,NA
"experimental",4,27,"ld","lower","appain","nw","nw","h","h",1,0.536479788715951,NA,NA,NA
"experimental",4,28,"ld","lower","ragtam","nw","nw","h","h",1,0.641865389887244,NA,NA,NA
"experimental",4,29,"ld","lower","elalt","nw","nw","h","h",1,0.98233789857477,NA,NA,NA
"experimental",4,30,"ld","lower","enabled","w","w","g","g",1,1.83838770713191,NA,NA,NA
"experimental",5,1,"ld","lower","prama","nw","nw","h","h",1,0.724113230360672,NA,NA,NA
"experimental",5,2,"ld","lower","mosary","nw","nw","h","h",1,0.582156075281091,NA,NA,NA
"experimental",5,3,"ld","lower","maunches","nw","nw","h","h",1,0.526240813080221,NA,NA,NA
"experimental",5,4,"ld","lower","unstatle","nw","nw","h","h",1,0.767336625605822,NA,NA,NA
"experimental",5,5,"ld","lower","doxing","nw","nw","h","h",1,0.527296261512674,NA,NA,NA
"experimental",5,6,"ld","lower","enunciate","w","w","g","h",0,0.633381742984056,NA,NA,NA
"experimental",5,7,"ld","lower","describe","w","w","g","g",1,0.503402669797651,NA,NA,NA
"experimental",5,8,"ld","lower","nopping","nw","nw","h","h",1,0.674150260398164,NA,NA,NA
"experimental",5,9,"ld","lower","ireology","nw","nw","h","h",1,0.549673556583002,NA,NA,NA
"experimental",5,10,"ld","lower","amaze","w","w","g","g",1,0.455594960018061,NA,NA,NA
"experimental",5,11,"ld","lower","function","w","w","g","g",1,0.444325035088696,NA,NA,NA
"experimental",5,12,"ld","lower","omission","w","w","g","g",1,0.569773095892742,NA,NA,NA
"experimental",5,13,"ld","lower","vented","w","w","g","g",1,0.537808700348251,NA,NA,NA
"experimental",5,14,"ld","lower","athcan","nw","nw","h","h",1,0.682259137043729,NA,NA,NA
"experimental",5,15,"ld","lower","baults","nw","nw","h","h",1,0.726381385116838,NA,NA,NA
"experimental",5,16,"ld","lower","zears","nw","nw","h","h",1,0.872439824743196,NA,NA,NA
"experimental",5,17,"ld","lower","paying","w","w","g","g",1,0.66848037019372,NA,NA,NA
"experimental",5,18,"ld","lower","vivid","w","w","g","g",1,0.552559486357495,NA,NA,NA
"experimental",5,19,"ld","lower","army","w","w","g","g",1,0.465289989137091,NA,NA,NA
"experimental",5,20,"ld","lower","reason","w","w","g","g",1,0.43804697075393,NA,NA,NA
"experimental",5,21,"ld","lower","upstairs","w","w","g","g",1,0.523444934166037,NA,NA,NA
"experimental",5,22,"ld","lower","portify","nw","nw","h","h",1,1.01262542873155,NA,NA,NA
"experimental",5,23,"ld","lower","sprea","nw","nw","h","h",1,0.715320695773698,NA,NA,NA
"experimental",5,24,"ld","lower","mustled","nw","nw","h","h",1,0.590040818206035,NA,NA,NA
"experimental",5,25,"ld","lower","grummer","nw","nw","h","h",1,0.653487903531641,NA,NA,NA
"experimental",5,26,"ld","lower","landing","w","w","g","g",1,0.642159048351459,NA,NA,NA
"experimental",5,27,"ld","lower","rapport","w","w","g","h",0,0.815582339768298,NA,NA,NA
"experimental",5,28,"ld","lower","oalis","nw","nw","h","h",1,0.646327540045604,NA,NA,NA
"experimental",5,29,"ld","lower","baseline","w","w","g","g",1,0.715813657734543,NA,NA,NA
"experimental",5,30,"ld","lower","obtuse","w","w","g","g",1,0.870465990388766,NA,NA,NA
"experimental",6,1,"ld","lower","fabstand","nw","nw","h","h",1,0.657538865692914,NA,NA,NA
"experimental",6,2,"ld","lower","bamboo","w","w","g","g",1,0.550581679330207,NA,NA,NA
"experimental",6,3,"ld","lower","minister","w","w","g","h",0,0.622263447730802,NA,NA,NA
"experimental",6,4,"ld","lower","uncounted","w","w","g","g",1,0.637137722456828,NA,NA,NA
"experimental",6,5,"ld","lower","kiner","nw","nw","h","h",1,0.586703310022131,NA,NA,NA
"experimental",6,6,"ld","lower","gelented","nw","nw","h","h",1,0.578082931460813,NA,NA,NA
"experimental",6,7,"ld","lower","demon","w","w","g","g",1,0.577223807107657,NA,NA,NA
"experimental",6,8,"ld","lower","rillains","nw","nw","h","h",1,0.59314392937813,NA,NA,NA
"experimental",6,9,"ld","lower","pripend","nw","nw","h","h",1,0.624646814540029,NA,NA,NA
"experimental",6,10,"ld","lower","located","w","w","g","g",1,0.622711384203285,NA,NA,NA
"experimental",6,11,"ld","lower","nores","nw","nw","h","h",1,0.860831878148019,NA,NA,NA
"experimental",6,12,"ld","lower","maximized","w","w","g","g",1,0.657571972697042,NA,NA,NA
"experimental",6,13,"ld","lower","beggarlan","nw","nw","h","h",1,0.926290870760568,NA,NA,NA
"experimental",6,14,"ld","lower","bropic","nw","nw","h","h",1,0.712378153111786,NA,NA,NA
"experimental",6,15,"ld","lower","endgume","nw","nw","h","h",1,0.635140713420697,NA,NA,NA
"experimental",6,16,"ld","lower","hackal","nw","nw","h","h",1,0.759588614222594,NA,NA,NA
"experimental",6,17,"ld","lower","admire","w","w","g","g",1,0.616366775007918,NA,NA,NA
"experimental",6,18,"ld","lower","brials","nw","nw","h","g",0,0.983055325341411,NA,NA,NA
"experimental",6,19,"ld","lower","entitle","w","w","g","g",1,0.511065927450545,NA,NA,NA
"experimental",6,20,"ld","lower","noblin","nw","nw","h","h",1,0.889824265963398,NA,NA,NA
"experimental",6,21,"ld","lower","priant","nw","nw","h","h",1,0.661212740116753,NA,NA,NA
"experimental",6,22,"ld","lower","visible","w","w","g","g",1,0.78595429926645,NA,NA,NA
"experimental",6,23,"ld","lower","deserve","w","w","g","g",1,0.665327929658815,NA,NA,NA
"experimental",6,24,"ld","lower","forfeit","w","w","g","g",1,0.510079010389745,NA,NA,NA
"experimental",6,25,"ld","lower","shimble","nw","nw","h","h",1,0.639812099165283,NA,NA,NA
"experimental",6,26,"ld","lower","edasion","nw","nw","h","h",1,1.13327795278747,NA,NA,NA
"experimental",6,27,"ld","lower","result","w","w","g","g",1,0.71931272756774,NA,NA,NA
"experimental",6,28,"ld","lower","pepperoni","w","w","g","g",1,0.705331015167758,NA,NA,NA
"experimental",6,29,"ld","lower","inversion","w","w","g","g",1,0.964016531594098,NA,NA,NA
"experimental",6,30,"ld","lower","sullen","w","w","g","g",1,0.596730401506647,NA,NA,NA
"experimental",7,1,"ld","lower","rander","nw","nw","h","h",1,1.19572057435289,NA,NA,NA
"experimental",7,2,"ld","lower","brank","nw","nw","h","h",1,0.795067970873788,NA,NA,NA
"experimental",7,3,"ld","lower","lindo","nw","nw","h","h",1,0.578444790095091,NA,NA,NA
"experimental",7,4,"ld","lower","fatho","nw","nw","h","h",1,0.5544965720037,NA,NA,NA
"experimental",7,5,"ld","lower","peags","nw","nw","h","h",1,0.579272131901234,NA,NA,NA
"experimental",7,6,"ld","lower","except","w","w","g","g",1,0.627307286136784,NA,NA,NA
"experimental",7,7,"ld","lower","fuintets","nw","nw","h","h",1,0.881379685131833,NA,NA,NA
"experimental",7,8,"ld","lower","standard","w","w","g","g",1,2.26054292102344,NA,NA,NA
"experimental",7,9,"ld","lower","galashes","nw","nw","h","h",1,0.7932984061772,NA,NA,NA
"experimental",7,10,"ld","lower","gounts","nw","nw","h","h",1,0.67237109481357,NA,NA,NA
"experimental",7,11,"ld","lower","butcher","w","w","g","g",1,0.780787634081207,NA,NA,NA
"experimental",7,12,"ld","lower","implode","w","w","g","g",1,0.652962827822194,NA,NA,NA
"experimental",7,13,"ld","lower","miteous","nw","nw","h","h",1,0.937655481509864,NA,NA,NA
"experimental",7,14,"ld","lower","marvel","w","w","g","g",1,0.603072362253442,NA,NA,NA
"experimental",7,15,"ld","lower","rawhide","w","w","g","h",0,0.657747439225204,NA,NA,NA
"experimental",7,16,"ld","lower","hemoter","nw","nw","h","h",1,0.726580026559532,NA,NA,NA
"experimental",7,17,"ld","lower","thaken","nw","nw","h","h",1,0.663542804773897,NA,NA,NA
"experimental",7,18,"ld","lower","helpful","w","w","g","g",1,0.580271629616618,NA,NA,NA
"experimental",7,19,"ld","lower","snorls","nw","nw","h","h",1,1.49246149649844,NA,NA,NA
"experimental",7,20,"ld","lower","inside","w","w","g","g",1,0.647745178081095,NA,NA,NA
"experimental",7,21,"ld","lower","grolific","nw","nw","h","h",1,1.31719514308497,NA,NA,NA
"experimental",7,22,"ld","lower","afternoon","w","w","g","g",1,0.503214953583665,NA,NA,NA
"experimental",7,23,"ld","lower","lavilion","nw","nw","h","h",1,1.02603273617569,NA,NA,NA
"experimental",7,24,"ld","lower","tucker","w","w","g","g",1,2.67114315927029,NA,NA,NA
"experimental",7,25,"ld","lower","cervical","w","w","g","h",0,0.699216167908162,NA,NA,NA
"experimental",7,26,"ld","lower","staircase","w","w","g","g",1,0.590615223161876,NA,NA,NA
"experimental",7,27,"ld","lower","moisture","w","w","g","g",1,0.63004721456673,NA,NA,NA
"experimental",7,28,"ld","lower","tinker","w","w","g","g",1,0.516188560519367,NA,NA,NA
"experimental",7,29,"ld","lower","require","w","w","g","g",1,0.398815276334062,NA,NA,NA
"experimental",7,30,"ld","lower","chonemic","nw","nw","h","h",1,0.566322030965239,NA,NA,NA
"experimental",8,1,"hd","upper","irfirm","nw","nw","h","h",1,0.774296361254528,NA,NA,NA
"experimental",8,2,"hd","upper","figure","w","w","g","g",1,0.526362315402366,NA,NA,NA
"experimental",8,3,"hd","upper","slogan","w","w","g","g",1,0.656424487009645,NA,NA,NA
"experimental",8,4,"hd","upper","planofoad","nw","nw","h","h",1,0.709230678738095,NA,NA,NA
"experimental",8,5,"hd","upper","flacked","nw","nw","h","g",0,0.559320911648683,NA,NA,NA
"experimental",8,6,"hd","upper","catacomb","w","w","g","g",1,0.68733575148508,NA,NA,NA
"experimental",8,7,"hd","upper","adok","nw","nw","h","h",1,0.586693378048949,NA,NA,NA
"experimental",8,8,"hd","upper","noblest","w","w","g","g",1,0.648524183779955,NA,NA,NA
"experimental",8,9,"hd","upper","senior","w","w","g","g",1,0.757198294973932,NA,NA,NA
"experimental",8,10,"hd","upper","ezulated","nw","nw","h","h",1,0.925243368023075,NA,NA,NA
"experimental",8,11,"hd","upper","squirrel","target","target","q","g",0,0.710620507015847,NA,NA,NA
"experimental",8,12,"hd","upper","lovud","aftertar1","nw","h","h",1,3.77685022866353,NA,NA,NA
"experimental",8,13,"hd","upper","gradielts","aftertar2","nw","h","h",1,0.608172482461669,NA,NA,NA
"experimental",8,14,"hd","upper","cookbook","aftertar3","w","g","g",1,0.686923901434056,NA,NA,NA
"experimental",8,15,"hd","upper","reprint","w","w","g","g",1,0.730315810884349,NA,NA,NA
"experimental",8,16,"hd","upper","fuestion","w","nw","h","h",1,0.818770535639487,NA,NA,NA
"experimental",8,17,"hd","upper","tragedy","nw","w","g","g",1,1.20077997318003,NA,NA,NA
"experimental",8,18,"hd","upper","rootsie","w","nw","h","h",1,0.671604338567704,NA,NA,NA
"experimental",8,19,"hd","upper","prominent","nw","w","g","g",1,1.96308357873932,NA,NA,NA
"experimental",8,20,"hd","upper","gures","w","nw","h","h",1,0.611152766854502,NA,NA,NA
"experimental",8,21,"hd","upper","etber","nw","nw","h","h",1,0.545201143366285,NA,NA,NA
"experimental",8,22,"hd","upper","expired","nw","w","g","g",1,0.521926982095465,NA,NA,NA
"experimental",8,23,"hd","upper","loneliest","w","w","g","g",1,0.563350685406476,NA,NA,NA
"experimental",8,24,"hd","upper","glocked","w","nw","h","h",1,0.754347458365373,NA,NA,NA
"experimental",8,25,"hd","upper","twarfs","nw","nw","h","h",1,1.05922473606188,NA,NA,NA
"experimental",8,26,"hd","upper","nostril","nw","w","g","g",1,1.33526026248001,NA,NA,NA
"experimental",8,27,"hd","upper","vinegar","w","w","g","g",1,0.600623112521134,NA,NA,NA
"experimental",8,28,"hd","upper","provide","w","w","g","g",1,13.3269957832526,NA,NA,NA
"experimental",8,29,"hd","upper","frogmy","w","nw","h","h",1,0.752300126827322,NA,NA,NA
"experimental",8,30,"hd","upper","poyride","nw","nw","h","h",1,1.2251145489281,NA,NA,NA
"experimental",9,1,"hd","upper","childhood","w","w","g","g",1,0.558470394928008,NA,NA,NA
"experimental",9,2,"hd","upper","uncle","w","w","g","g",1,0.494544583722018,NA,NA,NA
"experimental",9,3,"hd","upper","expounded","w","w","g","g",1,1.08929276745766,NA,NA,NA
"experimental",9,4,"hd","upper","intercede","w","w","g","g",1,0.612109225708991,NA,NA,NA
"experimental",9,5,"hd","upper","brighten","w","w","g","g",1,0.450107157812454,NA,NA,NA
"experimental",9,6,"hd","upper","numbled","nw","nw","h","h",1,0.822799978312105,NA,NA,NA
"experimental",9,7,"hd","upper","remain","w","w","g","g",1,0.676188322016969,NA,NA,NA
"experimental",9,8,"hd","upper","purport","w","w","g","h",0,1.27867226768285,NA,NA,NA
"experimental",9,9,"hd","upper","mineluyer","nw","nw","h","h",1,0.586014355183579,NA,NA,NA
"experimental",9,10,"hd","upper","deeper","w","w","g","g",1,0.617389116552658,NA,NA,NA
"experimental",9,11,"hd","upper","tapling","nw","nw","h","h",1,0.76759916334413,NA,NA,NA
"experimental",9,12,"hd","upper","flicking","w","w","g","g",1,0.687578425277025,NA,NA,NA
"experimental",9,13,"hd","upper","sength","nw","nw","h","h",1,0.954319516196847,NA,NA,NA
"experimental",9,14,"hd","upper","unburnid","nw","nw","h","h",1,0.922343864338472,NA,NA,NA
"experimental",9,15,"hd","upper","clume","nw","nw","h","h",1,3.89893363357987,NA,NA,NA
"experimental",9,16,"hd","upper","gremieres","nw","nw","h","h",1,0.941693531931378,NA,NA,NA
"experimental",9,17,"hd","upper","pircus","nw","nw","h","h",1,14.7580858912552,NA,NA,NA
"experimental",9,18,"hd","upper","ebince","nw","nw","h","h",1,0.758106086519547,NA,NA,NA
"experimental",9,19,"hd","upper","resume","w","w","g","g",1,0.574084940482862,NA,NA,NA
"experimental",9,20,"hd","upper","egcused","nw","nw","h","h",1,0.589450521976687,NA,NA,NA
"experimental",9,21,"hd","upper","flooted","nw","nw","h","h",1,0.668245642096736,NA,NA,NA
"experimental",9,22,"hd","upper","spider","target","target","q","g",0,0.576269003562629,NA,NA,NA
"experimental",9,23,"hd","upper","olgies","aftertar1","nw","h","q",0,0.199723200406879,NA,NA,1
"experimental",9,24,"hd","upper","selongs","aftertar2","nw","h","h",1,1.19044829811901,NA,NA,NA
"experimental",9,25,"hd","upper","spigat","aftertar3","nw","h","h",1,0.740238946629688,NA,NA,NA
"experimental",9,26,"hd","upper","befriend","nw","w","g","h",0,0.580919531988911,NA,NA,NA
"experimental",9,27,"hd","upper","thrapping","w","nw","h","h",1,0.716372833470814,NA,NA,NA
"experimental",9,28,"hd","upper","mixture","nw","w","g","g",1,0.742364079342224,NA,NA,NA
"experimental",9,29,"hd","upper","agony","w","w","g","g",1,0.535033678635955,NA,NA,NA
"experimental",9,30,"hd","upper","gaining","w","w","g","h",0,0.776463208836503,NA,NA,NA
"experimental",10,1,"hd","upper","shivering","w","w","g","g",1,1.07188879325986,NA,NA,NA
"experimental",10,2,"hd","upper","exclusion","w","w","g","g",1,0.571229799999855,NA,NA,NA
"experimental",10,3,"hd","upper","scrooner","nw","nw","h","h",1,0.794482309487648,NA,NA,NA
"experimental",10,4,"hd","upper","ascending","w","w","g","g",1,0.953378286678344,NA,NA,NA
"experimental",10,5,"hd","upper","profats","nw","nw","h","h",1,0.841456387192011,NA,NA,NA
"experimental",10,6,"hd","upper","diatonic","w","w","g","h",0,6.64541047846433,NA,NA,NA
"experimental",10,7,"hd","upper","bloodless","w","w","g","h",0,18.1855100706453,NA,NA,NA
"experimental",10,8,"hd","upper","hinsome","nw","nw","h","h",1,1.30544980277773,NA,NA,NA
"experimental",10,9,"hd","upper","calcify","w","w","g","g",1,0.731499714078382,NA,NA,NA
"experimental",10,10,"hd","upper","harfing","nw","nw","h","h",1,0.660930007114075,NA,NA,NA
"experimental",10,11,"hd","upper","snays","nw","nw","h","h",1,0.593006535666063,NA,NA,NA
"experimental",10,12,"hd","upper","slooch","nw","nw","h","h",1,0.519685312756337,NA,NA,NA
"experimental",10,13,"hd","upper","carbled","nw","nw","h","h",1,0.480154331889935,NA,NA,NA
"experimental",10,14,"hd","upper","catgup","nw","nw","h","h",1,0.499582462827675,NA,NA,NA
"experimental",10,15,"hd","upper","trecious","nw","nw","h","h",1,0.486235079006292,NA,NA,NA
"experimental",10,16,"hd","upper","dredigest","nw","nw","h","h",1,1.71299592824653,NA,NA,NA
"experimental",10,17,"hd","upper","fallacy","w","w","g","g",1,0.691020551137626,NA,NA,NA
"experimental",10,18,"hd","upper","tablet","w","w","g","g",1,0.493684465880506,NA,NA,NA
"experimental",10,19,"hd","upper","presently","w","w","g","g",1,0.616431664559059,NA,NA,NA
"experimental",10,20,"hd","upper","graveyard","w","w","g","g",1,0.742499817744829,NA,NA,NA
"experimental",10,21,"hd","upper","esdings","nw","nw","h","h",1,0.614385326160118,NA,NA,NA
"experimental",10,22,"hd","upper","audience","w","w","g","g",1,0.708253031596541,NA,NA,NA
"experimental",10,23,"hd","upper","butled","nw","nw","h","h",1,12.4628907309379,NA,NA,NA
"experimental",10,24,"hd","upper","porcupine","target","target","q","g",0,0.657920257304795,1,1,NA
"experimental",10,25,"hd","upper","digest","aftertar1","w","g","g",1,1.05401900480501,NA,NA,NA
"experimental",10,26,"hd","upper","riosk","aftertar2","nw","h","h",1,0.890126532060094,NA,NA,NA
"experimental",10,27,"hd","upper","draze","aftertar3","nw","h","h",1,1.35698833083734,NA,NA,NA
"experimental",10,28,"hd","upper","loached","nw","nw","h","h",1,0.508939801482484,NA,NA,NA
"experimental",10,29,"hd","upper","anterior","nw","w","g","g",1,1.19077870517503,NA,NA,NA
"experimental",10,30,"hd","upper","actual","w","w","g","g",1,0.613504020031542,NA,NA,NA
"experimental",11,1,"ld","lower","frader","nw","nw","h","h",1,0.643489615176804,NA,NA,NA
"experimental",11,2,"ld","lower","usually","w","w","g","g",1,0.616292284452356,NA,NA,NA
"experimental",11,3,"ld","lower","border","w","w","g","g",1,0.502976583782583,NA,NA,NA
"experimental",11,4,"ld","lower","whirlpool","w","w","g","g",1,0.656893611885607,NA,NA,NA
"experimental",11,5,"ld","lower","bellicove","nw","nw","h","h",1,1.22892945876811,NA,NA,NA
"experimental",11,6,"ld","lower","blocking","w","w","g","g",1,0.857002732343972,NA,NA,NA
"experimental",11,7,"ld","lower","saturate","w","w","g","g",1,5.55827274674084,NA,NA,NA
"experimental",11,8,"ld","lower","grefab","nw","nw","h","h",1,0.97437998931855,NA,NA,NA
"experimental",11,9,"ld","lower","horks","nw","nw","h","h",1,7.32479119370691,NA,NA,NA
"experimental",11,10,"ld","lower","dislokes","nw","nw","h","h",1,1.01410365256015,NA,NA,NA
"experimental",11,11,"ld","lower","gigglod","nw","nw","h","h",1,8.59645296551753,NA,NA,NA
"experimental",11,12,"ld","lower","static","w","w","g","g",1,1.79491700336803,NA,NA,NA
"experimental",11,13,"ld","lower","nelvet","nw","nw","h","h",1,0.976620665285736,NA,NA,NA
"experimental",11,14,"ld","lower","suddenly","w","w","g","g",1,0.512011792045087,NA,NA,NA
"experimental",11,15,"ld","lower","asthmatic","w","w","g","h",0,0.633938601240516,NA,NA,NA
"experimental",11,16,"ld","lower","huzzles","nw","nw","h","h",1,0.743210954358801,NA,NA,NA
"experimental",11,17,"ld","lower","ulcer","w","w","g","h",0,0.647729286691174,NA,NA,NA
"experimental",11,18,"ld","lower","classify","w","w","g","g",1,0.637425090419129,NA,NA,NA
"experimental",11,19,"ld","lower","fullity","nw","nw","h","h",1,11.7927998160012,NA,NA,NA
"experimental",11,20,"ld","lower","primal","w","w","g","g",1,0.615437794942409,NA,NA,NA
"experimental",11,21,"ld","lower","brimitar","nw","nw","h","h",1,0.58139693364501,NA,NA,NA
"experimental",11,22,"ld","lower","sefraud","nw","nw","h","h",1,0.500794507097453,NA,NA,NA
"experimental",11,23,"ld","lower","mitro","nw","nw","h","h",1,0.479573967750184,NA,NA,NA
"experimental",11,24,"ld","lower","dontrite","nw","nw","h","h",1,0.754989070352167,NA,NA,NA
"experimental",11,25,"ld","lower","destroy","w","w","g","g",1,8.48241950699594,NA,NA,NA
"experimental",11,26,"ld","lower","couple","w","w","g","g",1,0.645757438847795,NA,NA,NA
"experimental",11,27,"ld","lower","innocent","w","w","g","g",1,13.2981023851316,NA,NA,NA
"experimental",11,28,"ld","lower","beartiset","nw","nw","h","h",1,0.795882069971412,NA,NA,NA
"experimental",11,29,"ld","lower","coyote","target","target","q","g",0,0.779421311686747,1,1,NA
"experimental",11,30,"ld","lower","marinate","aftertar1","w","g","g",1,0.834147373447195,NA,NA,NA
"experimental",12,1,"hd","upper","hivinity","nw","nw","h","h",1,0.73560927552171,NA,NA,NA
"experimental",12,2,"hd","upper","apop","nw","nw","h","h",1,18.3688363025431,NA,NA,NA
"experimental",12,3,"hd","upper","buzzer","w","w","g","g",1,0.568820940912701,NA,NA,NA
"experimental",12,4,"hd","upper","binder","w","w","g","g",1,0.544905498623848,NA,NA,NA
"experimental",12,5,"hd","upper","absent","w","w","g","g",1,0.504491556202993,NA,NA,NA
"experimental",12,6,"hd","upper","duries","nw","nw","h","h",1,0.722951839794405,NA,NA,NA
"experimental",12,7,"hd","upper","violate","w","w","g","g",1,0.65209112293087,NA,NA,NA
"experimental",12,8,"hd","upper","brother","w","w","g","g",1,0.520815251860768,NA,NA,NA
"experimental",12,9,"hd","upper","gensions","nw","nw","h","g",0,0.554139679530635,NA,NA,NA
"experimental",12,10,"hd","upper","urgency","w","w","g","g",1,17.4259884391213,NA,NA,NA
"experimental",12,11,"hd","upper","currowing","nw","nw","h","h",1,0.807404269580729,NA,NA,NA
"experimental",12,12,"hd","upper","aefated","nw","nw","h","h",1,0.549514974467456,NA,NA,NA
"experimental",12,13,"hd","upper","other","w","w","g","g",1,0.605199481360614,NA,NA,NA
"experimental",12,14,"hd","upper","slutches","nw","nw","h","h",1,0.843259058659896,NA,NA,NA
"experimental",12,15,"hd","upper","elephant","target","target","q","q",1,0.544043725705706,1,NA,NA
"experimental",12,16,"hd","upper","undue","aftertar1","w","g","g",1,0.752800041227601,NA,NA,NA
"experimental",12,17,"hd","upper","pleamed","aftertar2","nw","h","h",1,0.896828033728525,NA,NA,NA
"experimental",12,18,"hd","upper","unsmilung","aftertar3","nw","h","h",1,7.2269112613285,NA,NA,NA
"experimental",12,19,"hd","upper","otiates","nw","nw","h","h",1,0.84810524887871,NA,NA,NA
"experimental",12,20,"hd","upper","oginous","nw","nw","h","h",1,0.540772431297228,NA,NA,NA
"experimental",12,21,"hd","upper","target","nw","w","g","g",1,0.541495155310258,NA,NA,NA
"experimental",12,22,"hd","upper","ofsters","w","nw","h","h",1,1.05426333379,NA,NA,NA
"experimental",12,23,"hd","upper","minimum","nw","w","g","g",1,0.650214291759767,NA,NA,NA
"experimental",12,24,"hd","upper","preclude","w","w","g","g",1,0.774654909153469,NA,NA,NA
"experimental",12,25,"hd","upper","exploit","w","w","g","g",1,6.59707669971976,NA,NA,NA
"experimental",12,26,"hd","upper","brouhuha","w","nw","h","h",1,1.7885260443436,NA,NA,NA
"experimental",12,27,"hd","upper","handcuff","nw","w","g","g",1,0.547234570141882,NA,NA,NA
"experimental",12,28,"hd","upper","moral","w","w","g","h",0,0.507971093058586,NA,NA,NA
"experimental",12,29,"hd","upper","outflow","w","w","g","g",1,0.702030586777255,NA,NA,NA
"experimental",12,30,"hd","upper","chyme","w","nw","h","h",1,0.688570308382623,NA,NA,NA
"experimental",13,1,"hd","upper","roaned","nw","nw","h","h",1,3.49139379849657,NA,NA,NA
"experimental",13,2,"hd","upper","planar","w","w","g","h",0,1.20618765673134,NA,NA,NA
"experimental",13,3,"hd","upper","scarlet","w","w","g","g",1,1.34820440411568,NA,NA,NA
"experimental",13,4,"hd","upper","erithets","nw","nw","h","h",1,0.861088456818834,NA,NA,NA
"experimental",13,5,"hd","upper","rationale","w","w","g","g",1,0.736062509240583,NA,NA,NA
"experimental",13,6,"hd","upper","hecture","nw","nw","h","h",1,2.10478382406291,NA,NA,NA
"experimental",13,7,"hd","upper","runabouk","nw","nw","h","h",1,0.938834087690338,NA,NA,NA
"experimental",13,8,"hd","upper","efcorted","nw","nw","h","h",1,0.723523927270435,NA,NA,NA
"experimental",13,9,"hd","upper","sazer","nw","nw","h","h",1,0.629002029192634,NA,NA,NA
"experimental",13,10,"hd","upper","erony","nw","nw","h","h",1,0.466320276376791,NA,NA,NA
"experimental",13,11,"hd","upper","splatter","w","w","g","g",1,0.790408503613435,NA,NA,NA
"experimental",13,12,"hd","upper","student","w","w","g","g",1,0.717272348469123,NA,NA,NA
"experimental",13,13,"hd","upper","addma","nw","nw","h","h",1,0.550477061420679,NA,NA,NA
"experimental",13,14,"hd","upper","publish","w","w","g","g",1,0.43107465445064,NA,NA,NA
"experimental",13,15,"hd","upper","menarthe","nw","nw","h","h",1,0.532406313926913,NA,NA,NA
"experimental",13,16,"hd","upper","purpose","w","w","g","g",1,0.453736668918282,NA,NA,NA
"experimental",13,17,"hd","upper","peahem","nw","nw","h","h",1,0.601777550647967,NA,NA,NA
"experimental",13,18,"hd","upper","ilcurring","nw","nw","h","g",0,0.575896219816059,NA,NA,NA
"experimental",13,19,"hd","upper","summon","w","w","g","g",1,0.575301950681023,NA,NA,NA
"experimental",13,20,"hd","upper","standard","w","w","g","g",1,0.550675040693022,NA,NA,NA
"experimental",13,21,"hd","upper","fonducts","nw","nw","h","h",1,0.926783170551062,NA,NA,NA
"experimental",13,22,"hd","upper","surround","w","w","g","g",1,0.647217122837901,NA,NA,NA
"experimental",13,23,"hd","upper","disuse","w","w","g","g",1,1.40395975997671,NA,NA,NA
"experimental",13,24,"hd","upper","integral","w","w","g","g",1,0.625637373421341,NA,NA,NA
"experimental",13,25,"hd","upper","disease","w","w","g","g",1,0.623511247336864,NA,NA,NA
"experimental",13,26,"hd","upper","cogantly","nw","nw","h","h",1,0.660856840782799,NA,NA,NA
"experimental",13,27,"hd","upper","supplier","w","w","g","g",1,0.552905122516677,NA,NA,NA
"experimental",13,28,"hd","upper","reconcile","w","w","g","g",1,0.649020787561312,NA,NA,NA
"experimental",13,29,"hd","upper","senalize","nw","nw","h","h",1,0.645725325099193,NA,NA,NA
"experimental",13,30,"hd","upper","daining","nw","nw","h","h",1,0.778479088912718,NA,NA,NA
"experimental",14,1,"ld","lower","disperse","w","w","g","g",1,0.99377236480359,NA,NA,NA
"experimental",14,2,"ld","lower","offonents","nw","nw","h","h",1,1.21645775274374,NA,NA,NA
"experimental",14,3,"ld","lower","prillway","nw","nw","h","h",1,0.686654080171138,NA,NA,NA
"experimental",14,4,"ld","lower","inducing","w","w","g","g",1,0.928848379990086,NA,NA,NA
"experimental",14,5,"ld","lower","uncorked","w","w","g","h",0,0.74591943109408,NA,NA,NA
"experimental",14,6,"ld","lower","grenavier","nw","nw","h","h",1,2.97922121349256,NA,NA,NA
"experimental",14,7,"ld","lower","fetching","w","w","g","g",1,0.778671771055087,NA,NA,NA
"experimental",14,8,"ld","lower","asclibed","nw","nw","h","h",1,0.706067975144833,NA,NA,NA
"experimental",14,9,"ld","lower","company","w","w","g","g",1,0.620199231547303,NA,NA,NA
"experimental",14,10,"ld","lower","railroad","w","w","g","g",1,0.945568365277722,NA,NA,NA
"experimental",14,11,"ld","lower","scrobby","nw","nw","h","h",1,0.810407066834159,NA,NA,NA
"experimental",14,12,"ld","lower","deakers","nw","nw","h","h",1,0.704362969030626,NA,NA,NA
"experimental",14,13,"ld","lower","gumdrep","nw","nw","h","h",1,0.92143309302628,NA,NA,NA
"experimental",14,14,"ld","lower","pretzel","w","w","g","g",1,0.586896323482506,NA,NA,NA
"experimental",14,15,"ld","lower","apology","w","w","g","g",1,0.593582927016541,NA,NA,NA
"experimental",14,16,"ld","lower","tenpince","nw","nw","h","h",1,0.73632405383978,NA,NA,NA
"experimental",14,17,"ld","lower","attrove","nw","nw","h","h",1,1.06515981268603,NA,NA,NA
"experimental",14,18,"ld","lower","checkout","w","w","g","g",1,0.612949148169719,NA,NA,NA
"experimental",14,19,"ld","lower","sording","nw","nw","h","h",1,0.651237626560032,NA,NA,NA
"experimental",14,20,"ld","lower","snife","nw","nw","h","h",1,0.759310516063124,NA,NA,NA
"experimental",14,21,"ld","lower","number","w","w","g","g",1,0.535359119647183,NA,NA,NA
"experimental",14,22,"ld","lower","peanimate","nw","nw","h","h",1,1.59919421805535,NA,NA,NA
"experimental",14,23,"ld","lower","turntable","w","w","g","g",1,0.829834204516374,NA,NA,NA
"experimental",14,24,"ld","lower","revising","w","w","g","g",1,0.483244862407446,NA,NA,NA
"experimental",14,25,"ld","lower","latpin","nw","nw","h","h",1,0.822755283908918,NA,NA,NA
"experimental",14,26,"ld","lower","massacre","w","w","g","g",1,0.788009576499462,NA,NA,NA
"experimental",14,27,"ld","lower","vibrate","w","w","g","g",1,0.546790937427431,NA,NA,NA
"experimental",14,28,"ld","lower","spiud","nw","nw","h","h",1,0.644256371422671,NA,NA,NA
"experimental",14,29,"ld","lower","emergence","w","w","g","g",1,2.27128909458406,NA,NA,NA
"experimental",14,30,"ld","lower","legalosm","nw","nw","h","h",1,0.699273774051107,NA,NA,NA
"experimental",15,1,"ld","lower","seartfelt","nw","nw","h","h",1,0.934357370715588,NA,NA,NA
"experimental",15,2,"ld","lower","typical","w","w","g","g",1,0.543115407810546,NA,NA,NA
"experimental",15,3,"ld","lower","chesume","nw","nw","h","h",1,0.751843913574703,NA,NA,NA
"experimental",15,4,"ld","lower","facienda","nw","nw","h","h",1,0.583222780143842,NA,NA,NA
"experimental",15,5,"ld","lower","funtair","nw","nw","h","h",1,0.870366669725627,NA,NA,NA
"experimental",15,6,"ld","lower","odacles","nw","nw","h","h",1,0.537806382868439,NA,NA,NA
"experimental",15,7,"ld","lower","trophy","w","w","g","h",0,0.787387166521512,NA,NA,NA
"experimental",15,8,"ld","lower","illness","w","w","g","g",1,0.489949012640864,NA,NA,NA
"experimental",15,9,"ld","lower","geborn","nw","nw","h","h",1,0.580637130071409,NA,NA,NA
"experimental",15,10,"ld","lower","terrify","w","w","g","g",1,0.556036705733277,NA,NA,NA
"experimental",15,11,"ld","lower","slooping","nw","nw","h","h",1,1.11615009023808,NA,NA,NA
"experimental",15,12,"ld","lower","etuip","nw","nw","h","h",1,0.654097070917487,NA,NA,NA
"experimental",15,13,"ld","lower","religious","w","w","g","g",1,0.633311225217767,NA,NA,NA
"experimental",15,14,"ld","lower","observer","w","w","g","g",1,1.06260594539344,NA,NA,NA
"experimental",15,15,"ld","lower","lenie","nw","nw","h","g",0,0.546590309590101,NA,NA,NA
"experimental",15,16,"ld","lower","kraums","nw","nw","h","h",1,0.771306475740857,NA,NA,NA
"experimental",15,17,"ld","lower","grieving","w","w","g","g",1,0.690710670431145,NA,NA,NA
"experimental",15,18,"ld","lower","renown","w","w","g","g",1,1.38944999221712,NA,NA,NA
"experimental",15,19,"ld","lower","contain","w","w","g","g",1,0.612234369851649,NA,NA,NA
"experimental",15,20,"ld","lower","chining","nw","nw","h","h",1,0.977645655395463,NA,NA,NA
"experimental",15,21,"ld","lower","plunging","w","w","g","g",1,1.15262695821002,NA,NA,NA
"experimental",15,22,"ld","lower","incidonts","nw","nw","h","h",1,0.952798253390938,NA,NA,NA
"experimental",15,23,"ld","lower","nature","w","w","g","g",1,0.95288002747111,NA,NA,NA
"experimental",15,24,"ld","lower","iolize","nw","nw","h","h",1,7.43335671420209,NA,NA,NA
"experimental",15,25,"ld","lower","pracking","nw","nw","h","h",1,0.654749277047813,NA,NA,NA
"experimental",15,26,"ld","lower","forecast","w","w","g","g",1,0.67388606723398,NA,NA,NA
"experimental",15,27,"ld","lower","truthful","w","w","g","g",1,0.501225559157319,NA,NA,NA
"experimental",15,28,"ld","lower","theery","nw","nw","h","h",1,0.727312020491809,NA,NA,NA
"experimental",15,29,"ld","lower","region","w","w","g","g",1,0.560709084616974,NA,NA,NA
"experimental",15,30,"ld","lower","cobalt","w","w","g","g",1,0.768759229686111,NA,NA,NA
"experimental",16,1,"ld","lower","defensa","nw","nw","h","h",1,0.823527668253519,NA,NA,NA
"experimental",16,2,"ld","lower","defeat","w","w","g","g",1,2.45297421677969,NA,NA,NA
"experimental",16,3,"ld","lower","outlaved","nw","nw","h","h",1,0.816943365032785,NA,NA,NA
"experimental",16,4,"ld","lower","ignoble","w","w","g","h",0,1.55211419833358,NA,NA,NA
"experimental",16,5,"ld","lower","machinery","w","w","g","g",1,1.67119017103687,NA,NA,NA
"experimental",16,6,"ld","lower","omners","nw","nw","h","h",1,0.722525753779337,NA,NA,NA
"experimental",16,7,"ld","lower","derisury","nw","nw","h","h",1,0.739523837226443,NA,NA,NA
"experimental",16,8,"ld","lower","organize","w","w","g","g",1,0.547671581502073,NA,NA,NA
"experimental",16,9,"ld","lower","giving","w","w","g","g",1,0.90841081913095,NA,NA,NA
"experimental",16,10,"ld","lower","servant","w","w","g","g",1,0.678550169453956,NA,NA,NA
"experimental",16,11,"ld","lower","ringlat","nw","nw","h","h",1,0.585980917210691,NA,NA,NA
"experimental",16,12,"ld","lower","pamine","nw","nw","h","h",1,1.12073705333751,NA,NA,NA
"experimental",16,13,"ld","lower","distrust","w","w","g","g",1,0.730226091109216,NA,NA,NA
"experimental",16,14,"ld","lower","olerates","nw","nw","h","h",1,1.77948785666376,NA,NA,NA
"experimental",16,15,"ld","lower","otoist","nw","nw","h","h",1,1.20203936018515,NA,NA,NA
"experimental",16,16,"ld","lower","enacted","w","w","g","g",1,1.2240561209619,NA,NA,NA
"experimental",16,17,"ld","lower","living","w","w","g","g",1,0.597416376695037,NA,NA,NA
"experimental",16,18,"ld","lower","perform","w","w","g","g",1,0.716229480574839,NA,NA,NA
"experimental",16,19,"ld","lower","nearsipe","nw","nw","h","h",1,1.14233799115755,NA,NA,NA
"experimental",16,20,"ld","lower","pimorous","nw","nw","h","h",1,0.750656037474982,NA,NA,NA
"experimental",16,21,"ld","lower","redefloy","nw","nw","h","h",1,0.663496455177665,NA,NA,NA
"experimental",16,22,"ld","lower","finstrel","nw","nw","h","h",1,0.66775201796554,NA,NA,NA
"experimental",16,23,"ld","lower","sopes","nw","nw","h","h",1,1.02298524463549,NA,NA,NA
"experimental",16,24,"ld","lower","shests","nw","nw","h","g",0,1.19540043047164,NA,NA,NA
"experimental",16,25,"ld","lower","roughly","w","w","g","g",1,0.810196837875992,NA,NA,NA
"experimental",16,26,"ld","lower","lofty","w","w","g","h",0,11.5277230096981,NA,NA,NA
"experimental",16,27,"ld","lower","protest","w","w","g","g",1,0.577097007655539,NA,NA,NA
"experimental",16,28,"ld","lower","assent","w","w","g","h",0,1.36049335985444,NA,NA,NA
"experimental",16,29,"ld","lower","previous","w","w","g","g",1,0.64857450639829,NA,NA,NA
"experimental",16,30,"ld","lower","fashing","nw","nw","h","h",1,0.789425559341908,NA,NA,NA
"experimental",17,1,"ld","lower","boutique","w","w","g","g",1,0.556065177661367,NA,NA,NA
"experimental",17,2,"ld","lower","infested","w","w","g","g",1,0.644197109970264,NA,NA,NA
"experimental",17,3,"ld","lower","phraining","nw","nw","h","h",1,0.688891776488163,NA,NA,NA
"experimental",17,4,"ld","lower","podges","nw","nw","h","h",1,0.595678594778292,NA,NA,NA
"experimental",17,5,"ld","lower","shockwave","w","w","g","h",0,0.578394467593171,NA,NA,NA
"experimental",17,6,"ld","lower","veclors","nw","nw","h","h",1,0.673811576678418,NA,NA,NA
"experimental",17,7,"ld","lower","recipus","nw","nw","h","h",1,0.677213312126696,NA,NA,NA
"experimental",17,8,"ld","lower","imprives","nw","nw","h","h",1,0.720295340870507,NA,NA,NA
"experimental",17,9,"ld","lower","ipiocy","nw","nw","h","h",1,0.625997245544568,NA,NA,NA
"experimental",17,10,"ld","lower","daylight","w","w","g","g",1,0.798359129345044,NA,NA,NA
"experimental",17,11,"ld","lower","soluced","nw","nw","h","h",1,1.2051073780749,NA,NA,NA
"experimental",17,12,"ld","lower","sunshine","w","w","g","g",1,1.18711542501114,NA,NA,NA
"experimental",17,13,"ld","lower","cherry","w","w","g","g",1,7.38615750952158,NA,NA,NA
"experimental",17,14,"ld","lower","hardest","w","w","g","g",1,0.664615468820557,NA,NA,NA
"experimental",17,15,"ld","lower","permute","w","w","g","h",0,1.26799363223836,NA,NA,NA
"experimental",17,16,"ld","lower","bedding","w","w","g","g",1,1.53539388196077,NA,NA,NA
"experimental",17,17,"ld","lower","schinter","nw","nw","h","h",1,0.816255072248168,NA,NA,NA
"experimental",17,18,"ld","lower","regional","w","w","g","g",1,0.654310941463336,NA,NA,NA
"experimental",17,19,"ld","lower","abhorrent","w","w","g","h",0,0.586407996481284,NA,NA,NA
"experimental",17,20,"ld","lower","guffy","nw","nw","h","g",0,0.481049211812206,NA,NA,NA
"experimental",17,21,"ld","lower","micron","w","w","g","h",0,0.732490604161285,NA,NA,NA
"experimental",17,22,"ld","lower","tuckel","nw","nw","h","h",1,0.741841652314179,NA,NA,NA
"experimental",17,23,"ld","lower","drobate","nw","nw","h","h",1,1.01371398405172,NA,NA,NA
"experimental",17,24,"ld","lower","alomalous","nw","nw","h","h",1,0.579662131378427,NA,NA,NA
"experimental",17,25,"ld","lower","blipover","nw","nw","h","h",1,0.72307334211655,NA,NA,NA
"experimental",17,26,"ld","lower","rowel","nw","nw","h","h",1,0.540490360464901,NA,NA,NA
"experimental",17,27,"ld","lower","partner","w","w","g","g",1,0.629229473648593,NA,NA,NA
"experimental",17,28,"ld","lower","digested","w","w","g","g",1,0.85858822253067,NA,NA,NA
"experimental",17,29,"ld","lower","ausht","nw","nw","h","h",1,0.814668920007534,NA,NA,NA
"experimental",17,30,"ld","lower","persona","w","w","g","g",1,0.628765645786189,NA,NA,NA
"experimental",18,1,"hd","upper","congraks","nw","nw","h","h",1,1.650135166361,NA,NA,NA
"experimental",18,2,"hd","upper","migmarole","nw","nw","h","h",1,1.01481048506685,NA,NA,NA
"experimental",18,3,"hd","upper","coverall","w","w","g","g",1,0.77284727152437,NA,NA,NA
"experimental",18,4,"hd","upper","angry","w","w","g","g",1,1.23652021226007,NA,NA,NA
"experimental",18,5,"hd","upper","poars","nw","nw","h","h",1,0.77610135031864,NA,NA,NA
"experimental",18,6,"hd","upper","bloves","nw","nw","h","h",1,0.775421334197745,NA,NA,NA
"experimental",18,7,"hd","upper","rarely","w","w","g","g",1,0.798920291475952,NA,NA,NA
"experimental",18,8,"hd","upper","affluent","w","w","g","g",1,0.933600546559319,NA,NA,NA
"experimental",18,9,"hd","upper","glaims","nw","nw","h","h",1,4.32726163172629,NA,NA,NA
"experimental",18,10,"hd","upper","meteoroid","w","w","g","g",1,1.04868216998875,NA,NA,NA
"experimental",18,11,"hd","upper","lignpost","nw","nw","h","h",1,0.949520006775856,NA,NA,NA
"experimental",18,12,"hd","upper","outset","w","w","g","g",1,5.22137644723989,NA,NA,NA
"experimental",18,13,"hd","upper","ethical","w","w","g","g",1,0.634768591728061,NA,NA,NA
"experimental",18,14,"hd","upper","scatter","w","w","g","g",1,0.655514377867803,NA,NA,NA
"experimental",18,15,"hd","upper","nimp","nw","nw","h","h",1,1.8836415495025,NA,NA,NA
"experimental",18,16,"hd","upper","sliding","w","w","g","g",1,0.839058453217149,NA,NA,NA
"experimental",18,17,"hd","upper","tracing","w","w","g","g",1,1.4588778418256,NA,NA,NA
"experimental",18,18,"hd","upper","giraffe","target","target","q","q",1,1.41487444774248,1,NA,NA
"experimental",18,19,"hd","upper","index","aftertar1","w","g","g",1,0.989736300776713,NA,NA,NA
"experimental",18,20,"hd","upper","movie","aftertar2","w","g","g",1,0.956348970066756,NA,NA,NA
"experimental",18,21,"hd","upper","leather","aftertar3","w","g","g",1,0.884421548456885,NA,NA,NA
"experimental",18,22,"hd","upper","hanling","w","nw","h","h",1,0.959204772603698,NA,NA,NA
"experimental",18,23,"hd","upper","acroad","nw","nw","h","h",1,0.823925944510847,NA,NA,NA
"experimental",18,24,"hd","upper","ucility","nw","nw","h","h",1,1.1014330732869,NA,NA,NA
"experimental",18,25,"hd","upper","frose","nw","nw","h","h",1,0.679097757791169,NA,NA,NA
"experimental",18,26,"hd","upper","naxis","nw","nw","h","h",1,0.906022817245685,NA,NA,NA
"experimental",18,27,"hd","upper","halms","nw","nw","h","h",1,0.564543858636171,NA,NA,NA
"experimental",18,28,"hd","upper","passet","nw","nw","h","h",1,0.997227733489126,NA,NA,NA
"experimental",18,29,"hd","upper","dileting","nw","nw","h","h",1,0.532063988386653,NA,NA,NA
"experimental",18,30,"hd","upper","reborn","nw","w","g","g",1,1.44551754614804,NA,NA,NA
"experimental",19,1,"hd","upper","hostade","nw","nw","h","h",1,1.53020768368151,NA,NA,NA
"experimental",19,2,"hd","upper","dests","nw","nw","h","h",1,3.06769182963762,NA,NA,NA
"experimental",19,3,"hd","upper","nollow","nw","nw","h","h",1,0.751067225355655,NA,NA,NA
"experimental",19,4,"hd","upper","rangel","nw","nw","h","h",1,0.839235906372778,NA,NA,NA
"experimental",19,5,"hd","upper","volition","w","w","g","h",0,0.539942109957337,NA,NA,NA
"experimental",19,6,"hd","upper","plapping","nw","nw","h","h",1,0.539691490586847,NA,NA,NA
"experimental",19,7,"hd","upper","dorte","nw","nw","h","h",1,0.564406464924105,NA,NA,NA
"experimental",19,8,"hd","upper","vaporize","w","w","g","g",1,0.94844601827208,NA,NA,NA
"experimental",19,9,"hd","upper","casino","w","w","g","g",1,1.04512913583312,NA,NA,NA
"experimental",19,10,"hd","upper","derived","w","w","g","g",1,1.04991904436611,NA,NA,NA
"experimental",19,11,"hd","upper","retain","w","w","g","h",0,0.846648875740357,NA,NA,NA
"experimental",19,12,"hd","upper","dazid","nw","nw","h","h",1,0.859351999009959,NA,NA,NA
"experimental",19,13,"hd","upper","collute","nw","nw","h","h",1,0.696146494825371,NA,NA,NA
"experimental",19,14,"hd","upper","reddar","nw","nw","h","h",1,0.857786041917279,NA,NA,NA
"experimental",19,15,"hd","upper","volder","nw","nw","h","g",0,1.2459623045288,NA,NA,NA
"experimental",19,16,"hd","upper","lizard","target","target","q","q",1,1.95472673128825,1,NA,NA
"experimental",19,17,"hd","upper","pexts","aftertar1","nw","h","h",1,1.17888603906613,NA,NA,NA
"experimental",19,18,"hd","upper","rejoiced","aftertar2","w","g","g",1,0.786242660484277,NA,NA,NA
"experimental",19,19,"hd","upper","permeable","aftertar3","w","g","g",1,0.9930506341625,NA,NA,NA
"experimental",19,20,"hd","upper","remade","w","w","g","g",1,1.23977031814866,NA,NA,NA
"experimental",19,21,"hd","upper","treason","w","w","g","g",1,0.580513310269453,NA,NA,NA
"experimental",19,22,"hd","upper","browting","w","nw","h","h",1,0.818906274042092,NA,NA,NA
"experimental",19,23,"hd","upper","monopoly","nw","w","g","g",1,0.848313160357065,NA,NA,NA
"experimental",19,24,"hd","upper","huests","w","nw","h","h",1,0.677162327570841,NA,NA,NA
"experimental",19,25,"hd","upper","suburb","nw","w","g","g",1,0.824484789161943,NA,NA,NA
"experimental",19,26,"hd","upper","fission","w","w","g","h",0,0.901873527676798,NA,NA,NA
"experimental",19,27,"hd","upper","trembla","w","nw","h","h",1,0.703993826988153,NA,NA,NA
"experimental",19,28,"hd","upper","practice","nw","w","g","g",1,0.626053196261637,NA,NA,NA
"experimental",19,29,"hd","upper","patio","w","w","g","g",1,0.647471714997664,NA,NA,NA
"experimental",19,30,"hd","upper","virulent","w","w","g","g",1,0.715184957371093,NA,NA,NA
"experimental",20,1,"hd","upper","itfidels","nw","nw","h","h",1,5.20637901464943,NA,NA,NA
"experimental",20,2,"hd","upper","praiged","nw","nw","h","h",1,0.644394758273847,NA,NA,NA
"experimental",20,3,"hd","upper","susher","nw","nw","h","h",1,1.00823114789091,NA,NA,NA
"experimental",20,4,"hd","upper","yash","nw","nw","h","h",1,0.924997714697383,NA,NA,NA
"experimental",20,5,"hd","upper","tyena","nw","nw","h","h",1,0.991687622386962,NA,NA,NA
"experimental",20,6,"hd","upper","fragment","w","w","g","g",1,0.662377441418357,NA,NA,NA
"experimental",20,7,"hd","upper","handle","w","w","g","g",1,0.914534936309792,NA,NA,NA
"experimental",20,8,"hd","upper","rational","w","w","g","g",1,0.612612781813368,NA,NA,NA
"experimental",20,9,"hd","upper","chone","nw","nw","h","h",1,0.842688295524567,NA,NA,NA
"experimental",20,10,"hd","upper","cayward","nw","nw","h","h",1,0.799485426512547,NA,NA,NA
"experimental",20,11,"hd","upper","jiggling","w","w","g","g",1,0.885109841125086,NA,NA,NA
"experimental",20,12,"hd","upper","pollute","w","w","g","g",1,10.3763697810937,NA,NA,NA
"experimental",20,13,"hd","upper","plartly","nw","nw","h","h",1,0.831691502477042,NA,NA,NA
"experimental",20,14,"hd","upper","bother","w","w","g","g",1,0.636116043082438,NA,NA,NA
"experimental",20,15,"hd","upper","puyer","nw","nw","h","h",1,1.15287492901552,NA,NA,NA
"experimental",20,16,"hd","upper","goltish","nw","nw","h","h",1,1.50507787975948,NA,NA,NA
"experimental",20,17,"hd","upper","ebuating","nw","nw","h","h",1,1.29101353243459,NA,NA,NA
"experimental",20,18,"hd","upper","mandlers","nw","nw","h","h",1,1.10968596499879,NA,NA,NA
"experimental",20,19,"hd","upper","monkey","target","target","q","g",0,0.663721582153812,NA,NA,NA
"experimental",20,20,"hd","upper","levels","aftertar1","w","g","g",1,0.539709037286229,NA,NA,NA
"experimental",20,21,"hd","upper","arrive","aftertar2","w","g","g",1,0.652373524848372,NA,NA,NA
"experimental",20,22,"hd","upper","corg","aftertar3","nw","h","h",1,1.14142357825767,NA,NA,NA
"experimental",20,23,"hd","upper","ergonomic","nw","w","g","h",0,0.639573067077436,NA,NA,NA
"experimental",20,24,"hd","upper","ignore","w","w","g","g",1,0.7490159207955,NA,NA,NA
"experimental",20,25,"hd","upper","bypassed","w","w","g","g",1,1.14171525009442,NA,NA,NA
"experimental",20,26,"hd","upper","arrigns","w","nw","h","h",1,0.822804613271728,NA,NA,NA
"experimental",20,27,"hd","upper","incorrect","nw","w","g","g",1,0.71604573726654,NA,NA,NA
"experimental",20,28,"hd","upper","skiing","w","w","g","g",1,0.598001375910826,NA,NA,NA
"experimental",20,29,"hd","upper","fards","w","nw","h","h",1,0.732873651082627,NA,NA,NA
"experimental",20,30,"hd","upper","ensues","nw","w","g","h",0,0.637257238500752,NA,NA,NA
"experimental",21,1,"ld","lower","newstrint","nw","nw","h","h",1,1.01083302032202,NA,NA,NA
"experimental",21,2,"ld","lower","aviation","w","w","g","h",0,0.977003712323494,NA,NA,NA
"experimental",21,3,"ld","lower","bulmed","nw","nw","h","h",1,0.688338560052216,NA,NA,NA
"experimental",21,4,"ld","lower","railway","w","w","g","g",1,1.10714302293491,NA,NA,NA
"experimental",21,5,"ld","lower","bluads","nw","nw","h","h",1,6.61230919137597,NA,NA,NA
"experimental",21,6,"ld","lower","shamrock","w","w","g","g",1,1.0344336158596,NA,NA,NA
"experimental",21,7,"ld","lower","borrent","nw","nw","h","g",0,0.911240798188373,NA,NA,NA
"experimental",21,8,"ld","lower","surdens","nw","nw","h","h",1,1.01728357165121,NA,NA,NA
"experimental",21,9,"ld","lower","chraps","nw","nw","h","h",1,1.03064784011804,NA,NA,NA
"experimental",21,10,"ld","lower","infancy","w","w","g","h",0,1.20293424010742,NA,NA,NA
"experimental",21,11,"ld","lower","vintnel","nw","nw","h","h",1,0.889062806847505,NA,NA,NA
"experimental",21,12,"ld","lower","contund","nw","nw","h","h",1,0.787938065594062,NA,NA,NA
"experimental",21,13,"ld","lower","hodels","nw","nw","h","h",1,0.73071011423599,NA,NA,NA
"experimental",21,14,"ld","lower","glates","nw","nw","h","h",1,1.00414509244729,NA,NA,NA
"experimental",21,15,"ld","lower","jungle","w","w","g","g",1,1.08220490801614,NA,NA,NA
"experimental",21,16,"ld","lower","graiking","nw","nw","h","h",1,0.789630160084926,NA,NA,NA
"experimental",21,17,"ld","lower","repayment","w","w","g","g",1,1.65141673502512,NA,NA,NA
"experimental",21,18,"ld","lower","comply","w","w","g","g",1,1.31151532067452,NA,NA,NA
"experimental",21,19,"ld","lower","mystery","w","w","g","g",1,0.64970411430113,NA,NA,NA
"experimental",21,20,"ld","lower","stable","w","w","g","g",1,0.926429919782095,NA,NA,NA
"experimental",21,21,"ld","lower","command","w","w","g","g",1,0.479809688869864,NA,NA,NA
"experimental",21,22,"ld","lower","reses","nw","nw","h","h",1,0.939232363831252,NA,NA,NA
"experimental",21,23,"ld","lower","caterpillar","target","target","q","g",0,0.627935986500233,1,1,NA
"experimental",21,24,"ld","lower","widely","aftertar1","w","g","g",1,1.22535324981436,NA,NA,NA
"experimental",21,25,"ld","lower","razelle","aftertar2","nw","h","h",1,1.25382585893385,NA,NA,NA
"experimental",21,26,"ld","lower","intended","aftertar3","w","g","g",1,0.577855156036094,NA,NA,NA
"experimental",21,27,"ld","lower","cutout","w","w","g","g",1,0.80130597576499,NA,NA,NA
"experimental",21,28,"ld","lower","stretches","w","w","g","g",1,0.607502398546785,NA,NA,NA
"experimental",21,29,"ld","lower","triangle","w","w","g","g",1,0.717610701103695,NA,NA,NA
"experimental",21,30,"ld","lower","seighing","w","nw","h","h",1,0.662742279586382,NA,NA,NA
"experimental",22,1,"hd","upper","roodies","nw","nw","h","h",1,1.18613082531374,NA,NA,NA
"experimental",22,2,"hd","upper","budget","w","w","g","g",1,0.98566315707285,NA,NA,NA
"experimental",22,3,"hd","upper","bettled","nw","nw","h","g",0,1.03227603819687,NA,NA,NA
"experimental",22,4,"hd","upper","clooped","nw","nw","h","h",1,0.829693831270561,NA,NA,NA
"experimental",22,5,"hd","upper","germeated","nw","nw","h","h",1,0.715187937021255,NA,NA,NA
"experimental",22,6,"hd","upper","venturous","w","w","g","g",1,1.16529233963229,NA,NA,NA
"experimental",22,7,"hd","upper","armada","w","w","g","h",0,1.10055143607315,NA,NA,NA
"experimental",22,8,"hd","upper","pegend","nw","nw","h","h",1,1.11845499370247,NA,NA,NA
"experimental",22,9,"hd","upper","gablus","nw","nw","h","h",1,0.927884637610987,NA,NA,NA
"experimental",22,10,"hd","upper","quickel","nw","nw","h","h",1,0.993294632062316,NA,NA,NA
"experimental",22,11,"hd","upper","butterfly","target","target","q","q",1,1.08007480902597,1,NA,NA
"experimental",22,12,"hd","upper","contact","aftertar1","w","g","g",1,1.07550903444644,NA,NA,NA
"experimental",22,13,"hd","upper","afford","aftertar2","w","g","g",1,1.23890655871946,NA,NA,NA
"experimental",22,14,"hd","upper","despise","aftertar3","w","g","g",1,0.635673403623514,NA,NA,NA
"experimental",22,15,"hd","upper","party","w","w","g","g",1,0.919511236599646,NA,NA,NA
"experimental",22,16,"hd","upper","category","w","w","g","g",1,1.44885704072658,NA,NA,NA
"experimental",22,17,"hd","upper","ronic","w","nw","h","h",1,1.62166752316989,NA,NA,NA
"experimental",22,18,"hd","upper","issue","nw","w","g","g",1,2.17913897591643,NA,NA,NA
"experimental",22,19,"hd","upper","subber","w","nw","h","h",1,2.04251600708812,NA,NA,NA
"experimental",22,20,"hd","upper","podes","nw","nw","h","h",1,2.5673751620343,NA,NA,NA
"experimental",22,21,"hd","upper","earterner","nw","nw","h","h",1,0.813695245538838,NA,NA,NA
"experimental",22,22,"hd","upper","butler","nw","w","g","g",1,0.96362653223332,NA,NA,NA
"experimental",22,23,"hd","upper","become","w","w","g","g",1,0.835836488287896,NA,NA,NA
"experimental",22,24,"hd","upper","even","w","w","g","g",1,0.78399536316283,NA,NA,NA
"experimental",22,25,"hd","upper","frunted","w","nw","h","g",0,0.695513490703888,NA,NA,NA
"experimental",22,26,"hd","upper","shazer","nw","nw","h","h",1,0.80213530396577,NA,NA,NA
"experimental",22,27,"hd","upper","listless","nw","w","g","g",1,1.20015921839513,NA,NA,NA
"experimental",22,28,"hd","upper","demise","w","w","g","g",1,0.933618093258701,NA,NA,NA
"experimental",22,29,"hd","upper","pender","w","nw","h","h",1,1.11871024803258,NA,NA,NA
"experimental",22,30,"hd","upper","fraft","nw","nw","h","h",1,1.07211921736598,NA,NA,NA
"experimental",23,1,"hd","upper","spaceship","w","w","g","g",1,3.40329828381073,NA,NA,NA
"experimental",23,2,"hd","upper","deadly","w","w","g","g",1,0.609103448805399,NA,NA,NA
"experimental",23,3,"hd","upper","lonnote","nw","nw","h","h",1,1.03116298373789,NA,NA,NA
"experimental",23,4,"hd","upper","elormity","nw","nw","h","h",1,0.836586359888315,NA,NA,NA
"experimental",23,5,"hd","upper","prame","nw","nw","h","h",1,0.897332914173603,NA,NA,NA
"experimental",23,6,"hd","upper","charcoal","w","w","g","g",1,0.716078844154254,NA,NA,NA
"experimental",23,7,"hd","upper","ahead","w","w","g","g",1,1.18215369165409,NA,NA,NA
"experimental",23,8,"hd","upper","stelled","nw","nw","h","h",1,0.741569513571449,NA,NA,NA
"experimental",23,9,"hd","upper","recollect","w","w","g","g",1,0.574216705979779,NA,NA,NA
"experimental",23,10,"hd","upper","volume","w","w","g","g",1,0.620655775768682,NA,NA,NA
"experimental",23,11,"hd","upper","eightiech","nw","nw","h","h",1,0.75285433663521,NA,NA,NA
"experimental",23,12,"hd","upper","huntry","nw","nw","h","h",1,0.778162586735561,NA,NA,NA
"experimental",23,13,"hd","upper","latirizes","nw","nw","h","h",1,0.721557045355439,NA,NA,NA
"experimental",23,14,"hd","upper","alticles","nw","nw","h","h",1,0.619251711643301,NA,NA,NA
"experimental",23,15,"hd","upper","sengry","nw","nw","h","h",1,0.672403208445758,NA,NA,NA
"experimental",23,16,"hd","upper","noils","nw","nw","h","h",1,0.963858280563727,NA,NA,NA
"experimental",23,17,"hd","upper","carnival","w","w","g","g",1,1.16397600877099,NA,NA,NA
"experimental",23,18,"hd","upper","inforl","nw","nw","h","h",1,0.852097280789167,NA,NA,NA
"experimental",23,19,"hd","upper","kickoff","w","w","g","g",1,0.823103237664327,NA,NA,NA
"experimental",23,20,"hd","upper","rodeo","w","w","g","g",1,0.796510439133272,NA,NA,NA
"experimental",23,21,"hd","upper","hatred","w","w","g","g",1,11.6508052501595,NA,NA,NA
"experimental",23,22,"hd","upper","unlined","w","w","g","h",0,0.686810344690457,NA,NA,NA
"experimental",23,23,"hd","upper","measure","w","w","g","g",1,0.601445157197304,NA,NA,NA
"experimental",23,24,"hd","upper","hangar","w","w","g","g",1,0.847576531465165,NA,NA,NA
"experimental",23,25,"hd","upper","bureaug","nw","nw","h","h",1,0.628343863645568,NA,NA,NA
"experimental",23,26,"hd","upper","yellep","nw","nw","h","h",1,0.601573943160474,NA,NA,NA
"experimental",23,27,"hd","upper","acting","w","w","g","g",1,0.631627738592215,NA,NA,NA
"experimental",23,28,"hd","upper","shurk","nw","nw","h","h",1,0.677117302082479,NA,NA,NA
"experimental",23,29,"hd","upper","preight","nw","nw","h","h",1,0.66440590203274,NA,NA,NA
"experimental",23,30,"hd","upper","awful","w","w","g","g",1,0.55552719021216,NA,NA,NA
"experimental",24,1,"ld","lower","eugenifs","nw","nw","h","h",1,1.15596512856428,NA,NA,NA
"experimental",24,2,"ld","lower","aicline","nw","nw","h","h",1,0.82005442189984,NA,NA,NA
"experimental",24,3,"ld","lower","trocess","nw","nw","h","h",1,0.721474940306507,NA,NA,NA
"experimental",24,4,"ld","lower","rainfall","w","w","g","g",1,0.666858793469146,NA,NA,NA
"experimental",24,5,"ld","lower","throttle","w","w","g","h",0,0.909986377228051,NA,NA,NA
"experimental",24,6,"ld","lower","glattery","nw","nw","h","h",1,0.99206272372976,NA,NA,NA
"experimental",24,7,"ld","lower","sonkers","nw","nw","h","h",1,0.686854376923293,NA,NA,NA
"experimental",24,8,"ld","lower","deceit","w","w","g","g",1,3.91377546358854,NA,NA,NA
"experimental",24,9,"ld","lower","lutton","nw","nw","h","h",1,1.01179146545473,NA,NA,NA
"experimental",24,10,"ld","lower","undertake","w","w","g","g",1,0.969847983680666,NA,NA,NA
"experimental",24,11,"ld","lower","dreaded","w","w","g","g",1,0.880303048179485,NA,NA,NA
"experimental",24,12,"ld","lower","veirs","nw","nw","h","h",1,0.779685173765756,NA,NA,NA
"experimental",24,13,"ld","lower","alchemist","w","w","g","g",1,0.707106539048254,NA,NA,NA
"experimental",24,14,"ld","lower","footstep","w","w","g","g",1,0.589162491844036,NA,NA,NA
"experimental",24,15,"ld","lower","lifetime","w","w","g","g",1,0.732043991796672,NA,NA,NA
"experimental",24,16,"ld","lower","sorping","nw","nw","h","h",1,1.00541838433128,NA,NA,NA
"experimental",24,17,"ld","lower","geissue","nw","nw","h","h",1,1.49944076535758,NA,NA,NA
"experimental",24,18,"ld","lower","fuhrek","nw","nw","h","h",1,0.934089204645716,NA,NA,NA
"experimental",24,19,"ld","lower","doads","nw","nw","h","h",1,1.9660264524864,NA,NA,NA
"experimental",24,20,"ld","lower","laser","w","w","g","g",1,1.00603086233605,NA,NA,NA
"experimental",24,21,"ld","lower","happen","w","w","g","g",1,0.820331526687369,NA,NA,NA
"experimental",24,22,"ld","lower","maiden","w","w","g","g",1,0.738085672841407,NA,NA,NA
"experimental",24,23,"ld","lower","wimpid","nw","nw","h","h",1,0.762857259949669,NA,NA,NA
"experimental",24,24,"ld","lower","gigoho","nw","nw","h","h",1,0.602937948075123,NA,NA,NA
"experimental",24,25,"ld","lower","rocket","w","w","g","g",1,0.609064713818952,NA,NA,NA
"experimental",24,26,"ld","lower","tipoff","w","w","g","g",1,0.727150458726101,NA,NA,NA
"experimental",24,27,"ld","lower","ready","w","w","g","g",1,0.743656242382713,NA,NA,NA
"experimental",24,28,"ld","lower","ludictous","nw","nw","h","h",1,1.17642520205118,NA,NA,NA
"experimental",24,29,"ld","lower","trises","nw","nw","h","h",1,0.991738607059233,NA,NA,NA
"experimental",24,30,"ld","lower","heaviest","w","w","g","g",1,1.022260865313,NA,NA,NA
"experimental",25,1,"ld","lower","populace","w","w","g","g",1,0.867927021114156,NA,NA,NA
"experimental",25,2,"ld","lower","axis","w","w","g","g",1,1.02332028653473,NA,NA,NA
"experimental",25,3,"ld","lower","crudios","nw","nw","h","h",1,0.764688403345644,NA,NA,NA
"experimental",25,4,"ld","lower","envelop","w","w","g","g",1,0.644802304334007,NA,NA,NA
"experimental",25,5,"ld","lower","gymnasium","w","w","g","g",1,0.95355838816613,NA,NA,NA
"experimental",25,6,"ld","lower","mebase","nw","nw","h","h",1,1.69770053343382,NA,NA,NA
"experimental",25,7,"ld","lower","crimb","nw","nw","h","h",1,5.58753330039326,NA,NA,NA
"experimental",25,8,"ld","lower","tunneg","nw","nw","h","h",1,3.75437195750419,NA,NA,NA
"experimental",25,9,"ld","lower","retona","nw","nw","h","h",1,0.562323708902113,NA,NA,NA
"experimental",25,10,"ld","lower","seasoning","w","w","g","g",1,0.818521571578458,NA,NA,NA
"experimental",25,11,"ld","lower","legalize","w","w","g","g",1,0.591906392830424,NA,NA,NA
"experimental",25,12,"ld","lower","greakable","nw","nw","h","h",1,0.790630982024595,NA,NA,NA
"experimental",25,13,"ld","lower","pariah","w","w","g","h",0,1.11735451978166,NA,NA,NA
"experimental",25,14,"ld","lower","seeming","w","w","g","g",1,1.02981089730747,NA,NA,NA
"experimental",25,15,"ld","lower","potent","w","w","g","g",1,0.97923611162696,NA,NA,NA
"experimental",25,16,"ld","lower","colicky","w","w","g","h",0,12.0741976695135,NA,NA,NA
"experimental",25,17,"ld","lower","atble","nw","nw","h","h",1,1.5734453148907,NA,NA,NA
"experimental",25,18,"ld","lower","pived","nw","nw","h","h",1,1.2527667687973,NA,NA,NA
"experimental",25,19,"ld","lower","glamorous","w","w","g","g",1,1.04886988620274,NA,NA,NA
"experimental",25,20,"ld","lower","clypaper","nw","nw","h","h",1,1.19750172633212,NA,NA,NA
"experimental",25,21,"ld","lower","engineer","w","w","g","g",1,0.964291650103405,NA,NA,NA
"experimental",25,22,"ld","lower","ubefully","nw","nw","h","h",1,0.892341715632938,NA,NA,NA
"experimental",25,23,"ld","lower","leuter","nw","nw","h","h",1,0.846071822219528,NA,NA,NA
"experimental",25,24,"ld","lower","nimono","nw","nw","h","h",1,0.946352006052621,NA,NA,NA
"experimental",25,25,"ld","lower","mopping","w","w","g","h",0,0.859271880239248,NA,NA,NA
"experimental",25,26,"ld","lower","scabry","nw","nw","h","h",1,0.871635988820344,NA,NA,NA
"experimental",25,27,"ld","lower","guivers","nw","nw","h","h",1,0.763155884225853,NA,NA,NA
"experimental",25,28,"ld","lower","stifle","w","w","g","h",0,0.779216710943729,NA,NA,NA
"experimental",25,29,"ld","lower","gestalion","nw","nw","h","h",1,0.778568146401085,NA,NA,NA
"experimental",25,30,"ld","lower","coupling","w","w","g","g",1,0.914274715818465,NA,NA,NA
"experimental",26,1,"ld","lower","trooper","w","w","g","g",1,1.02808635809924,NA,NA,NA
"experimental",26,2,"ld","lower","louches","nw","nw","h","g",0,0.929541307734326,NA,NA,NA
"experimental",26,3,"ld","lower","markot","nw","nw","h","h",1,0.978943115333095,NA,NA,NA
"experimental",26,4,"ld","lower","trembles","w","w","g","g",1,0.874379890039563,NA,NA,NA
"experimental",26,5,"ld","lower","pypecast","nw","nw","h","h",1,0.71683864784427,NA,NA,NA
"experimental",26,6,"ld","lower","dehydrate","w","w","g","g",1,0.751144364359789,NA,NA,NA
"experimental",26,7,"ld","lower","iflaid","nw","nw","h","h",1,0.694933126331307,NA,NA,NA
"experimental",26,8,"ld","lower","encounter","w","w","g","g",1,0.793698668829165,NA,NA,NA
"experimental",26,9,"ld","lower","fracture","w","w","g","g",1,0.55244460538961,NA,NA,NA
"experimental",26,10,"ld","lower","bingu","nw","nw","h","h",1,13.5439457291504,NA,NA,NA
"experimental",26,11,"ld","lower","lawsuit","w","w","g","g",1,0.728660796186887,NA,NA,NA
"experimental",26,12,"ld","lower","cripet","nw","nw","h","h",1,1.09010620438494,NA,NA,NA
"experimental",26,13,"ld","lower","glassware","w","w","g","g",1,0.828755250317045,NA,NA,NA
"experimental",26,14,"ld","lower","entropy","w","w","g","g",1,0.77033809851855,NA,NA,NA
"experimental",26,15,"ld","lower","togglo","nw","nw","h","h",1,0.800871613086201,NA,NA,NA
"experimental",26,16,"ld","lower","abstain","w","w","g","g",1,1.19885877892375,NA,NA,NA
"experimental",26,17,"ld","lower","satisfies","w","w","g","g",1,0.597588863805868,NA,NA,NA
"experimental",26,18,"ld","lower","frigs","nw","nw","h","h",1,0.716386738466099,NA,NA,NA
"experimental",26,19,"ld","lower","splum","nw","nw","h","h",1,0.654388080700301,NA,NA,NA
"experimental",26,20,"ld","lower","unversed","w","w","g","g",1,1.09045746875927,NA,NA,NA
"experimental",26,21,"ld","lower","porghum","nw","nw","h","h",1,16.2049279385246,NA,NA,NA
"experimental",26,22,"ld","lower","curricula","w","w","g","g",1,1.26690342149232,NA,NA,NA
"experimental",26,23,"ld","lower","blanned","nw","nw","h","h",1,0.90307034261059,NA,NA,NA
"experimental",26,24,"ld","lower","natch","nw","nw","h","h",1,0.616329364245757,NA,NA,NA
"experimental",26,25,"ld","lower","desert","w","w","g","g",1,0.966145306243561,NA,NA,NA
"experimental",26,26,"ld","lower","yearnungs","nw","nw","h","h",1,0.902156922849826,NA,NA,NA
"experimental",26,27,"ld","lower","glating","nw","nw","h","h",1,0.936698029516265,NA,NA,NA
"experimental",26,28,"ld","lower","phonology","w","w","g","h",0,1.00198585935868,NA,NA,NA
"experimental",26,29,"ld","lower","pressures","w","w","g","g",1,0.831670976243913,NA,NA,NA
"experimental",26,30,"ld","lower","allained","nw","nw","h","h",1,1.1572824526811,NA,NA,NA
"experimental",27,1,"ld","lower","cassette","w","w","g","g",1,2.58076624700334,NA,NA,NA
"experimental",27,2,"ld","lower","release","w","w","g","g",1,0.55611218942795,NA,NA,NA
"experimental",27,3,"ld","lower","official","w","w","g","g",1,0.500124091980979,NA,NA,NA
"experimental",27,4,"ld","lower","aqueduct","w","w","g","h",0,1.06296647968702,NA,NA,NA
"experimental",27,5,"ld","lower","decant","w","w","g","h",0,0.715033327811398,NA,NA,NA
"experimental",27,6,"ld","lower","corduroy","w","w","g","g",1,0.996044161380269,NA,NA,NA
"experimental",27,7,"ld","lower","sporidic","nw","nw","h","h",1,0.794823641772382,NA,NA,NA
"experimental",27,8,"ld","lower","slimped","nw","nw","h","h",1,0.537595491739921,NA,NA,NA
"experimental",27,9,"ld","lower","rarren","nw","nw","h","h",1,0.418256981181912,NA,NA,NA
"experimental",27,10,"ld","lower","posing","w","w","g","h",0,0.535660723689944,NA,NA,NA
"experimental",27,11,"ld","lower","buttress","w","w","g","g",1,0.87245968892239,NA,NA,NA
"experimental",27,12,"ld","lower","suspect","w","w","g","g",1,0.883875284343958,NA,NA,NA
"experimental",27,13,"ld","lower","dorth","nw","nw","h","h",1,3.96575994172599,NA,NA,NA
"experimental",27,14,"ld","lower","fomrade","nw","nw","h","g",0,1.6937733910745,NA,NA,NA
"experimental",27,15,"ld","lower","pakened","nw","nw","h","h",1,6.45682918594684,NA,NA,NA
"experimental",27,16,"ld","lower","godomy","nw","nw","h","h",1,1.20490045985207,NA,NA,NA
"experimental",27,17,"ld","lower","emotion","w","w","g","g",1,1.03400388814043,NA,NA,NA
"experimental",27,18,"ld","lower","arbitrary","w","w","g","g",1,0.934719560318626,NA,NA,NA
"experimental",27,19,"ld","lower","pillage","w","w","g","g",1,1.00739983317908,NA,NA,NA
"experimental",27,20,"ld","lower","sooled","nw","nw","h","h",1,0.941481978748925,NA,NA,NA
"experimental",27,21,"ld","lower","ghists","nw","nw","h","h",1,4.18243807996623,NA,NA,NA
"experimental",27,22,"ld","lower","schides","nw","nw","h","h",1,1.13389506563544,NA,NA,NA
"experimental",27,23,"ld","lower","amms","nw","nw","h","h",1,0.758525882149115,NA,NA,NA
"experimental",27,24,"ld","lower","buaint","nw","nw","h","h",1,0.493581834482029,NA,NA,NA
"experimental",27,25,"ld","lower","dricked","nw","nw","h","h",1,0.528373891720548,NA,NA,NA
"experimental",27,26,"ld","lower","havel","nw","nw","h","h",1,0.937726330361329,NA,NA,NA
"experimental",27,27,"ld","lower","criminal","w","w","g","g",1,0.546445632353425,NA,NA,NA
"experimental",27,28,"ld","lower","arpired","nw","nw","h","g",0,1.08324380300473,NA,NA,NA
"experimental",27,29,"ld","lower","dentures","w","w","g","g",1,1.53461189661175,NA,NA,NA
"experimental",27,30,"ld","lower","regiment","w","w","g","g",1,1.04733107681386,NA,NA,NA
"experimental",28,1,"hd","upper","blueberry","w","w","g","g",1,0.499180544982664,NA,NA,NA
"experimental",28,2,"hd","upper","bookend","w","w","g","g",1,1.09402672515716,NA,NA,NA
"experimental",28,3,"hd","upper","penalize","w","w","g","g",1,0.697520431829616,NA,NA,NA
"experimental",28,4,"hd","upper","paterways","nw","nw","h","h",1,0.948313921806402,NA,NA,NA
"experimental",28,5,"hd","upper","flougy","nw","nw","h","h",1,0.837048532441258,NA,NA,NA
"experimental",28,6,"hd","upper","rudder","w","w","g","h",0,0.760832440922968,NA,NA,NA
"experimental",28,7,"hd","upper","design","w","w","g","g",1,0.608840579981916,NA,NA,NA
"experimental",28,8,"hd","upper","lecked","nw","nw","h","h",1,1.97494644857943,NA,NA,NA
"experimental",28,9,"hd","upper","latter","w","w","g","h",0,0.70239509397652,NA,NA,NA
"experimental",28,10,"hd","upper","drauns","nw","nw","h","h",1,0.632500767940655,NA,NA,NA
"experimental",28,11,"hd","upper","airbis","nw","nw","h","h",1,0.66189639782533,NA,NA,NA
"experimental",28,12,"hd","upper","sunhess","nw","nw","h","h",1,0.641957427142188,NA,NA,NA
"experimental",28,13,"hd","upper","efficient","w","w","g","g",1,0.814668919891119,NA,NA,NA
"experimental",28,14,"hd","upper","baladroit","nw","nw","h","h",1,0.589057542849332,NA,NA,NA
"experimental",28,15,"hd","upper","remover","w","w","g","g",1,0.474434781237505,NA,NA,NA
"experimental",28,16,"hd","upper","egect","nw","nw","h","h",1,0.741905217524618,NA,NA,NA
"experimental",28,17,"hd","upper","maroon","w","w","g","g",1,39.4304734328762,NA,NA,NA
"experimental",28,18,"hd","upper","temelity","nw","nw","h","h",1,0.84315742040053,NA,NA,NA
"experimental",28,19,"hd","upper","picnic","w","w","g","g",1,0.527414453332312,NA,NA,NA
"experimental",28,20,"hd","upper","houted","nw","nw","h","h",1,0.656782372738235,NA,NA,NA
"experimental",28,21,"hd","upper","snocks","nw","nw","h","g",0,0.588389776297845,NA,NA,NA
"experimental",28,22,"hd","upper","personify","w","w","g","g",1,0.675590411177836,NA,NA,NA
"experimental",28,23,"hd","upper","rasuals","nw","nw","h","h",1,0.863032163702883,NA,NA,NA
"experimental",28,24,"hd","upper","nameplate","w","w","g","g",1,1.57938668178394,NA,NA,NA
"experimental",28,25,"hd","upper","gewer","nw","nw","h","h",1,0.890540368505754,NA,NA,NA
"experimental",28,26,"hd","upper","rabbit","target","target","q","g",0,0.581242986605503,NA,NA,NA
"experimental",28,27,"hd","upper","moozy","aftertar1","nw","h","h",1,1.19569243350998,NA,NA,NA
"experimental",28,28,"hd","upper","melodic","aftertar2","w","g","g",1,0.634344491991214,NA,NA,NA
"experimental",28,29,"hd","upper","aligning","aftertar3","w","g","g",1,0.943111169966869,NA,NA,NA
"experimental",28,30,"hd","upper","hustle","w","w","g","h",0,3.67993900447618,NA,NA,NA
"experimental",29,1,"hd","upper","alber","nw","nw","h","h",1,1.33062893606257,NA,NA,NA
"experimental",29,2,"hd","upper","mamps","nw","nw","h","h",1,1.82811694894917,NA,NA,NA
"experimental",29,3,"hd","upper","century","w","w","g","g",1,0.873492624727078,NA,NA,NA
"experimental",29,4,"hd","upper","exit","w","w","g","g",1,0.932970191002823,NA,NA,NA
"experimental",29,5,"hd","upper","airline","w","w","g","g",1,1.23042853991501,NA,NA,NA
"experimental",29,6,"hd","upper","dusmy","nw","nw","h","h",1,0.90776755171828,NA,NA,NA
"experimental",29,7,"hd","upper","amkles","nw","nw","h","h",1,2.88486087718047,NA,NA,NA
"experimental",29,8,"hd","upper","ecistle","nw","nw","h","h",1,0.64760116301477,NA,NA,NA
"experimental",29,9,"hd","upper","hutting","nw","nw","h","h",1,0.684425322571769,NA,NA,NA
"experimental",29,10,"hd","upper","managed","w","w","g","g",1,0.607147161266766,NA,NA,NA
"experimental",29,11,"hd","upper","ugifies","nw","nw","h","h",1,1.18114525498822,NA,NA,NA
"experimental",29,12,"hd","upper","erlighten","nw","nw","h","h",1,0.564576634438708,NA,NA,NA
"experimental",29,13,"hd","upper","hotplate","w","w","g","g",1,0.924700083443895,NA,NA,NA
"experimental",29,14,"hd","upper","sheerio","nw","nw","h","h",1,0.702032573288307,NA,NA,NA
"experimental",29,15,"hd","upper","matter","w","w","g","g",1,0.591152217355557,NA,NA,NA
"experimental",29,16,"hd","upper","filter","w","w","g","g",1,3.77393946866505,NA,NA,NA
"experimental",29,17,"hd","upper","consonant","w","w","g","g",1,1.22935951757245,NA,NA,NA
"experimental",29,18,"hd","upper","donastic","nw","nw","h","h",1,3.00209974718746,NA,NA,NA
"experimental",29,19,"hd","upper","manage","w","w","g","g",1,0.641007258673199,NA,NA,NA
"experimental",29,20,"hd","upper","medium","w","w","g","g",1,1.56479480897542,NA,NA,NA
"experimental",29,21,"hd","upper","teliever","nw","nw","h","h",1,0.668860768550076,NA,NA,NA
"experimental",29,22,"hd","upper","valif","nw","nw","h","h",1,0.648210330284201,NA,NA,NA
"experimental",29,23,"hd","upper","caloric","w","w","g","g",1,0.709036341169849,NA,NA,NA
"experimental",29,24,"hd","upper","lancos","nw","nw","h","h",1,0.623051061178558,NA,NA,NA
"experimental",29,25,"hd","upper","ifkling","nw","nw","h","h",1,0.556482986896299,NA,NA,NA
"experimental",29,26,"hd","upper","tining","nw","nw","h","h",1,0.90851808548905,NA,NA,NA
"experimental",29,27,"hd","upper","dabble","w","w","g","h",0,0.47058709547855,NA,NA,NA
"experimental",29,28,"hd","upper","terming","w","w","g","h",0,1.23404480831232,NA,NA,NA
"experimental",29,29,"hd","upper","series","w","w","g","g",1,0.429828841239214,NA,NA,NA
"experimental",29,30,"hd","upper","jaguar","target","target","q","g",0,0.538720464799553,1,1,NA
"experimental",30,1,"hd","upper","sweeping","w","w","g","g",1,2.01290915498976,NA,NA,NA
"experimental",30,2,"hd","upper","resonant","w","w","g","g",1,0.55496139312163,NA,NA,NA
"experimental",30,3,"hd","upper","tibs","nw","nw","h","h",1,3.28203593031503,NA,NA,NA
"experimental",30,4,"hd","upper","robbery","w","w","g","g",1,0.541670290869661,NA,NA,NA
"experimental",30,5,"hd","upper","inverted","w","w","g","g",1,0.534040471306071,NA,NA,NA
"experimental",30,6,"hd","upper","image","w","w","g","g",1,0.478850912651978,NA,NA,NA
"experimental",30,7,"hd","upper","farochial","nw","nw","h","h",1,0.688808678183705,NA,NA,NA
"experimental",30,8,"hd","upper","threaded","w","w","g","g",1,0.740783886401914,NA,NA,NA
"experimental",30,9,"hd","upper","icepick","w","w","g","h",0,0.565584408934228,NA,NA,NA
"experimental",30,10,"hd","upper","trewl","nw","nw","h","h",1,0.541716640582308,NA,NA,NA
"experimental",30,11,"hd","upper","ralliep","nw","nw","h","h",1,0.494513794197701,NA,NA,NA
"experimental",30,12,"hd","upper","carony","nw","nw","h","h",1,0.728286356898025,NA,NA,NA
"experimental",30,13,"hd","upper","birn","nw","nw","h","h",1,0.529692871146835,NA,NA,NA
"experimental",30,14,"hd","upper","plashed","nw","nw","h","g",0,0.77111081383191,NA,NA,NA
"experimental",30,15,"hd","upper","sequence","w","w","g","g",1,0.57851530786138,NA,NA,NA
"experimental",30,16,"hd","upper","reforest","w","w","g","h",0,7.73023635428399,NA,NA,NA
"experimental",30,17,"hd","upper","mestowal","nw","nw","h","h",1,0.794633608078584,NA,NA,NA
"experimental",30,18,"hd","upper","rascaps","nw","nw","h","h",1,0.577342329896055,NA,NA,NA
"experimental",30,19,"hd","upper","bumbo","nw","nw","h","h",1,0.480832361616194,NA,NA,NA
"experimental",30,20,"hd","upper","serving","w","w","g","g",1,1.03616643184796,NA,NA,NA
"experimental",30,21,"hd","upper","decantel","nw","nw","h","h",1,2.52901285514235,NA,NA,NA
"experimental",30,22,"hd","upper","advantage","w","w","g","g",1,1.05851227522362,NA,NA,NA
"experimental",30,23,"hd","upper","graciap","nw","nw","h","h",1,0.735588418086991,NA,NA,NA
"experimental",30,24,"hd","upper","worps","nw","nw","h","h",1,0.582278239773586,NA,NA,NA
"experimental",30,25,"hd","upper","oppose","w","w","g","h",0,0.469583624973893,NA,NA,NA
"experimental",30,26,"hd","upper","cessation","w","w","g","h",0,0.592936680070125,NA,NA,NA
"experimental",30,27,"hd","upper","culer","nw","nw","h","h",1,1.09568008454517,NA,NA,NA
"experimental",30,28,"hd","upper","irregular","w","w","g","g",1,0.546365182497539,NA,NA,NA
"experimental",30,29,"hd","upper","kangaroo","target","target","q","g",0,0.562535593053326,1,1,NA
"experimental",30,30,"hd","upper","castaway","aftertar1","w","g","g",1,1.71469861688092,NA,NA,NA
"experimental",31,1,"ld","lower","sustain","w","w","g","g",1,1.45287522708531,NA,NA,NA
"experimental",31,2,"ld","lower","blassed","nw","nw","h","h",1,1.69680466037244,NA,NA,NA
"experimental",31,3,"ld","lower","mennel","nw","nw","h","h",1,0.555593404104002,NA,NA,NA
"experimental",31,4,"ld","lower","amplifier","w","w","g","h",0,0.499690391472541,NA,NA,NA
"experimental",31,5,"ld","lower","atch","nw","nw","h","h",1,0.742432941799052,NA,NA,NA
"experimental",31,6,"ld","lower","ebciting","nw","nw","h","h",1,0.639133407385089,NA,NA,NA
"experimental",31,7,"ld","lower","pigned","nw","nw","h","h",1,0.87484073813539,NA,NA,NA
"experimental",31,8,"ld","lower","unwose","nw","nw","h","h",1,0.798183662700467,NA,NA,NA
"experimental",31,9,"ld","lower","eggays","nw","nw","h","h",1,0.701095647527836,NA,NA,NA
"experimental",31,10,"ld","lower","burrowing","w","w","g","g",1,0.791054750559852,NA,NA,NA
"experimental",31,11,"ld","lower","booster","w","w","g","g",1,0.638049487024546,NA,NA,NA
"experimental",31,12,"ld","lower","gonesty","nw","nw","h","h",1,0.730551201035269,NA,NA,NA
"experimental",31,13,"ld","lower","encrusted","w","w","g","h",0,0.69993491913192,NA,NA,NA
"experimental",31,14,"ld","lower","moyeur","nw","nw","h","h",1,0.510603423928842,NA,NA,NA
"experimental",31,15,"ld","lower","sonnet","w","w","g","h",0,0.48872869182378,NA,NA,NA
"experimental",31,16,"ld","lower","achieve","w","w","g","g",1,0.443326861597598,NA,NA,NA
"experimental",31,17,"ld","lower","courier","w","w","g","g",1,0.591034687822685,NA,NA,NA
"experimental",31,18,"ld","lower","decency","w","w","g","g",1,0.57376810722053,NA,NA,NA
"experimental",31,19,"ld","lower","collision","w","w","g","g",1,0.573251970577985,NA,NA,NA
"experimental",31,20,"ld","lower","phambled","nw","nw","h","h",1,0.75671625812538,NA,NA,NA
"experimental",31,21,"ld","lower","ufionize","nw","nw","h","h",1,0.76436660415493,NA,NA,NA
"experimental",31,22,"ld","lower","perishing","w","w","g","g",1,0.97220618929714,NA,NA,NA
"experimental",31,23,"ld","lower","obviously","w","w","g","g",1,0.668444283539429,NA,NA,NA
"experimental",31,24,"ld","lower","halter","w","w","g","g",1,2.09494047611952,NA,NA,NA
"experimental",31,25,"ld","lower","ladybug","target","target","q","q",1,0.832857197034173,1,NA,NA
"experimental",31,26,"ld","lower","presence","aftertar1","w","g","g",1,0.686202170792967,NA,NA,NA
"experimental",31,27,"ld","lower","shillac","aftertar2","nw","h","h",1,0.728980940068141,NA,NA,NA
"experimental",31,28,"ld","lower","arrow","aftertar3","w","g","g",1,0.546406235080212,NA,NA,NA
"experimental",31,29,"ld","lower","neliefs","w","nw","h","h",1,0.747091746889055,NA,NA,NA
"experimental",31,30,"ld","lower","plogging","nw","nw","h","h",1,0.731822506641038,NA,NA,NA
"experimental",32,1,"hd","upper","kilotin","nw","nw","h","h",1,0.773100208374672,NA,NA,NA
"experimental",32,2,"hd","upper","withep","nw","nw","h","h",1,0.652609908138402,NA,NA,NA
"experimental",32,3,"hd","upper","embrace","w","w","g","g",1,1.32012609823141,NA,NA,NA
"experimental",32,4,"hd","upper","downtrund","nw","nw","h","h",1,1.24960108555388,NA,NA,NA
"experimental",32,5,"hd","upper","sodent","nw","nw","h","h",1,0.574248157558031,NA,NA,NA
"experimental",32,6,"hd","upper","oppose","w","w","g","h",0,0.309632199350744,NA,NA,NA
"experimental",32,7,"hd","upper","impirt","nw","nw","h","h",1,0.143234857590869,NA,NA,NA
"experimental",32,8,"hd","upper","gerby","nw","nw","h","h",1,0.0960042013321072,NA,NA,NA
"experimental",32,9,"hd","upper","tasher","nw","nw","h","h",1,0.169340984430164,NA,NA,NA
"experimental",32,10,"hd","upper","ounwit","nw","nw","h","h",1,0.256059251492843,NA,NA,NA
"experimental",32,11,"hd","upper","joadbed","nw","nw","h","h",1,0.0441660556243733,NA,NA,NA
"experimental",32,12,"hd","upper","mantos","nw","nw","h","h",1,1.81730389932636,NA,NA,NA
"experimental",32,13,"hd","upper","bamps","nw","nw","h","h",1,0.198935586842708,NA,NA,NA
"experimental",32,14,"hd","upper","module","w","w","g","g",1,0.773606744129211,NA,NA,NA
"experimental",32,15,"hd","upper","hubris","w","w","g","h",0,0.548813107889146,NA,NA,NA
"experimental",32,16,"hd","upper","cemoir","nw","nw","h","h",1,0.525883920607157,NA,NA,NA
"experimental",32,17,"hd","upper","handbook","w","w","g","g",1,0.671295782201923,NA,NA,NA
"experimental",32,18,"hd","upper","dialect","w","w","g","g",1,0.817740248516202,NA,NA,NA
"experimental",32,19,"hd","upper","gorilla","target","target","q","q",1,0.854410129715689,1,NA,NA
"experimental",32,20,"hd","upper","potatoes","aftertar1","w","g","g",1,0.762485469225794,NA,NA,NA
"experimental",32,21,"hd","upper","seldom","aftertar2","w","g","h",0,0.546570114325732,NA,NA,NA
"experimental",32,22,"hd","upper","harmful","aftertar3","w","g","g",1,0.539318044553511,NA,NA,NA
"experimental",32,23,"hd","upper","forgery","w","w","g","g",1,0.683981027803384,NA,NA,NA
"experimental",32,24,"hd","upper","igiom","w","nw","h","h",1,0.790112858870998,NA,NA,NA
"experimental",32,25,"hd","upper","fomes","nw","nw","h","h",1,1.2448790462222,NA,NA,NA
"experimental",32,26,"hd","upper","warmer","nw","w","g","g",1,0.609649713034742,NA,NA,NA
"experimental",32,27,"hd","upper","computer","w","w","g","g",1,0.518658667453565,NA,NA,NA
"experimental",32,28,"hd","upper","showdown","w","w","g","g",1,0.583403543918394,NA,NA,NA
"experimental",32,29,"hd","upper","eyesight","w","w","g","g",1,0.454843102139421,NA,NA,NA
"experimental",32,30,"hd","upper","tharcely","w","nw","h","h",1,0.722919726045802,NA,NA,NA
"experimental",33,1,"hd","upper","filny","nw","nw","h","h",1,1.18076684291009,NA,NA,NA
"experimental",33,2,"hd","upper","slowning","nw","nw","h","g",0,1.33954396622721,NA,NA,NA
"experimental",33,3,"hd","upper","troven","nw","nw","h","h",1,0.700306047685444,NA,NA,NA
"experimental",33,4,"hd","upper","urgent","w","w","g","h",0,0.0230253039626405,NA,NA,NA
"experimental",33,5,"hd","upper","emission","w","w","g","g",1,0.556407503201626,NA,NA,NA
"experimental",33,6,"hd","upper","superstar","w","w","g","g",1,0.62852462742012,NA,NA,NA
"experimental",33,7,"hd","upper","pastnoss","nw","nw","h","h",1,0.817948159878142,NA,NA,NA
"experimental",33,8,"hd","upper","veranpah","nw","nw","h","h",1,0.615219289320521,NA,NA,NA
"experimental",33,9,"hd","upper","peems","nw","nw","h","h",1,0.493971171905287,NA,NA,NA
"experimental",33,10,"hd","upper","huffle","nw","nw","h","h",1,0.576765938429162,NA,NA,NA
"experimental",33,11,"hd","upper","professor","w","w","g","g",1,0.791212670505047,NA,NA,NA
"experimental",33,12,"hd","upper","goblet","w","w","g","h",0,0.806016427697614,NA,NA,NA
"experimental",33,13,"hd","upper","maintain","w","w","g","g",1,0.748066414496861,NA,NA,NA
"experimental",33,14,"hd","upper","gettle","nw","nw","h","g",0,0.484713154146448,NA,NA,NA
"experimental",33,15,"hd","upper","telecast","w","w","g","g",1,1.56687094364315,NA,NA,NA
"experimental",33,16,"hd","upper","single","w","w","g","g",1,1.08694383176044,NA,NA,NA
"experimental",33,17,"hd","upper","intersect","w","w","g","g",1,0.601607381133363,NA,NA,NA
"experimental",33,18,"hd","upper","befin","nw","nw","h","h",1,0.655694148386829,NA,NA,NA
"experimental",33,19,"hd","upper","grested","nw","nw","h","h",1,0.618795167189091,NA,NA,NA
"experimental",33,20,"hd","upper","wrestle","w","w","g","g",1,0.624160142848268,NA,NA,NA
"experimental",33,21,"hd","upper","parent","w","w","g","g",1,0.861645977129228,NA,NA,NA
"experimental",33,22,"hd","upper","frowsed","nw","nw","h","h",1,0.801701603340916,NA,NA,NA
"experimental",33,23,"hd","upper","prison","w","w","g","g",1,0.807074524695054,NA,NA,NA
"experimental",33,24,"hd","upper","ottans","nw","nw","h","h",1,0.709151222137734,NA,NA,NA
"experimental",33,25,"hd","upper","system","w","w","g","g",1,0.567235450842418,NA,NA,NA
"experimental",33,26,"hd","upper","brudent","nw","nw","h","h",1,0.662652228726074,NA,NA,NA
"experimental",33,27,"hd","upper","committed","w","w","g","g",1,0.522644740063697,NA,NA,NA
"experimental",33,28,"hd","upper","walsams","nw","nw","h","h",1,0.532098088529892,NA,NA,NA
"experimental",33,29,"hd","upper","metebing","nw","nw","h","h",1,0.556355194188654,NA,NA,NA
"experimental",33,30,"hd","upper","column","w","w","g","h",0,0.452417358290404,NA,NA,NA
"experimental",34,1,"ld","lower","gepealed","nw","nw","h","h",1,1.4160447770264,NA,NA,NA
"experimental",34,2,"ld","lower","tycoon","w","w","g","g",1,1.06296912813559,NA,NA,NA
"experimental",34,3,"ld","lower","serfume","nw","nw","h","h",1,0.73796814319212,NA,NA,NA
"experimental",34,4,"ld","lower","punctual","w","w","g","h",0,0.666745236725546,NA,NA,NA
"experimental",34,5,"ld","lower","stalemate","w","w","g","g",1,0.702826477005146,NA,NA,NA
"experimental",34,6,"ld","lower","bickering","w","w","g","g",1,0.7131492132321,NA,NA,NA
"experimental",34,7,"ld","lower","stranded","w","w","g","g",1,0.730945173301734,NA,NA,NA
"experimental",34,8,"ld","lower","halents","nw","nw","h","h",1,0.685336424969137,NA,NA,NA
"experimental",34,9,"ld","lower","aggepting","nw","nw","h","h",1,0.839115728158504,NA,NA,NA
"experimental",34,10,"ld","lower","miurnal","nw","nw","h","h",1,0.739873777260073,NA,NA,NA
"experimental",34,11,"ld","lower","teamwork","w","w","g","g",1,0.844565788516775,NA,NA,NA
"experimental",34,12,"ld","lower","surfaced","w","w","g","g",1,0.744349170010537,NA,NA,NA
"experimental",34,13,"ld","lower","midday","w","w","g","g",1,0.881080067483708,NA,NA,NA
"experimental",34,14,"ld","lower","mubby","nw","nw","h","h",1,0.86050411965698,NA,NA,NA
"experimental",34,15,"ld","lower","uncarled","nw","nw","h","h",1,0.856587571674027,NA,NA,NA
"experimental",34,16,"ld","lower","breiled","nw","nw","h","h",1,0.676701810327359,NA,NA,NA
"experimental",34,17,"ld","lower","ephically","nw","nw","h","h",1,0.736080055939965,NA,NA,NA
"experimental",34,18,"ld","lower","outfit","w","w","g","g",1,0.576172662433237,NA,NA,NA
"experimental",34,19,"ld","lower","condensed","w","w","g","g",1,0.7355662365444,NA,NA,NA
"experimental",34,20,"ld","lower","arcients","nw","nw","h","h",1,0.998432163032703,NA,NA,NA
"experimental",34,21,"ld","lower","alarm","w","w","g","g",1,0.845319301937707,NA,NA,NA
"experimental",34,22,"ld","lower","fivalve","nw","nw","h","h",1,0.834036134183407,NA,NA,NA
"experimental",34,23,"ld","lower","urique","nw","nw","h","h",1,0.71085391077213,NA,NA,NA
"experimental",34,24,"ld","lower","culinary","w","w","g","g",1,0.848867038963363,NA,NA,NA
"experimental",34,25,"ld","lower","insertion","w","w","g","g",1,1.37362587999087,NA,NA,NA
"experimental",34,26,"ld","lower","gallon","w","w","g","g",1,0.628596138441935,NA,NA,NA
"experimental",34,27,"ld","lower","rumblos","nw","nw","h","h",1,0.793075596680865,NA,NA,NA
"experimental",34,28,"ld","lower","slightly","w","w","g","g",1,0.712211625417694,NA,NA,NA
"experimental",34,29,"ld","lower","gontracts","nw","nw","h","h",1,0.810307083884254,NA,NA,NA
"experimental",34,30,"ld","lower","rebool","nw","nw","h","h",1,0.848271776572801,NA,NA,NA
"experimental",35,1,"ld","lower","tinion","nw","nw","h","h",1,0.79025157680735,NA,NA,NA
"experimental",35,2,"ld","lower","female","w","w","g","g",1,2.72402119310573,NA,NA,NA
"experimental",35,3,"ld","lower","atsless","nw","nw","h","h",1,1.02143021288794,NA,NA,NA
"experimental",35,4,"ld","lower","elvisages","nw","nw","h","h",1,0.674813060788438,NA,NA,NA
"experimental",35,5,"ld","lower","etcess","nw","nw","h","h",1,0.550195652642287,NA,NA,NA
"experimental",35,6,"ld","lower","knowledge","w","w","g","g",1,0.622937173349783,NA,NA,NA
"experimental",35,7,"ld","lower","calming","w","w","g","g",1,0.485349138034508,NA,NA,NA
"experimental",35,8,"ld","lower","unbridled","w","w","g","g",1,0.702399066882208,NA,NA,NA
"experimental",35,9,"ld","lower","welayed","nw","nw","h","h",1,0.751828353269957,NA,NA,NA
"experimental",35,10,"ld","lower","thorifies","nw","nw","h","h",1,0.775893438840285,NA,NA,NA
"experimental",35,11,"ld","lower","pallir","nw","nw","h","h",1,0.542700247024186,NA,NA,NA
"experimental",35,12,"ld","lower","artifact","w","w","g","g",1,0.719051182968542,NA,NA,NA
"experimental",35,13,"ld","lower","elderly","w","w","g","g",1,0.544413529918529,NA,NA,NA
"experimental",35,14,"ld","lower","finish","w","w","g","g",1,0.593173394561745,NA,NA,NA
"experimental",35,15,"ld","lower","epic","w","w","g","g",1,0.527972304727882,NA,NA,NA
"experimental",35,16,"ld","lower","acorn","w","w","g","g",1,0.721270008361898,NA,NA,NA
"experimental",35,17,"ld","lower","potter","w","w","g","g",1,0.57870799000375,NA,NA,NA
"experimental",35,18,"ld","lower","harder","w","w","g","g",1,0.546142704086378,NA,NA,NA
"experimental",35,19,"ld","lower","imotope","nw","nw","h","h",1,0.762549034436233,NA,NA,NA
"experimental",35,20,"ld","lower","golemic","nw","nw","h","h",1,0.785899672773667,NA,NA,NA
"experimental",35,21,"ld","lower","felevance","nw","nw","h","h",1,0.68071569269523,NA,NA,NA
"experimental",35,22,"ld","lower","nomma","nw","nw","h","h",1,0.756118347402662,NA,NA,NA
"experimental",35,23,"ld","lower","fisco","nw","nw","h","h",1,0.652211300912313,NA,NA,NA
"experimental",35,24,"ld","lower","gaioty","nw","nw","h","h",1,0.688288899604231,NA,NA,NA
"experimental",35,25,"ld","lower","acoustic","w","w","g","g",1,1.95542164542712,NA,NA,NA
"experimental",35,26,"ld","lower","drine","nw","nw","h","h",1,0.619134181994013,NA,NA,NA
"experimental",35,27,"ld","lower","airmen","w","w","g","h",0,0.471838536905125,NA,NA,NA
"experimental",35,28,"ld","lower","hasks","nw","nw","h","h",1,0.826382146566175,NA,NA,NA
"experimental",35,29,"ld","lower","dishwater","w","w","g","h",0,0.287611465901136,NA,NA,NA
"experimental",35,30,"ld","lower","acidic","w","w","g","h",0,0.170406695920974,NA,NA,NA
"experimental",36,1,"ld","lower","lanthers","nw","nw","h","g",0,4.41096187243238,NA,NA,NA
"experimental",36,2,"ld","lower","misest","nw","nw","h","h",1,0.73602973332163,NA,NA,NA
"experimental",36,3,"ld","lower","antonym","w","w","g","g",1,0.880133540718816,NA,NA,NA
"experimental",36,4,"ld","lower","epthuse","nw","nw","h","h",1,0.931512162438594,NA,NA,NA
"experimental",36,5,"ld","lower","flieves","nw","nw","h","h",1,0.74892156617716,NA,NA,NA
"experimental",36,6,"ld","lower","opert","nw","nw","h","h",1,0.549654023488984,NA,NA,NA
"experimental",36,7,"ld","lower","ements","nw","nw","h","h",1,0.470249073929153,NA,NA,NA
"experimental",36,8,"ld","lower","misobeyed","nw","nw","h","g",0,0.84974337904714,NA,NA,NA
"experimental",36,9,"ld","lower","elpired","nw","nw","h","h",1,0.646525188349187,NA,NA,NA
"experimental",36,10,"ld","lower","burning","w","w","g","g",1,0.618794505135156,NA,NA,NA
"experimental",36,11,"ld","lower","stooping","w","w","g","h",0,0.671672869939357,NA,NA,NA
"experimental",36,12,"ld","lower","companion","w","w","g","g",1,0.562988826772198,NA,NA,NA
"experimental",36,13,"ld","lower","coster","nw","nw","h","h",1,0.627298016333953,NA,NA,NA
"experimental",36,14,"ld","lower","poughest","nw","nw","h","g",0,0.600394012639299,NA,NA,NA
"experimental",36,15,"ld","lower","thesis","w","w","g","g",1,0.791370259481482,NA,NA,NA
"experimental",36,16,"ld","lower","entertain","w","w","g","g",1,0.477641185978428,NA,NA,NA
"experimental",36,17,"ld","lower","caution","w","w","g","g",1,0.497076931525953,NA,NA,NA
"experimental",36,18,"ld","lower","extend","w","w","g","g",1,0.60370503528975,NA,NA,NA
"experimental",36,19,"ld","lower","metrol","nw","nw","h","h",1,0.60168120963499,NA,NA,NA
"experimental",36,20,"ld","lower","forbid","w","w","g","g",1,0.566243236535229,NA,NA,NA
"experimental",36,21,"ld","lower","overflow","w","w","g","g",1,0.718143722508103,NA,NA,NA
"experimental",36,22,"ld","lower","fravity","nw","nw","h","h",1,0.799632421229035,NA,NA,NA
"experimental",36,23,"ld","lower","addition","w","w","g","g",1,0.678411451401189,NA,NA,NA
"experimental",36,24,"ld","lower","atabaster","nw","nw","h","h",1,0.561800950672477,NA,NA,NA
"experimental",36,25,"ld","lower","colored","w","w","g","g",1,0.529783253092319,NA,NA,NA
"experimental",36,26,"ld","lower","tusied","nw","nw","h","h",1,0.731426878832281,NA,NA,NA
"experimental",36,27,"ld","lower","ordinary","w","w","g","g",1,0.548662140383385,NA,NA,NA
"experimental",36,28,"ld","lower","anonymous","w","w","g","g",1,0.877374410512857,NA,NA,NA
"experimental",36,29,"ld","lower","smallash","nw","nw","h","h",1,0.759792883880436,NA,NA,NA
"experimental",36,30,"ld","lower","sampling","w","w","g","g",1,0.959838439011946,NA,NA,NA
"experimental",37,1,"ld","lower","antwers","nw","nw","h","h",1,1.11280794709455,NA,NA,NA
"experimental",37,2,"ld","lower","cheathe","nw","nw","h","h",1,0.538521161070094,NA,NA,NA
"experimental",37,3,"ld","lower","strenuous","w","w","g","h",0,0.843458362272941,NA,NA,NA
"experimental",37,4,"ld","lower","fassed","nw","nw","h","h",1,0.89543986087665,NA,NA,NA
"experimental",37,5,"ld","lower","unspoken","w","w","g","g",1,0.818091843975708,NA,NA,NA
"experimental",37,6,"ld","lower","earnest","w","w","g","g",1,0.567711859242991,NA,NA,NA
"experimental",37,7,"ld","lower","fuack","nw","nw","h","h",1,0.630309752305038,NA,NA,NA
"experimental",37,8,"ld","lower","submit","w","w","g","g",1,0.459711142932065,NA,NA,NA
"experimental",37,9,"ld","lower","apticle","nw","nw","h","h",1,0.575751873664558,NA,NA,NA
