"procedure","block","trial","PMdemand","context","stim","role","word_type","correct_key","response","correct","reaction_time","pressedQ","pressedQ_blank","pressedQ_fix"
"LDTpractice",1,1,NA,"upper","revival","","w","g","g",1,0.77152349438984,NA,NA,NA
"LDTpractice",2,1,NA,"upper","reputable","","w","g","g",1,0.704680543334689,NA,NA,NA
"LDTpractice",3,1,NA,"upper","grocus","","nw","h","h",1,0.681049671838991,NA,NA,NA
"LDTpractice",4,1,NA,"upper","raestro","","nw","h","h",1,0.670641454402357,NA,NA,NA
"LDTpractice",5,1,NA,"upper","hiring","","w","g","g",1,0.480935319850687,NA,NA,NA
"LDTpractice",6,1,NA,"upper","infinity","","w","g","g",1,0.508929048024584,NA,NA,NA
"LDTpractice",7,1,NA,"upper","tricycle","","w","g","h",0,0.519716342038009,NA,NA,NA
"LDTpractice",8,1,NA,"upper","latador","","nw","h","h",1,0.681044374709018,NA,NA,NA
"LDTpractice",9,1,NA,"upper","trotch","","nw","h","h",1,0.643585651065223,NA,NA,NA
"LDTpractice",10,1,NA,"upper","umpire","","w","g","g",1,0.552262961806264,NA,NA,NA
"LDTpractice",11,1,NA,"upper","lumbigo","","nw","h","g",0,0.504375825345051,NA,NA,NA
"LDTpractice",12,1,NA,"upper","picture","","w","g","g",1,0.538487087818794,NA,NA,NA
"LDTpractice",13,1,NA,"upper","lurshing","","nw","h","h",1,0.579306184547022,NA,NA,NA
"LDTpractice",14,1,NA,"upper","julled","","nw","h","h",1,0.786042954423465,NA,NA,NA
"LDTpractice",1,2,NA,"lower","sponsor","","w","g","g",1,0.577403187111486,NA,NA,NA
"LDTpractice",2,2,NA,"lower","unscrew","","w","g","g",1,0.504816481145099,NA,NA,NA
"LDTpractice",3,2,NA,"lower","treeps","","nw","h","g",0,0.514945936622098,NA,NA,NA
"LDTpractice",4,2,NA,"lower","alolition","","nw","h","g",0,0.916128787910566,NA,NA,NA
"LDTpractice",5,2,NA,"lower","grimace","","w","g","h",0,0.558185495145153,NA,NA,NA
"LDTpractice",6,2,NA,"lower","overshoot","","w","g","g",1,0.678338529542089,NA,NA,NA
"LDTpractice",7,2,NA,"lower","busted","","w","g","g",1,0.521770308027044,NA,NA,NA
"LDTpractice",8,2,NA,"lower","crinklo","","nw","h","h",1,0.627205570635851,NA,NA,NA
"LDTpractice",9,2,NA,"lower","hasking","","nw","h","g",0,0.888699205126613,NA,NA,NA
"LDTpractice",10,2,NA,"lower","slumber","","w","g","g",1,0.586519895703532,NA,NA,NA
"LDTpractice",11,2,NA,"lower","turative","","nw","h","h",1,0.777274532767478,NA,NA,NA
"LDTpractice",12,2,NA,"lower","summary","","w","g","g",1,0.592665239877533,NA,NA,NA
"LDTpractice",13,2,NA,"lower","curlecs","","nw","h","h",1,0.823353689280339,NA,NA,NA
"LDTpractice",14,2,NA,"lower","grutch","","nw","h","g",0,0.580808916885871,NA,NA,NA
"experimental",1,1,"hd","upper","welayed","nw","nw","h","h",1,0.751414558733813,NA,NA,NA
"experimental",1,2,"hd","upper","moral","w","w","g","g",1,0.568110017513391,NA,NA,NA
"experimental",1,3,"hd","upper","surfaced","w","w","g","g",1,0.615277074102778,NA,NA,NA
"experimental",1,4,"hd","upper","telecast","w","w","g","h",0,0.541881892248057,NA,NA,NA
"experimental",1,5,"hd","upper","result","w","w","g","g",1,0.431366341537796,NA,NA,NA
"experimental",1,6,"hd","upper","addition","w","w","g","g",1,0.517484259791672,NA,NA,NA
"experimental",1,7,"hd","upper","earnest","w","w","g","h",0,0.679474766016938,NA,NA,NA
"experimental",1,8,"hd","upper","guitar","w","w","g","g",1,0.555544870963786,NA,NA,NA
"experimental",1,9,"hd","upper","preserve","w","w","g","g",1,0.548303349874914,NA,NA,NA
"experimental",1,10,"hd","upper","gettle","nw","nw","h","h",1,0.477729557082057,NA,NA,NA
"experimental",1,11,"hd","upper","potter","w","w","g","g",1,0.465808344131801,NA,NA,NA
"experimental",1,12,"hd","upper","pleamed","nw","nw","h","h",1,0.63047191943042,NA,NA,NA
"experimental",1,13,"hd","upper","sprea","nw","nw","h","h",1,0.787569192820229,NA,NA,NA
"experimental",1,14,"hd","upper","octopus","target","target","q","g",0,0.602922157791909,1,1,NA
"experimental",1,15,"hd","upper","exploit","aftertar1","w","g","g",1,0.713670120574534,NA,NA,NA
"experimental",1,16,"hd","upper","fivalve","aftertar2","nw","h","h",1,0.740439216198865,NA,NA,NA
"experimental",1,17,"hd","upper","tiery","aftertar3","nw","h","h",1,0.693835311860312,NA,NA,NA
"experimental",1,18,"hd","upper","tusied","nw","nw","h","h",1,0.592616241367068,NA,NA,NA
"experimental",1,19,"hd","upper","subpoena","nw","w","g","g",1,0.847943011962343,NA,NA,NA
"experimental",1,20,"hd","upper","duries","w","nw","h","h",1,0.493450143549126,NA,NA,NA
"experimental",1,21,"hd","upper","curtail","nw","w","g","h",0,0.648725200851914,NA,NA,NA
"experimental",1,22,"hd","upper","vented","w","w","g","g",1,0.598131557053421,NA,NA,NA
"experimental",1,23,"hd","upper","buzzer","w","w","g","h",0,0.513722959498409,NA,NA,NA
"experimental",1,24,"hd","upper","ronvince","w","nw","h","h",1,0.742334267939441,NA,NA,NA
"experimental",1,25,"hd","upper","sength","nw","nw","h","h",1,0.560034196940251,NA,NA,NA
"experimental",1,26,"hd","upper","rillains","nw","nw","h","h",1,0.504744969774038,NA,NA,NA
"experimental",1,27,"hd","upper","wrecber","nw","nw","h","h",1,0.555464751785621,NA,NA,NA
"experimental",1,28,"hd","upper","rejoiced","nw","w","g","g",1,0.500262927438598,NA,NA,NA
"experimental",1,29,"hd","upper","gensions","w","nw","h","h",1,0.527696814155206,NA,NA,NA
"experimental",1,30,"hd","upper","rangel","nw","nw","h","h",1,0.649830978771206,NA,NA,NA
"experimental",2,1,"hd","upper","tuckel","nw","nw","h","h",1,0.590491757262498,NA,NA,NA
"experimental",2,2,"hd","upper","border","w","w","g","g",1,0.43790897121653,NA,NA,NA
"experimental",2,3,"hd","upper","cogantly","nw","nw","h","h",1,0.459373643563595,NA,NA,NA
"experimental",2,4,"hd","upper","mitro","nw","nw","h","h",1,0.57610770536121,NA,NA,NA
"experimental",2,5,"hd","upper","acting","w","w","g","g",1,0.536169258120935,NA,NA,NA
"experimental",2,6,"hd","upper","phambled","nw","nw","h","h",1,0.545487589028198,NA,NA,NA
"experimental",2,7,"hd","upper","huntry","nw","nw","h","g",0,0.506892297824379,NA,NA,NA
"experimental",2,8,"hd","upper","defeat","w","w","g","g",1,0.580598024476785,NA,NA,NA
"experimental",2,9,"hd","upper","permute","w","w","g","h",0,0.97273071249947,NA,NA,NA
"experimental",2,10,"hd","upper","rualify","nw","nw","h","h",1,0.780787529656664,NA,NA,NA
"experimental",2,11,"hd","upper","dorth","nw","nw","h","h",1,0.476858508656733,NA,NA,NA
"experimental",2,12,"hd","upper","hardest","w","w","g","g",1,0.88896339997882,NA,NA,NA
"experimental",2,13,"hd","upper","frequency","w","w","g","g",1,0.578147766296752,NA,NA,NA
"experimental",2,14,"hd","upper","pypecast","nw","nw","h","h",1,0.644387836626265,NA,NA,NA
"experimental",2,15,"hd","upper","guffy","nw","nw","h","h",1,0.697848888463341,NA,NA,NA
"experimental",2,16,"hd","upper","daylight","w","w","g","g",1,0.645153935474809,NA,NA,NA
"experimental",2,17,"hd","upper","shests","nw","nw","h","h",1,0.529553792730439,NA,NA,NA
"experimental",2,18,"hd","upper","casino","w","w","g","g",1,0.5934111434035,NA,NA,NA
"experimental",2,19,"hd","upper","saturate","w","w","g","h",0,0.851111694704741,NA,NA,NA
"experimental",2,20,"hd","upper","giraffe","target","target","q","q",1,0.792520032031462,1,NA,NA
"experimental",2,21,"hd","upper","arrow","aftertar1","w","g","g",1,0.695943573489785,NA,NA,NA
"experimental",2,22,"hd","upper","lawsuit","aftertar2","w","g","g",1,0.563289951474871,NA,NA,NA
"experimental",2,23,"hd","upper","rowel","aftertar3","nw","h","h",1,0.64417760638753,NA,NA,NA
"experimental",2,24,"hd","upper","duplex","nw","w","g","h",0,0.641532016161364,NA,NA,NA
"experimental",2,25,"hd","upper","buttress","w","w","g","h",0,0.694948042277247,NA,NA,NA
"experimental",2,26,"hd","upper","splinging","w","nw","h","h",1,0.665359875012655,NA,NA,NA
"experimental",2,27,"hd","upper","dislokes","nw","nw","h","h",1,0.574067644425668,NA,NA,NA
"experimental",2,28,"hd","upper","ralliep","nw","nw","h","h",1,0.51814110513078,NA,NA,NA
"experimental",2,29,"hd","upper","supplier","nw","w","g","g",1,0.864244959491771,NA,NA,NA
"experimental",2,30,"hd","upper","advantage","w","w","g","g",1,0.652964236971457,NA,NA,NA
"experimental",3,1,"hd","upper","ulcer","w","w","g","q",0,0.992804885783698,NA,NA,NA
"experimental",3,2,"hd","upper","carnival","w","w","g","g",1,0.608203406154644,NA,NA,NA
"experimental",3,3,"hd","upper","cutout","w","w","g","g",1,0.678924856707454,NA,NA,NA
"experimental",3,4,"hd","upper","togglo","nw","nw","h","h",1,0.626987063675188,NA,NA,NA
"experimental",3,5,"hd","upper","exemplify","w","w","g","g",1,1.16112812247593,NA,NA,NA
"experimental",3,6,"hd","upper","bullet","w","w","g","g",1,0.553741194948088,NA,NA,NA
"experimental",3,7,"hd","upper","bother","w","w","g","g",1,0.530562566767912,NA,NA,NA
"experimental",3,8,"hd","upper","urique","nw","nw","h","g",0,0.564517894643359,NA,NA,NA
"experimental",3,9,"hd","upper","shimble","nw","nw","h","h",1,0.549360129283741,NA,NA,NA
"experimental",3,10,"hd","upper","newstrint","nw","nw","h","h",1,0.558680777729023,NA,NA,NA
"experimental",3,11,"hd","upper","ensues","w","w","g","h",0,0.39042474841699,NA,NA,NA
"experimental",3,12,"hd","upper","gepealed","nw","nw","h","h",1,0.50958291371353,NA,NA,NA
"experimental",3,13,"hd","upper","dests","nw","nw","h","h",1,0.416214866447262,NA,NA,NA
"experimental",3,14,"hd","upper","undertake","w","w","g","g",1,0.623337996483315,NA,NA,NA
"experimental",3,15,"hd","upper","rabbit","target","target","q","q",1,0.757367219484877,1,NA,NA
"experimental",3,16,"hd","upper","vergas","aftertar1","nw","h","h",1,0.566213641490322,NA,NA,NA
"experimental",3,17,"hd","upper","theles","aftertar2","nw","h","h",1,0.606900309736375,NA,NA,NA
"experimental",3,18,"hd","upper","minister","aftertar3","w","g","g",1,0.637668414856307,NA,NA,NA
"experimental",3,19,"hd","upper","volition","w","w","g","h",0,0.691059610631783,NA,NA,NA
"experimental",3,20,"hd","upper","mosary","w","nw","h","h",1,0.67749959503999,NA,NA,NA
"experimental",3,21,"hd","upper","slightly","nw","w","g","g",1,0.601581650378648,NA,NA,NA
"experimental",3,22,"hd","upper","goltish","w","nw","h","h",1,0.584320920519531,NA,NA,NA
"experimental",3,23,"hd","upper","sengry","nw","nw","h","h",1,0.599732948583551,NA,NA,NA
"experimental",3,24,"hd","upper","unversed","nw","w","g","g",1,0.88710277969949,NA,NA,NA
"experimental",3,25,"hd","upper","susher","w","nw","h","h",1,0.674538824998308,NA,NA,NA
"experimental",3,26,"hd","upper","fuhrek","nw","nw","h","h",1,0.454593306058086,NA,NA,NA
"experimental",3,27,"hd","upper","unrealon","nw","nw","h","h",1,0.539329332998022,NA,NA,NA
"experimental",3,28,"hd","upper","midday","nw","w","g","h",0,0.516754578799009,NA,NA,NA
"experimental",3,29,"hd","upper","begut","w","nw","h","h",1,0.567431983654387,NA,NA,NA
"experimental",3,30,"hd","upper","describe","nw","w","g","g",1,0.494516524020582,NA,NA,NA
"experimental",4,1,"ld","lower","gymnasium","w","w","g","g",1,0.562143451767042,NA,NA,NA
"experimental",4,2,"ld","lower","filter","w","w","g","g",1,0.538974755734671,NA,NA,NA
"experimental",4,3,"ld","lower","stranded","w","w","g","g",1,0.524333130451851,NA,NA,NA
"experimental",4,4,"ld","lower","nomma","nw","nw","h","h",1,0.55839009716874,NA,NA,NA
"experimental",4,5,"ld","lower","lifetime","w","w","g","g",1,0.486220541060902,NA,NA,NA
"experimental",4,6,"ld","lower","micron","w","w","g","h",0,0.649637964263093,NA,NA,NA
"experimental",4,7,"ld","lower","drobate","nw","nw","h","h",1,0.646949996880721,NA,NA,NA
"experimental",4,8,"ld","lower","runabouk","nw","nw","h","h",1,0.515571661293507,NA,NA,NA
"experimental",4,9,"ld","lower","sorping","nw","nw","h","h",1,0.559041645377874,NA,NA,NA
"experimental",4,10,"ld","lower","natch","nw","nw","h","h",1,0.559863695234526,NA,NA,NA
"experimental",4,11,"ld","lower","crimb","nw","nw","h","h",1,0.720569976139814,NA,NA,NA
"experimental",4,12,"ld","lower","triplet","w","w","g","h",0,0.642679177981336,NA,NA,NA
"experimental",4,13,"ld","lower","ludictous","nw","nw","h","h",1,0.592084540927317,NA,NA,NA
"experimental",4,14,"ld","lower","student","w","w","g","g",1,0.567471050075255,NA,NA,NA
"experimental",4,15,"ld","lower","potent","w","w","g","g",1,0.678530881938059,NA,NA,NA
"experimental",4,16,"ld","lower","mebase","nw","nw","h","h",1,0.594626174832229,NA,NA,NA
"experimental",4,17,"ld","lower","populace","w","w","g","g",1,0.770028376660775,NA,NA,NA
"experimental",4,18,"ld","lower","pived","nw","nw","h","h",1,0.562121932161972,NA,NA,NA
"experimental",4,19,"ld","lower","curricula","w","w","g","h",0,0.81884946511127,NA,NA,NA
"experimental",4,20,"ld","lower","entitle","w","w","g","g",1,0.896940892445855,NA,NA,NA
"experimental",4,21,"ld","lower","topefuls","nw","nw","h","h",1,0.604398404422682,NA,NA,NA
"experimental",4,22,"ld","lower","mopping","w","w","g","g",1,0.739086128131021,NA,NA,NA
"experimental",4,23,"ld","lower","elderly","w","w","g","g",1,0.644498414418194,NA,NA,NA
"experimental",4,24,"ld","lower","crudios","nw","nw","h","h",1,0.712906339205801,NA,NA,NA
"experimental",4,25,"ld","lower","detrabe","nw","nw","h","h",1,0.635661461041309,NA,NA,NA
"experimental",4,26,"ld","lower","rocket","w","w","g","g",1,0.641060570720583,NA,NA,NA
"experimental",4,27,"ld","lower","valif","nw","nw","h","h",1,0.582522872602567,NA,NA,NA
"experimental",4,28,"ld","lower","halents","nw","nw","h","h",1,0.598535794997588,NA,NA,NA
"experimental",4,29,"ld","lower","brials","nw","nw","h","h",1,0.629923334461637,NA,NA,NA
"experimental",4,30,"ld","lower","failure","w","w","g","g",1,0.579954090935644,NA,NA,NA
"experimental",5,1,"ld","lower","hasks","nw","nw","h","h",1,0.6192595299799,NA,NA,NA
"experimental",5,2,"ld","lower","butled","nw","nw","h","h",1,0.481938134646043,NA,NA,NA
"experimental",5,3,"ld","lower","fallacy","w","w","g","h",0,0.501949073222931,NA,NA,NA
"experimental",5,4,"ld","lower","leather","w","w","g","g",1,0.520668833982199,NA,NA,NA
"experimental",5,5,"ld","lower","measure","w","w","g","g",1,0.53078306018142,NA,NA,NA
"experimental",5,6,"ld","lower","imprives","nw","nw","h","h",1,0.660816915566102,NA,NA,NA
"experimental",5,7,"ld","lower","grefab","nw","nw","h","h",1,0.713621784176212,NA,NA,NA
"experimental",5,8,"ld","lower","naxis","nw","nw","h","h",1,0.611432343837805,NA,NA,NA
"experimental",5,9,"ld","lower","thaken","nw","nw","h","h",1,0.562075913243461,NA,NA,NA
"experimental",5,10,"ld","lower","revising","w","w","g","g",1,0.554850945656653,NA,NA,NA
"experimental",5,11,"ld","lower","doads","nw","nw","h","h",1,0.499616014247295,NA,NA,NA
"experimental",5,12,"ld","lower","wienegs","nw","nw","h","h",1,0.494969098363072,NA,NA,NA
"experimental",5,13,"ld","lower","decantel","nw","nw","h","h",1,0.578418582561426,NA,NA,NA
"experimental",5,14,"ld","lower","noils","nw","nw","h","h",1,0.490423490351532,NA,NA,NA
"experimental",5,15,"ld","lower","rawhide","w","w","g","h",0,0.445820249442477,NA,NA,NA
"experimental",5,16,"ld","lower","posing","w","w","g","h",0,0.867241816362366,NA,NA,NA
"experimental",5,17,"ld","lower","deceit","w","w","g","g",1,0.743353636353277,NA,NA,NA
"experimental",5,18,"ld","lower","joadbed","nw","nw","h","h",1,0.551753112173174,NA,NA,NA
"experimental",5,19,"ld","lower","sunshine","w","w","g","g",1,0.416537329845596,NA,NA,NA
"experimental",5,20,"ld","lower","peanimate","nw","nw","h","h",1,0.879229243553709,NA,NA,NA
"experimental",5,21,"ld","lower","threaded","w","w","g","h",0,0.539314434863627,NA,NA,NA
"experimental",5,22,"ld","lower","ireology","nw","nw","h","h",1,0.644663950020913,NA,NA,NA
"experimental",5,23,"ld","lower","epic","w","w","g","g",1,0.58603288984159,NA,NA,NA
"experimental",5,24,"ld","lower","army","w","w","g","g",1,0.38542921456974,NA,NA,NA
"experimental",5,25,"ld","lower","arpired","nw","nw","h","h",1,0.664799040358048,NA,NA,NA
"experimental",5,26,"ld","lower","oppose","w","w","g","g",1,0.557535602303687,NA,NA,NA
"experimental",5,27,"ld","lower","infusion","w","w","g","g",1,0.550304675474763,NA,NA,NA
"experimental",5,28,"ld","lower","rander","nw","nw","h","h",1,0.590709602111019,NA,NA,NA
"experimental",5,29,"ld","lower","inside","w","w","g","g",1,0.494045409664977,NA,NA,NA
"experimental",5,30,"ld","lower","asthmatic","w","w","g","g",1,0.753477794642095,NA,NA,NA
"experimental",6,1,"ld","lower","formation","w","w","g","h",0,0.738501787360292,NA,NA,NA
"experimental",6,2,"ld","lower","issue","w","w","g","g",1,0.683955815155059,NA,NA,NA
"experimental",6,3,"ld","lower","sequence","w","w","g","g",1,0.486442358756904,NA,NA,NA
"experimental",6,4,"ld","lower","capobly","nw","nw","h","h",1,0.545817667036317,NA,NA,NA
"experimental",6,5,"ld","lower","grenavier","nw","nw","h","h",1,0.595206211612094,NA,NA,NA
"experimental",6,6,"ld","lower","smabled","nw","nw","h","h",1,0.458591653383337,NA,NA,NA
"experimental",6,7,"ld","lower","poars","nw","nw","h","h",1,0.559348879440222,NA,NA,NA
"experimental",6,8,"ld","lower","nelvet","nw","nw","h","h",1,0.46410398936132,NA,NA,NA
"experimental",6,9,"ld","lower","destroy","w","w","g","g",1,0.54079399217153,NA,NA,NA
"experimental",6,10,"ld","lower","euphoric","w","w","g","g",1,0.638290828792378,NA,NA,NA
"experimental",6,11,"ld","lower","eyesight","w","w","g","g",1,0.443587173940614,NA,NA,NA
"experimental",6,12,"ld","lower","amidst","w","w","g","h",0,0.624083237897139,NA,NA,NA
"experimental",6,13,"ld","lower","massacre","w","w","g","g",1,0.526111314014997,NA,NA,NA
"experimental",6,14,"ld","lower","frunted","nw","nw","h","h",1,0.680194845946971,NA,NA,NA
"experimental",6,15,"ld","lower","bamps","nw","nw","h","h",1,0.484332110674586,NA,NA,NA
"experimental",6,16,"ld","lower","recipus","nw","nw","h","h",1,0.839679474011064,NA,NA,NA
"experimental",6,17,"ld","lower","irregular","w","w","g","g",1,0.581043315294664,NA,NA,NA
"experimental",6,18,"ld","lower","cherry","w","w","g","g",1,0.52510353323305,NA,NA,NA
"experimental",6,19,"ld","lower","pranny","nw","nw","h","h",1,0.647264183498919,NA,NA,NA
"experimental",6,20,"ld","lower","mogus","nw","nw","h","h",1,0.844566747546196,NA,NA,NA
"experimental",6,21,"ld","lower","quittint","nw","nw","h","h",1,0.569866350444499,NA,NA,NA
"experimental",6,22,"ld","lower","rational","w","w","g","g",1,0.633226101053879,NA,NA,NA
"experimental",6,23,"ld","lower","cemoir","nw","nw","h","h",1,0.639013557287399,NA,NA,NA
"experimental",6,24,"ld","lower","arrigns","nw","nw","h","h",1,0.788463416218292,NA,NA,NA
"experimental",6,25,"ld","lower","arrival","w","w","g","g",1,0.539838851662353,NA,NA,NA
"experimental",6,26,"ld","lower","elephant","target","target","q","g",0,0.532444706710521,1,1,NA
"experimental",6,27,"ld","lower","tibs","aftertar1","nw","h","h",1,0.83930470130872,NA,NA,NA
"experimental",6,28,"ld","lower","hangar","aftertar2","w","g","g",1,0.780737537890673,NA,NA,NA
"experimental",6,29,"ld","lower","affluent","aftertar3","w","g","g",1,1.15685233753175,NA,NA,NA
"experimental",6,30,"ld","lower","ciping","w","nw","h","h",1,0.565734581439756,NA,NA,NA
"experimental",7,1,"hd","upper","jungle","w","w","g","g",1,0.685657190217171,NA,NA,NA
"experimental",7,2,"hd","upper","volder","nw","nw","h","h",1,0.657081438810565,NA,NA,NA
"experimental",7,3,"hd","upper","fuestion","nw","nw","h","h",1,0.821828775166068,NA,NA,NA
"experimental",7,4,"hd","upper","attract","w","w","g","g",1,0.62787036166992,NA,NA,NA
"experimental",7,5,"hd","upper","swatches","w","w","g","h",0,0.7299316774006,NA,NA,NA
"experimental",7,6,"hd","upper","phonology","w","w","g","h",0,0.539088644261938,NA,NA,NA
"experimental",7,7,"hd","upper","latirizes","nw","nw","h","h",1,0.428373457572889,NA,NA,NA
"experimental",7,8,"hd","upper","crundle","nw","nw","h","h",1,0.36246776918415,NA,NA,NA
"experimental",7,9,"hd","upper","markot","nw","nw","h","h",1,0.499340231879614,NA,NA,NA
"experimental",7,10,"hd","upper","alomalous","nw","nw","h","h",1,0.334648184420075,NA,NA,NA
"experimental",7,11,"hd","upper","reprint","w","w","g","h",0,0.344001939985901,NA,NA,NA
"experimental",7,12,"hd","upper","vinegar","w","w","g","g",1,0.729408915969543,NA,NA,NA
"experimental",7,13,"hd","upper","bluads","nw","nw","h","h",1,0.467654397303704,NA,NA,NA
"experimental",7,14,"hd","upper","baladroit","nw","nw","h","h",1,0.351537783397362,NA,NA,NA
"experimental",7,15,"hd","upper","maroon","w","w","g","h",0,0.376290986430831,NA,NA,NA
"experimental",7,16,"hd","upper","imotope","nw","nw","h","h",1,0.704297162825242,NA,NA,NA
"experimental",7,17,"hd","upper","gunrunker","nw","nw","h","h",1,0.626060726353899,NA,NA,NA
"experimental",7,18,"hd","upper","compose","w","w","g","g",1,0.560038500872906,NA,NA,NA
"experimental",7,19,"hd","upper","puggers","nw","nw","h","h",1,0.60871193150524,NA,NA,NA
"experimental",7,20,"hd","upper","kickoff","w","w","g","g",1,0.527520353149157,NA,NA,NA
"experimental",7,21,"hd","upper","explosion","w","w","g","g",1,0.504816150118131,NA,NA,NA
"experimental",7,22,"hd","upper","abhorrent","w","w","g","h",0,0.572322567924857,NA,NA,NA
"experimental",7,23,"hd","upper","greft","nw","nw","h","h",1,0.468402618309483,NA,NA,NA
"experimental",7,24,"hd","upper","committed","w","w","g","h",0,0.488500959705561,NA,NA,NA
"experimental",7,25,"hd","upper","peems","nw","nw","h","h",1,0.771856220962945,NA,NA,NA
"experimental",7,26,"hd","upper","knowledge","w","w","g","g",1,0.611142987618223,NA,NA,NA
"experimental",7,27,"hd","upper","bickering","w","w","g","g",1,0.705739971308503,NA,NA,NA
"experimental",7,28,"hd","upper","frogmy","nw","nw","h","h",1,0.556496038625482,NA,NA,NA
"experimental",7,29,"hd","upper","mubby","nw","nw","h","h",1,0.669268833065871,NA,NA,NA
"experimental",7,30,"hd","upper","vaporize","w","w","g","g",1,0.729317540302873,NA,NA,NA
"experimental",8,1,"hd","upper","nature","w","w","g","g",1,0.602754635736346,NA,NA,NA
"experimental",8,2,"hd","upper","neuran","nw","nw","h","h",1,0.625453872722574,NA,NA,NA
"experimental",8,3,"hd","upper","medium","w","w","g","g",1,0.791508609429002,NA,NA,NA
"experimental",8,4,"hd","upper","athcan","nw","nw","h","h",1,0.534909200971015,NA,NA,NA
"experimental",8,5,"hd","upper","shurk","nw","nw","h","h",1,0.600302722188644,NA,NA,NA
"experimental",8,6,"hd","upper","overwork","w","w","g","g",1,0.543736553343479,NA,NA,NA
"experimental",8,7,"hd","upper","listless","w","w","g","g",1,0.633230404986534,NA,NA,NA
"experimental",8,8,"hd","upper","nores","nw","nw","h","h",1,0.671222815522924,NA,NA,NA
"experimental",8,9,"hd","upper","unstatle","nw","nw","h","h",1,0.779343728034291,NA,NA,NA
"experimental",8,10,"hd","upper","traze","nw","nw","h","g",0,0.50725316547323,NA,NA,NA
"experimental",8,11,"hd","upper","baseline","w","w","g","h",0,0.652377909747884,NA,NA,NA
"experimental",8,12,"hd","upper","lasprey","nw","nw","h","h",1,0.593120462843217,NA,NA,NA
"experimental",8,13,"hd","upper","volume","w","w","g","g",1,0.735807860735804,NA,NA,NA
"experimental",8,14,"hd","upper","dolphin","target","target","q","g",0,0.521165440848563,1,1,NA
"experimental",8,15,"hd","upper","omission","aftertar1","w","g","g",1,0.898588633979671,NA,NA,NA
"experimental",8,16,"hd","upper","parlayid","aftertar2","nw","h","h",1,0.676941740035545,NA,NA,NA
"experimental",8,17,"hd","upper","resume","aftertar3","w","g","g",1,0.552808898326475,NA,NA,NA
"experimental",8,18,"hd","upper","causality","w","w","g","g",1,0.481463378469925,NA,NA,NA
"experimental",8,19,"hd","upper","ifkling","w","nw","h","h",1,0.580912211094983,NA,NA,NA
"experimental",8,20,"hd","upper","egcused","nw","nw","h","h",1,0.643340989365242,NA,NA,NA
"experimental",8,21,"hd","upper","reforest","nw","w","g","h",0,0.720076680008788,NA,NA,NA
"experimental",8,22,"hd","upper","lenie","w","nw","h","h",1,0.465503427491058,NA,NA,NA
"experimental",8,23,"hd","upper","dominion","nw","w","g","g",1,0.765599967853632,NA,NA,NA
"experimental",8,24,"hd","upper","venturous","w","w","g","h",0,0.685654210567009,NA,NA,NA
"experimental",8,25,"hd","upper","rascaps","w","nw","h","h",1,1.00904558511684,NA,NA,NA
"experimental",8,26,"hd","upper","postal","nw","w","g","h",0,0.49515118758427,NA,NA,NA
"experimental",8,27,"hd","upper","roodies","w","nw","h","h",1,0.921924520982429,NA,NA,NA
"experimental",8,28,"hd","upper","pariah","nw","w","g","g",1,1.02733594650635,NA,NA,NA
"experimental",8,29,"hd","upper","leuter","w","nw","h","h",1,0.743750259687658,NA,NA,NA
"experimental",8,30,"hd","upper","ronic","nw","nw","h","h",1,0.44047709077131,NA,NA,NA
"experimental",9,1,"ld","lower","deadly","w","w","g","g",1,0.686287549848203,NA,NA,NA
"experimental",9,2,"ld","lower","yellep","nw","nw","h","h",1,1.25697887293063,NA,NA,NA
"experimental",9,3,"ld","lower","strenuous","w","w","g","h",0,0.892049977148417,NA,NA,NA
"experimental",9,4,"ld","lower","blanned","nw","nw","h","h",1,0.710556726669893,NA,NA,NA
"experimental",9,5,"ld","lower","finish","w","w","g","g",1,0.608717890805565,NA,NA,NA
"experimental",9,6,"ld","lower","trake","nw","nw","h","g",0,0.846733939775731,NA,NA,NA
"experimental",9,7,"ld","lower","showdown","w","w","g","g",1,0.659461840987206,NA,NA,NA
"experimental",9,8,"ld","lower","solidity","w","w","g","g",1,0.823579810908996,NA,NA,NA
"experimental",9,9,"ld","lower","fomes","nw","nw","h","h",1,0.556918816582765,NA,NA,NA
"experimental",9,10,"ld","lower","number","w","w","g","g",1,0.612779141636565,NA,NA,NA
"experimental",9,11,"ld","lower","mandate","w","w","g","g",1,0.810885546612553,NA,NA,NA
"experimental",9,12,"ld","lower","warmer","w","w","g","g",1,0.600981087132823,NA,NA,NA
"experimental",9,13,"ld","lower","rodeo","w","w","g","h",0,0.7107199447928,NA,NA,NA
"experimental",9,14,"ld","lower","chight","nw","nw","h","h",1,0.760843798518181,NA,NA,NA
"experimental",9,15,"ld","lower","subber","nw","nw","h","h",1,1.00100254057907,NA,NA,NA
"experimental",9,16,"ld","lower","pallir","nw","nw","h","h",1,0.551667364721652,NA,NA,NA
"experimental",9,17,"ld","lower","govern","w","w","g","g",1,0.840430012496654,NA,NA,NA
"experimental",9,18,"ld","lower","regional","w","w","g","g",1,0.581156210566405,NA,NA,NA
"experimental",9,19,"ld","lower","computer","w","w","g","g",1,0.476529092818964,NA,NA,NA
"experimental",9,20,"ld","lower","trembles","w","w","g","g",1,0.751967116608284,NA,NA,NA
"experimental",9,21,"ld","lower","robbery","w","w","g","g",1,0.464703890495002,NA,NA,NA
"experimental",9,22,"ld","lower","eightiech","nw","nw","h","h",1,0.651734307350125,NA,NA,NA
"experimental",9,23,"ld","lower","soluced","nw","nw","h","h",1,0.480498305812944,NA,NA,NA
"experimental",9,24,"ld","lower","graciap","nw","nw","h","h",1,0.467865951824933,NA,NA,NA
"experimental",9,25,"ld","lower","gerby","nw","nw","h","h",1,0.383966872934252,NA,NA,NA
"experimental",9,26,"ld","lower","offonents","nw","nw","h","h",1,0.479394514346495,NA,NA,NA
"experimental",9,27,"ld","lower","even","w","w","g","g",1,0.51474928035168,NA,NA,NA
"experimental",9,28,"ld","lower","apticle","nw","nw","h","h",1,0.66089504834963,NA,NA,NA
"experimental",9,29,"ld","lower","tharcely","nw","nw","h","h",1,0.608950633904897,NA,NA,NA
"experimental",9,30,"ld","lower","chiffol","nw","nw","h","h",1,0.518999572843313,NA,NA,NA
"experimental",10,1,"ld","lower","undimmec","nw","nw","h","h",1,0.51227253646357,NA,NA,NA
"experimental",10,2,"ld","lower","absent","w","w","g","g",1,0.578208021295723,NA,NA,NA
"experimental",10,3,"ld","lower","gund","nw","nw","h","h",1,0.521733228000812,NA,NA,NA
"experimental",10,4,"ld","lower","chrayed","nw","nw","h","h",1,0.523119423305616,NA,NA,NA
"experimental",10,5,"ld","lower","oppose","w","w","g","g",1,0.668551401700824,NA,NA,NA
"experimental",10,6,"ld","lower","oginous","nw","nw","h","h",1,0.520752595039085,NA,NA,NA
"experimental",10,7,"ld","lower","foster","w","w","g","h",0,0.48909192183055,NA,NA,NA
"experimental",10,8,"ld","lower","ghists","nw","nw","h","h",1,0.443827862734906,NA,NA,NA
"experimental",10,9,"ld","lower","prominent","w","w","g","g",1,0.840622033749241,NA,NA,NA
"experimental",10,10,"ld","lower","forgery","w","w","g","g",1,0.861374571919441,NA,NA,NA
"experimental",10,11,"ld","lower","levels","w","w","g","g",1,0.729430104489438,NA,NA,NA
"experimental",10,12,"ld","lower","fracture","w","w","g","g",1,0.562761892855633,NA,NA,NA
"experimental",10,13,"ld","lower","rationale","w","w","g","g",1,0.530835700570606,NA,NA,NA
"experimental",10,14,"ld","lower","boutique","w","w","g","g",1,0.500268555653747,NA,NA,NA
"experimental",10,15,"ld","lower","lovud","nw","nw","h","h",1,0.494950558408163,NA,NA,NA
"experimental",10,16,"ld","lower","allained","nw","nw","h","h",1,0.74474976368947,NA,NA,NA
"experimental",10,17,"ld","lower","cayward","nw","nw","h","h",1,0.62545254844008,NA,NA,NA
"experimental",10,18,"ld","lower","mounting","w","w","g","g",1,0.662853665824514,NA,NA,NA
"experimental",10,19,"ld","lower","arranged","w","w","g","g",1,0.634917543968186,NA,NA,NA
"experimental",10,20,"ld","lower","sarlock","nw","nw","h","h",1,0.600614591268823,NA,NA,NA
"experimental",10,21,"ld","lower","gelfry","nw","nw","h","h",1,0.575088337005582,NA,NA,NA
"experimental",10,22,"ld","lower","podges","nw","nw","h","h",1,0.558497695368715,NA,NA,NA
"experimental",10,23,"ld","lower","dentures","w","w","g","g",1,0.614552690240089,NA,NA,NA
"experimental",10,24,"ld","lower","labitable","nw","nw","h","h",1,0.708621615311131,NA,NA,NA
"experimental",10,25,"ld","lower","removable","w","w","g","g",1,0.598709607380442,NA,NA,NA
"experimental",10,26,"ld","lower","yearnungs","nw","nw","h","h",1,0.524358291819226,NA,NA,NA
"experimental",10,27,"ld","lower","ilcurring","nw","nw","h","h",1,0.50173122837441,NA,NA,NA
"experimental",10,28,"ld","lower","downtrund","nw","nw","h","h",1,0.704417672764976,NA,NA,NA
"experimental",10,29,"ld","lower","kettle","w","w","g","h",0,0.514469856163487,NA,NA,NA
"experimental",10,30,"ld","lower","glassware","w","w","g","g",1,0.684554722975008,NA,NA,NA
"experimental",11,1,"hd","upper","tablet","w","w","g","g",1,0.648041869862936,NA,NA,NA
"experimental",11,2,"hd","upper","unwose","nw","nw","h","h",1,0.556479816150386,NA,NA,NA
"experimental",11,3,"hd","upper","agony","w","w","g","h",0,0.476520153868478,NA,NA,NA
"experimental",11,4,"hd","upper","impirt","nw","nw","h","h",1,0.495932184625417,NA,NA,NA
"experimental",11,5,"hd","upper","emotion","w","w","g","h",0,0.426522107212804,NA,NA,NA
"experimental",11,6,"hd","upper","truthful","w","w","g","g",1,0.575800802267622,NA,NA,NA
"experimental",11,7,"hd","upper","handbook","w","w","g","g",1,0.463293195993174,NA,NA,NA
"experimental",11,8,"hd","upper","splatter","w","w","g","g",1,0.643377076135948,NA,NA,NA
"experimental",11,9,"hd","upper","slears","nw","nw","h","h",1,0.711950867611449,NA,NA,NA
"experimental",11,10,"hd","upper","achieve","w","w","g","g",1,0.616984739492182,NA,NA,NA
"experimental",11,11,"hd","upper","orange","w","w","g","g",1,0.558887035120279,NA,NA,NA
"experimental",11,12,"hd","upper","porcupine","target","target","q","g",0,0.854692230117507,1,1,NA
"experimental",11,13,"hd","upper","cooray","aftertar1","nw","h","h",1,0.834470730274916,NA,NA,NA
"experimental",11,14,"hd","upper","graveyard","aftertar2","w","g","g",1,0.671938260435127,NA,NA,NA
"experimental",11,15,"hd","upper","tenpince","aftertar3","nw","h","h",1,0.635424082982354,NA,NA,NA
"experimental",11,16,"hd","upper","dredigest","nw","nw","h","h",1,0.856720041483641,NA,NA,NA
"experimental",11,17,"hd","upper","obviously","nw","w","g","g",1,0.540785384306218,NA,NA,NA
"experimental",11,18,"hd","upper","pretzel","w","w","g","g",1,0.669459199008998,NA,NA,NA
"experimental",11,19,"hd","upper","addma","w","nw","h","h",1,0.696966583607718,NA,NA,NA
"experimental",11,20,"hd","upper","clypaper","nw","nw","h","h",1,1.01058572850889,NA,NA,NA
"experimental",11,21,"hd","upper","amplifier","nw","w","g","h",0,0.408693921228405,NA,NA,NA
"experimental",11,22,"hd","upper","illness","w","w","g","g",1,0.662763945525512,NA,NA,NA
"experimental",11,23,"hd","upper","thrapping","w","nw","h","h",1,0.633698539691977,NA,NA,NA
"experimental",11,24,"hd","upper","chining","nw","nw","h","h",1,0.800070442608558,NA,NA,NA
"experimental",11,25,"hd","upper","mennel","nw","nw","h","h",1,0.470953191106673,NA,NA,NA
"experimental",11,26,"hd","upper","seeming","nw","w","g","g",1,0.666410364035983,NA,NA,NA
"experimental",11,27,"hd","upper","nostril","w","w","g","g",1,0.686472618719563,NA,NA,NA
"experimental",11,28,"hd","upper","amms","w","nw","h","h",1,0.520341735624243,NA,NA,NA
"experimental",11,29,"hd","upper","chesume","nw","nw","h","h",1,0.649837931268848,NA,NA,NA
"experimental",11,30,"hd","upper","harfing","nw","nw","h","h",1,0.518423177825753,NA,NA,NA
"experimental",12,1,"hd","upper","ahead","w","w","g","g",1,0.600789065822028,NA,NA,NA
"experimental",12,2,"hd","upper","ottans","nw","nw","h","h",1,0.823580141994171,NA,NA,NA
"experimental",12,3,"hd","upper","inversion","w","w","g","g",1,0.876983256370295,NA,NA,NA
"experimental",12,4,"hd","upper","louches","nw","nw","h","h",1,0.623388319334481,NA,NA,NA
"experimental",12,5,"hd","upper","despise","w","w","g","h",0,0.540739365387708,NA,NA,NA
"experimental",12,6,"hd","upper","moisture","w","w","g","g",1,0.525459434778895,NA,NA,NA
"experimental",12,7,"hd","upper","endgume","nw","nw","h","h",1,0.814886211359408,NA,NA,NA
"experimental",12,8,"hd","upper","hemoter","nw","nw","h","h",1,0.548939999891445,NA,NA,NA
"experimental",12,9,"hd","upper","lancos","nw","nw","h","h",1,0.48569844168378,NA,NA,NA
"experimental",12,10,"hd","upper","comment","w","w","g","g",1,0.64912215527147,NA,NA,NA
"experimental",12,11,"hd","upper","redefloy","nw","nw","h","h",1,0.509840487153269,NA,NA,NA
"experimental",12,12,"hd","upper","elbalm","nw","nw","h","h",1,0.511912662012037,NA,NA,NA
"experimental",12,13,"hd","upper","olgies","nw","nw","h","h",1,0.513943452970125,NA,NA,NA
"experimental",12,14,"hd","upper","scack","nw","nw","h","h",1,0.546976747456938,NA,NA,NA
"experimental",12,15,"hd","upper","hatred","w","w","g","g",1,0.699719440890476,NA,NA,NA
"experimental",12,16,"hd","upper","maintain","w","w","g","g",1,0.598398731497582,NA,NA,NA
"experimental",12,17,"hd","upper","serving","w","w","g","g",1,0.525235299544875,NA,NA,NA
"experimental",12,18,"hd","upper","mestowal","nw","nw","h","h",1,0.517709719308186,NA,NA,NA
"experimental",12,19,"hd","upper","remain","w","w","g","g",1,0.544639715633821,NA,NA,NA
"experimental",12,20,"hd","upper","prame","nw","nw","h","h",1,0.609437639650423,NA,NA,NA
"experimental",12,21,"hd","upper","clooped","nw","nw","h","h",1,0.559477666160092,NA,NA,NA
"experimental",12,22,"hd","upper","unamufed","nw","nw","h","h",1,0.559603473229799,NA,NA,NA
"experimental",12,23,"hd","upper","dehydrate","w","w","g","g",1,0.790743834862951,NA,NA,NA
"experimental",12,24,"hd","upper","humanize","w","w","g","g",1,0.629499563248828,NA,NA,NA
"experimental",12,25,"hd","upper","flamingo","target","target","q","g",0,0.642920528945979,1,1,NA
"experimental",12,26,"hd","upper","lonnote","aftertar1","nw","h","h",1,0.519456120033283,NA,NA,NA
"experimental",12,27,"hd","upper","living","aftertar2","w","g","g",1,0.880837587581482,NA,NA,NA
"experimental",12,28,"hd","upper","managed","aftertar3","w","g","g",1,0.868325743591413,NA,NA,NA
"experimental",12,29,"hd","upper","confined","w","w","g","g",1,1.21652196813375,NA,NA,NA
"experimental",12,30,"hd","upper","hinsome","w","nw","h","h",1,0.606516598141752,NA,NA,NA
"experimental",13,1,"hd","upper","brank","nw","nw","h","h",1,0.660394137608819,NA,NA,NA
"experimental",13,2,"hd","upper","ignoble","w","w","g","h",0,0.504422175348736,NA,NA,NA
"experimental",13,3,"hd","upper","staircase","w","w","g","g",1,0.482545319246128,NA,NA,NA
"experimental",13,4,"hd","upper","atsless","nw","nw","h","h",1,0.485880530904979,NA,NA,NA
"experimental",13,5,"hd","upper","usage","w","w","g","g",1,0.544924105808605,NA,NA,NA
"experimental",13,6,"hd","upper","airmen","w","w","g","g",1,0.625636293028947,NA,NA,NA
"experimental",13,7,"hd","upper","summon","w","w","g","h",0,0.478064932278358,NA,NA,NA
"experimental",13,8,"hd","upper","seartfelt","nw","nw","h","h",1,0.657372119370848,NA,NA,NA
"experimental",13,9,"hd","upper","nearsipe","nw","nw","h","h",1,0.501437568163965,NA,NA,NA
"experimental",13,10,"hd","upper","ordinary","w","w","g","g",1,0.575553823146038,NA,NA,NA
"experimental",13,11,"hd","upper","plymie","nw","nw","h","h",1,0.526992625673302,NA,NA,NA
"experimental",13,12,"hd","upper","trembla","nw","nw","h","h",1,0.520297372073401,NA,NA,NA
"experimental",13,13,"hd","upper","reconcile","w","w","g","g",1,0.681769420742057,NA,NA,NA
"experimental",13,14,"hd","upper","clume","nw","nw","h","h",1,0.437244842352811,NA,NA,NA
"experimental",13,15,"hd","upper","permeable","w","w","g","g",1,0.513938817952294,NA,NA,NA
"experimental",13,16,"hd","upper","monkey","target","target","q","q",1,0.899964897078462,1,NA,NA
"experimental",13,17,"hd","upper","olerates","aftertar1","nw","h","h",1,0.549890836467966,NA,NA,NA
"experimental",13,18,"hd","upper","ecistle","aftertar2","nw","h","h",1,0.670516640588176,NA,NA,NA
"experimental",13,19,"hd","upper","distrust","aftertar3","w","g","g",1,0.697918413381558,NA,NA,NA
"experimental",13,20,"hd","upper","tinker","w","w","g","h",0,0.684675895085093,NA,NA,NA
"experimental",13,21,"hd","upper","terming","w","w","g","h",0,0.679972034995444,NA,NA,NA
"experimental",13,22,"hd","upper","brighten","w","w","g","g",1,0.587405511178076,NA,NA,NA
"experimental",13,23,"hd","upper","daining","w","nw","h","h",1,0.658077301108278,NA,NA,NA
"experimental",13,24,"hd","upper","batire","nw","nw","h","h",1,0.590185516397469,NA,NA,NA
"experimental",13,25,"hd","upper","flieves","nw","nw","h","h",1,0.596736422856338,NA,NA,NA
"experimental",13,26,"hd","upper","efcorted","nw","nw","h","h",1,0.514664526097476,NA,NA,NA
"experimental",13,27,"hd","upper","fission","nw","w","g","h",0,0.372694559569936,NA,NA,NA
"experimental",13,28,"hd","upper","pexts","w","nw","h","h",1,0.452092062856536,NA,NA,NA
"experimental",13,29,"hd","upper","snorls","nw","nw","h","h",1,0.512159310106654,NA,NA,NA
"experimental",13,30,"hd","upper","cavern","nw","w","g","h",0,0.586286159406882,NA,NA,NA
"experimental",14,1,"ld","lower","antwers","nw","nw","h","h",1,0.497914308100007,NA,NA,NA
"experimental",14,2,"ld","lower","couple","w","w","g","g",1,0.651605520630255,NA,NA,NA
"experimental",14,3,"ld","lower","numbled","nw","nw","h","h",1,0.527701449173037,NA,NA,NA
"experimental",14,4,"ld","lower","colored","w","w","g","g",1,0.601016842876561,NA,NA,NA
"experimental",14,5,"ld","lower","parent","w","w","g","h",0,0.503286932071205,NA,NA,NA
"experimental",14,6,"ld","lower","ounside","nw","nw","h","h",1,0.688897715474013,NA,NA,NA
"experimental",14,7,"ld","lower","aqueduct","w","w","g","g",1,0.730395508173387,NA,NA,NA
"experimental",14,8,"ld","lower","coster","nw","nw","h","h",1,0.637437327124644,NA,NA,NA
"experimental",14,9,"ld","lower","airline","w","w","g","g",1,0.52214210096281,NA,NA,NA
"experimental",14,10,"ld","lower","noblest","w","w","g","g",1,0.899630846222863,NA,NA,NA
"experimental",14,11,"ld","lower","ausht","nw","nw","h","h",1,0.581488606112543,NA,NA,NA
"experimental",14,12,"ld","lower","troven","nw","nw","h","g",0,0.636795380036347,NA,NA,NA
"experimental",14,13,"ld","lower","buaint","nw","nw","h","h",1,0.545502487220801,NA,NA,NA
"experimental",14,14,"ld","lower","huzzles","nw","nw","h","h",1,0.626317968708463,NA,NA,NA
"experimental",14,15,"ld","lower","regards","w","w","g","g",1,0.695661169709638,NA,NA,NA
"experimental",14,16,"ld","lower","cervical","w","w","g","h",0,0.674391498265322,NA,NA,NA
"experimental",14,17,"ld","lower","flacked","nw","nw","h","h",1,0.661894552409649,NA,NA,NA
"experimental",14,18,"ld","lower","flicking","w","w","g","g",1,0.809889353287872,NA,NA,NA
"experimental",14,19,"ld","lower","require","w","w","g","g",1,0.463957986969035,NA,NA,NA
"experimental",14,20,"ld","lower","sooled","nw","nw","h","h",1,0.603128084097989,NA,NA,NA
"experimental",14,21,"ld","lower","legalize","w","w","g","g",1,0.545076729671564,NA,NA,NA
"experimental",14,22,"ld","lower","nimono","nw","nw","h","h",1,0.561833900108468,NA,NA,NA
"experimental",14,23,"ld","lower","galashes","nw","nw","h","h",1,0.721921408898197,NA,NA,NA
"experimental",14,24,"ld","lower","corduroy","w","w","g","h",0,0.9794044464943,NA,NA,NA
"experimental",14,25,"ld","lower","unspoken","w","w","g","g",1,0.610750006046146,NA,NA,NA
"experimental",14,26,"ld","lower","alber","nw","nw","h","h",1,0.512817810755223,NA,NA,NA
"experimental",14,27,"ld","lower","plashed","nw","nw","h","h",1,0.651017538097221,NA,NA,NA
"experimental",14,28,"ld","lower","sequence","w","w","g","g",1,0.551030714705121,NA,NA,NA
"experimental",14,29,"ld","lower","shockwave","w","w","g","g",1,0.710989105689805,NA,NA,NA
"experimental",14,30,"ld","lower","chonemic","nw","nw","h","h",1,0.632019346405286,NA,NA,NA
"experimental",15,1,"ld","lower","squadroim","nw","nw","h","h",1,0.493084309855476,NA,NA,NA
"experimental",15,2,"ld","lower","unbridled","w","w","g","h",0,0.417173648776952,NA,NA,NA
"experimental",15,3,"ld","lower","etuip","nw","nw","h","h",1,0.463246183877345,NA,NA,NA
"experimental",15,4,"ld","lower","hindsight","w","w","g","g",1,0.731272515899036,NA,NA,NA
"experimental",15,5,"ld","lower","sheerio","nw","nw","h","h",1,0.499950396188069,NA,NA,NA
"experimental",15,6,"ld","lower","caloric","w","w","g","h",0,0.606535138154868,NA,NA,NA
"experimental",15,7,"ld","lower","retreat","w","w","g","g",1,0.516620494949166,NA,NA,NA
"experimental",15,8,"ld","lower","elvisages","nw","nw","h","h",1,0.58269502967596,NA,NA,NA
"experimental",15,9,"ld","lower","century","w","w","g","g",1,0.590101093170233,NA,NA,NA
"experimental",15,10,"ld","lower","porghum","nw","nw","h","h",1,0.492672126158141,NA,NA,NA
"experimental",15,11,"ld","lower","planofoad","nw","nw","h","h",1,0.599504178331699,NA,NA,NA
"experimental",15,12,"ld","lower","hostade","nw","nw","h","h",1,0.486197697115131,NA,NA,NA
"experimental",15,13,"ld","lower","maximized","w","w","g","g",1,0.544948936149012,NA,NA,NA
"experimental",15,14,"ld","lower","donastic","nw","nw","h","h",1,0.625667082669679,NA,NA,NA
"experimental",15,15,"ld","lower","worps","nw","nw","h","h",1,0.630029939406086,NA,NA,NA
"experimental",15,16,"ld","lower","entropy","w","w","g","g",1,0.627467448008247,NA,NA,NA
"experimental",15,17,"ld","lower","resonant","w","w","g","h",0,0.488855205941945,NA,NA,NA
"experimental",15,18,"ld","lower","noblin","nw","nw","h","h",1,0.571621359034907,NA,NA,NA
"experimental",15,19,"ld","lower","outset","w","w","g","g",1,0.539009518222883,NA,NA,NA
"experimental",15,20,"ld","lower","provide","w","w","g","g",1,0.483896089892369,NA,NA,NA
"experimental",15,21,"ld","lower","frose","nw","nw","h","g",0,0.366503858589567,NA,NA,NA
"experimental",15,22,"ld","lower","monopoly","w","w","g","g",1,0.710543483844958,NA,NA,NA
"experimental",15,23,"ld","lower","ergonomic","w","w","g","h",0,0.96771763189463,NA,NA,NA
"experimental",15,24,"ld","lower","veclors","nw","nw","h","h",1,0.647023163677659,NA,NA,NA
"experimental",15,25,"ld","lower","smolvers","nw","nw","h","h",1,0.523683568637352,NA,NA,NA
"experimental",15,26,"ld","lower","persona","w","w","g","h",0,0.565097600396257,NA,NA,NA
"experimental",15,27,"ld","lower","plartly","nw","nw","h","h",1,0.629295623337384,NA,NA,NA
"experimental",15,28,"ld","lower","rewrite","w","w","g","g",1,0.570502338232473,NA,NA,NA
"experimental",15,29,"ld","lower","terrify","w","w","g","g",1,0.463653070386499,NA,NA,NA
"experimental",15,30,"ld","lower","dumult","nw","nw","h","h",1,0.558045452053193,NA,NA,NA
"experimental",16,1,"ld","lower","shamrock","w","w","g","g",1,0.73360093991505,NA,NA,NA
"experimental",16,2,"ld","lower","profats","nw","nw","h","h",1,0.551041971135419,NA,NA,NA
"experimental",16,3,"ld","lower","rumblos","nw","nw","h","h",1,0.462933652568609,NA,NA,NA
"experimental",16,4,"ld","lower","glating","nw","nw","h","h",1,0.411006784939673,NA,NA,NA
"experimental",16,5,"ld","lower","acorn","w","w","g","h",0,0.38515012152493,NA,NA,NA
"experimental",16,6,"ld","lower","jinds","nw","nw","h","h",1,0.439805678324774,NA,NA,NA
"experimental",16,7,"ld","lower","trophy","w","w","g","g",1,0.452546292624902,NA,NA,NA
"experimental",16,8,"ld","lower","lofty","w","w","g","g",1,0.529316745698452,NA,NA,NA
"experimental",16,9,"ld","lower","integral","w","w","g","g",1,0.466673102171626,NA,NA,NA
"experimental",16,10,"ld","lower","gaioty","nw","nw","h","h",1,0.461681872257032,NA,NA,NA
"experimental",16,11,"ld","lower","railroad","w","w","g","g",1,0.561729943787213,NA,NA,NA
"experimental",16,12,"ld","lower","surdens","nw","nw","h","h",1,0.505802411295008,NA,NA,NA
"experimental",16,13,"ld","lower","afford","w","w","g","h",0,0.419911607867107,NA,NA,NA
"experimental",16,14,"ld","lower","exclusion","w","w","g","g",1,0.681331082421821,NA,NA,NA
"experimental",16,15,"ld","lower","boulder","w","w","g","g",1,0.444696262595244,NA,NA,NA
"experimental",16,16,"ld","lower","butterfly","target","target","q","g",0,0.425436855701264,NA,NA,NA
"experimental",16,17,"ld","lower","paranoid","aftertar1","w","g","q",0,0.686064076784533,NA,NA,1
"experimental",16,18,"ld","lower","punctual","aftertar2","w","g","h",0,0.87360301904846,NA,NA,NA
"experimental",16,19,"ld","lower","sording","aftertar3","nw","h","h",1,0.652065047470387,NA,NA,NA
"experimental",16,20,"ld","lower","otoist","nw","nw","h","h",1,0.496065937390085,NA,NA,NA
"experimental",16,21,"ld","lower","reborn","nw","w","g","g",1,0.594761582964566,NA,NA,NA
"experimental",16,22,"ld","lower","ucility","w","nw","h","h",1,0.745572475716472,NA,NA,NA
"experimental",16,23,"ld","lower","incidonts","nw","nw","h","h",1,0.594207369722426,NA,NA,NA
"experimental",16,24,"ld","lower","erony","nw","nw","h","h",1,0.86498291726457,NA,NA,NA
"experimental",16,25,"ld","lower","balign","nw","nw","h","h",1,0.500220881367568,NA,NA,NA
"experimental",16,26,"ld","lower","gablus","nw","nw","h","h",1,0.535760716244113,NA,NA,NA
"experimental",16,27,"ld","lower","sefraud","nw","nw","h","h",1,0.504546658135951,NA,NA,NA
"experimental",16,28,"ld","lower","abstain","nw","w","g","g",1,0.890575385827105,NA,NA,NA
"experimental",16,29,"ld","lower","innocent","w","w","g","g",1,0.476325483992696,NA,NA,NA
"experimental",16,30,"ld","lower","rantho","w","nw","h","h",1,0.719789641269017,NA,NA,NA
"experimental",17,1,"hd","upper","dariner","nw","nw","h","h",1,0.666216025187168,NA,NA,NA
"experimental",17,2,"hd","upper","plapping","nw","nw","h","h",1,0.462290712224785,NA,NA,NA
"experimental",17,3,"hd","upper","regiment","w","w","g","g",1,0.553452169755474,NA,NA,NA
"experimental",17,4,"hd","upper","remade","w","w","g","g",1,0.673437682038639,NA,NA,NA
"experimental",17,5,"hd","upper","collision","w","w","g","g",1,0.692790451052133,NA,NA,NA
"experimental",17,6,"hd","upper","racile","nw","nw","h","h",1,0.599485969461966,NA,NA,NA
"experimental",17,7,"hd","upper","podes","nw","nw","h","h",1,0.630294465227053,NA,NA,NA
"experimental",17,8,"hd","upper","forgive","w","w","g","g",1,0.587639578559902,NA,NA,NA
"experimental",17,9,"hd","upper","ebciting","nw","nw","h","h",1,0.418375106295571,NA,NA,NA
"experimental",17,10,"hd","upper","apology","w","w","g","g",1,0.575793518743012,NA,NA,NA
"experimental",17,11,"hd","upper","chyme","nw","nw","h","g",0,0.503176685306244,NA,NA,NA
"experimental",17,12,"hd","upper","ufionize","nw","nw","h","h",1,0.48927070031641,NA,NA,NA
"experimental",17,13,"hd","upper","shillac","nw","nw","h","h",1,0.396123808634002,NA,NA,NA
"experimental",17,14,"hd","upper","expected","w","w","g","h",0,0.425700719468296,NA,NA,NA
"experimental",17,15,"hd","upper","rarren","nw","nw","h","h",1,0.519033342076,NA,NA,NA
"experimental",17,16,"hd","upper","scrobby","nw","nw","h","h",1,0.4164525756496,NA,NA,NA
"experimental",17,17,"hd","upper","binder","w","w","g","g",1,0.574438444222324,NA,NA,NA
"experimental",17,18,"hd","upper","prohibit","w","w","g","g",1,0.429785145272035,NA,NA,NA
"experimental",17,19,"hd","upper","glapula","nw","nw","h","h",1,0.56325287144864,NA,NA,NA
"experimental",17,20,"hd","upper","mining","w","w","g","h",0,0.403145167336334,NA,NA,NA
"experimental",17,21,"hd","upper","passet","nw","nw","h","h",1,0.553341260878369,NA,NA,NA
"experimental",17,22,"hd","upper","personify","w","w","g","g",1,0.657231083023362,NA,NA,NA
"experimental",17,23,"hd","upper","sonnet","w","w","g","g",1,0.717448967625387,NA,NA,NA
"experimental",17,24,"hd","upper","cheathe","nw","nw","h","h",1,1.03858243633294,NA,NA,NA
"experimental",17,25,"hd","upper","burrowing","w","w","g","g",1,0.691431072540581,NA,NA,NA
"experimental",17,26,"hd","upper","tracing","w","w","g","g",1,0.710069058695808,NA,NA,NA
"experimental",17,27,"hd","upper","bookend","w","w","g","h",0,0.824247912678402,NA,NA,NA
"experimental",17,28,"hd","upper","eaglot","nw","nw","h","h",1,0.781627126329113,NA,NA,NA
"experimental",17,29,"hd","upper","restock","w","w","g","g",1,0.741046069771983,NA,NA,NA
"experimental",17,30,"hd","upper","sunhess","nw","nw","h","h",1,0.749812504975125,NA,NA,NA
"experimental",18,1,"hd","upper","fraft","nw","nw","h","h",1,0.534459275193512,NA,NA,NA
"experimental",18,2,"hd","upper","aviation","w","w","g","h",0,0.567224070953671,NA,NA,NA
"experimental",18,3,"hd","upper","fassed","nw","nw","h","h",1,0.502695969946217,NA,NA,NA
"experimental",18,4,"hd","upper","etcess","nw","nw","h","h",1,0.488697947119363,NA,NA,NA
"experimental",18,5,"hd","upper","penalize","w","w","g","g",1,0.57947734836489,NA,NA,NA
"experimental",18,6,"hd","upper","fabstand","nw","nw","h","h",1,0.490800249448512,NA,NA,NA
"experimental",18,7,"hd","upper","chone","nw","nw","h","g",0,0.549669680884108,NA,NA,NA
"experimental",18,8,"hd","upper","antique","w","w","g","g",1,0.525332965597045,NA,NA,NA
"experimental",18,9,"hd","upper","castaway","w","w","g","g",1,0.638632494315971,NA,NA,NA
"experimental",18,10,"hd","upper","razelle","nw","nw","h","h",1,0.587408821913414,NA,NA,NA
"experimental",18,11,"hd","upper","neally","nw","nw","h","h",1,0.554162317537703,NA,NA,NA
"experimental",18,12,"hd","upper","carony","nw","nw","h","h",1,0.490234117605723,NA,NA,NA
"experimental",18,13,"hd","upper","chappef","nw","nw","h","h",1,0.644882457097992,NA,NA,NA
"experimental",18,14,"hd","upper","drauns","nw","nw","h","h",1,0.537701124732848,NA,NA,NA
"experimental",18,15,"hd","upper","aligning","w","w","g","g",1,1.04211794602452,NA,NA,NA
"experimental",18,16,"hd","upper","rootsie","nw","nw","h","h",1,0.495175355812535,NA,NA,NA
"experimental",18,17,"hd","upper","walnut","w","w","g","g",1,0.672949683037587,NA,NA,NA
"experimental",18,18,"hd","upper","gazes","w","w","g","h",0,0.676255429338198,NA,NA,NA
"experimental",18,19,"hd","upper","holdup","w","w","g","g",1,0.623721376992762,NA,NA,NA
"experimental",18,20,"hd","upper","party","w","w","g","g",1,0.605102261877619,NA,NA,NA
"experimental",18,21,"hd","upper","admire","w","w","g","g",1,0.571204871404916,NA,NA,NA
"experimental",18,22,"hd","upper","cookbook","w","w","g","h",0,0.730610373429954,NA,NA,NA
"experimental",18,23,"hd","upper","cegalia","nw","nw","h","h",1,0.596010383684188,NA,NA,NA
"experimental",18,24,"hd","upper","befin","nw","nw","h","h",1,0.434734329173807,NA,NA,NA
"experimental",18,25,"hd","upper","wrestle","w","w","g","g",1,0.647473089455161,NA,NA,NA
"experimental",18,26,"hd","upper","handle","w","w","g","g",1,0.612241481954698,NA,NA,NA
"experimental",18,27,"hd","upper","tredits","nw","nw","h","h",1,0.681286387785804,NA,NA,NA
"experimental",18,28,"hd","upper","calming","w","w","g","g",1,0.692707021080423,NA,NA,NA
"experimental",18,29,"hd","upper","ladybug","target","target","q","q",1,0.887466626998503,1,NA,NA
"experimental",18,30,"hd","upper","snocks","aftertar1","nw","h","h",1,0.626222620136105,NA,NA,NA
"experimental",19,1,"ld","lower","frowsed","nw","nw","h","h",1,0.599792872497346,NA,NA,NA
"experimental",19,2,"ld","lower","airbis","nw","nw","h","h",1,0.58235634380253,NA,NA,NA
"experimental",19,3,"ld","lower","rudder","w","w","g","h",0,0.413688130851369,NA,NA,NA
"experimental",19,4,"ld","lower","anemic","w","w","g","h",0,0.323713894817047,NA,NA,NA
"experimental",19,5,"ld","lower","mixture","w","w","g","g",1,0.389105098496657,NA,NA,NA
"experimental",19,6,"ld","lower","grummer","nw","nw","h","h",1,0.571832913556136,NA,NA,NA
"experimental",19,7,"ld","lower","clattest","nw","nw","h","h",1,0.403241178079043,NA,NA,NA
"experimental",19,8,"ld","lower","forfeit","w","w","g","h",0,0.401314343442209,NA,NA,NA
"experimental",19,9,"ld","lower","grolific","nw","nw","h","h",1,0.479252484743483,NA,NA,NA
"experimental",19,10,"ld","lower","doxing","nw","nw","h","g",0,0.690098841907457,NA,NA,NA
"experimental",19,11,"ld","lower","attended","w","w","g","g",1,0.533633252431173,NA,NA,NA
"experimental",19,12,"ld","lower","implode","w","w","g","g",1,0.381910920550581,NA,NA,NA
"experimental",19,13,"ld","lower","suddenly","w","w","g","g",1,0.357188838301226,NA,NA,NA
"experimental",19,14,"ld","lower","bloves","nw","nw","h","g",0,0.42138851666823,NA,NA,NA
"experimental",19,15,"ld","lower","rapport","w","w","g","h",0,0.890886261709966,NA,NA,NA
"experimental",19,16,"ld","lower","remover","w","w","g","g",1,0.653602211212274,NA,NA,NA
"experimental",19,17,"ld","lower","gremieres","nw","nw","h","h",1,0.569679626263678,NA,NA,NA
"experimental",19,18,"ld","lower","amaze","w","w","g","g",1,0.665105943393428,NA,NA,NA
"experimental",19,19,"ld","lower","fatho","nw","nw","h","h",1,0.549310137575958,NA,NA,NA
"experimental",19,20,"ld","lower","gigglod","nw","nw","h","h",1,0.533886853023432,NA,NA,NA
"experimental",19,21,"ld","lower","rasuals","nw","nw","h","h",1,0.42974972067168,NA,NA,NA
"experimental",19,22,"ld","lower","retain","w","w","g","h",0,0.491023722453974,NA,NA,NA
"experimental",19,23,"ld","lower","dazid","nw","nw","h","h",1,0.525791499181651,NA,NA,NA
"experimental",19,24,"ld","lower","butler","w","w","g","g",1,0.75118016032502,NA,NA,NA
"experimental",19,25,"ld","lower","superstar","w","w","g","g",1,0.591304537141696,NA,NA,NA
"experimental",19,26,"ld","lower","pripend","nw","nw","h","h",1,0.790017464605626,NA,NA,NA
"experimental",19,27,"ld","lower","tucker","w","w","g","h",0,0.628713600162882,NA,NA,NA
"experimental",19,28,"ld","lower","quickel","nw","nw","h","h",1,0.938117546145804,NA,NA,NA
"experimental",19,29,"ld","lower","rarely","w","w","g","g",1,0.538937344681472,NA,NA,NA
"experimental",19,30,"ld","lower","ameld","nw","nw","h","h",1,0.419662973377854,NA,NA,NA
"experimental",20,1,"ld","lower","bengths","nw","nw","h","h",1,0.528845300315879,NA,NA,NA
"experimental",20,2,"ld","lower","roaned","nw","nw","h","h",1,0.482339392998256,NA,NA,NA
"experimental",20,3,"ld","lower","overcoat","w","w","g","h",0,0.557663726911414,NA,NA,NA
"experimental",20,4,"ld","lower","uncounted","w","w","g","g",1,0.651418465364259,NA,NA,NA
"experimental",20,5,"ld","lower","ubefully","nw","nw","h","h",1,0.553690541011747,NA,NA,NA
"experimental",20,6,"ld","lower","mineluyer","nw","nw","h","h",1,0.528679433569778,NA,NA,NA
"experimental",20,7,"ld","lower","engineer","w","w","g","h",0,0.434301287983544,NA,NA,NA
"experimental",20,8,"ld","lower","outrank","w","w","g","g",1,0.599737252516206,NA,NA,NA
"experimental",20,9,"ld","lower","bailmenz","nw","nw","h","h",1,0.574446058832109,NA,NA,NA
"experimental",20,10,"ld","lower","attrove","nw","nw","h","h",1,0.565965007059276,NA,NA,NA
"experimental",20,11,"ld","lower","correct","w","w","g","g",1,0.614006753778085,NA,NA,NA
"experimental",20,12,"ld","lower","appain","nw","nw","h","h",1,0.652110404218547,NA,NA,NA
"experimental",20,13,"ld","lower","slutches","nw","nw","h","h",1,0.520055358996615,NA,NA,NA
"experimental",20,14,"ld","lower","ebuating","nw","nw","h","h",1,0.3934762320132,NA,NA,NA
"experimental",20,15,"ld","lower","minimum","w","w","g","h",0,0.328184680722188,NA,NA,NA
"experimental",20,16,"ld","lower","nauling","nw","nw","h","h",1,0.601569731778,NA,NA,NA
"experimental",20,17,"ld","lower","bropic","nw","nw","h","h",1,0.454607211053371,NA,NA,NA
"experimental",20,18,"ld","lower","arrive","w","w","g","g",1,0.530727771285456,NA,NA,NA
"experimental",20,19,"ld","lower","realize","w","w","g","g",1,0.500218232802581,NA,NA,NA
"experimental",20,20,"ld","lower","bypassed","w","w","g","g",1,0.734860003809445,NA,NA,NA
"experimental",20,21,"ld","lower","mandlers","nw","nw","h","h",1,0.503611381922383,NA,NA,NA
"experimental",20,22,"ld","lower","intercede","w","w","g","g",1,0.593654480704572,NA,NA,NA
"experimental",20,23,"ld","lower","tunneg","nw","nw","h","h",1,0.712411387707107,NA,NA,NA
"experimental",20,24,"ld","lower","padicals","nw","nw","h","g",0,0.666540806065314,NA,NA,NA
"experimental",20,25,"ld","lower","colicky","w","w","g","h",0,0.542553304694593,NA,NA,NA
"experimental",20,26,"ld","lower","vibrate","w","w","g","g",1,0.73431572271511,NA,NA,NA
"experimental",20,27,"ld","lower","enunciate","w","w","g","h",0,1.07107807113789,NA,NA,NA
"experimental",20,28,"ld","lower","define","w","w","g","g",1,0.530400672927499,NA,NA,NA
"experimental",20,29,"ld","lower","baults","nw","nw","h","h",1,0.435780183179304,NA,NA,NA
"experimental",20,30,"ld","lower","purpose","w","w","g","g",1,0.544524171738885,NA,NA,NA
"experimental",21,1,"hd","upper","pircus","nw","nw","h","h",1,0.473164084774908,NA,NA,NA
"experimental",21,2,"hd","upper","scarlet","w","w","g","g",1,0.556573509355076,NA,NA,NA
"experimental",21,3,"hd","upper","pillage","w","w","g","g",1,0.804790525173303,NA,NA,NA
"experimental",21,4,"hd","upper","region","w","w","g","g",1,0.442734996613581,NA,NA,NA
"experimental",21,5,"hd","upper","movie","w","w","g","g",1,0.503583240846638,NA,NA,NA
"experimental",21,6,"hd","upper","ascending","w","w","g","g",1,0.521585901326034,NA,NA,NA
"experimental",21,7,"hd","upper","funtair","nw","nw","h","h",1,0.642976479954086,NA,NA,NA
"experimental",21,8,"hd","upper","lecked","nw","nw","h","h",1,0.607749507471453,NA,NA,NA
"experimental",21,9,"hd","upper","trecious","nw","nw","h","g",0,0.56584085529903,NA,NA,NA
"experimental",21,10,"hd","upper","coyote","target","target","q","q",1,0.821005069941748,1,NA,NA
"experimental",21,11,"hd","upper","prillway","aftertar1","nw","h","h",1,0.618316639098339,NA,NA,NA
"experimental",21,12,"hd","upper","bureaug","aftertar2","nw","h","h",1,0.535724960500374,NA,NA,NA
"experimental",21,13,"hd","upper","beartiset","aftertar3","nw","h","h",1,0.472447646665387,NA,NA,NA
"experimental",21,14,"hd","upper","lignpost","nw","nw","h","h",1,0.483878212049603,NA,NA,NA
"experimental",21,15,"hd","upper","handcuff","nw","w","g","g",1,0.582622193964198,NA,NA,NA
"experimental",21,16,"hd","upper","hecture","w","nw","h","h",1,0.469983483431861,NA,NA,NA
"experimental",21,17,"hd","upper","blueberry","nw","w","g","g",1,0.665415826020762,NA,NA,NA
"experimental",21,18,"hd","upper","undue","w","w","g","h",0,0.485446827544365,NA,NA,NA
"experimental",21,19,"hd","upper","blassed","w","nw","h","h",1,0.639265833538957,NA,NA,NA
"experimental",21,20,"hd","upper","charcoal","nw","w","g","g",1,0.491946749098133,NA,NA,NA
"experimental",21,21,"hd","upper","childhood","w","w","g","g",1,0.510682732390705,NA,NA,NA
"experimental",21,22,"hd","upper","sopes","w","nw","h","g",0,0.40873166336678,NA,NA,NA
"experimental",21,23,"hd","upper","marinate","nw","w","g","g",1,0.550744338135701,NA,NA,NA
"experimental",21,24,"hd","upper","otiates","w","nw","h","h",1,0.598767875984777,NA,NA,NA
"experimental",21,25,"hd","upper","enacted","nw","w","g","g",1,0.709613835788332,NA,NA,NA
"experimental",21,26,"hd","upper","havel","w","nw","h","h",1,0.399741755099967,NA,NA,NA
"experimental",21,27,"hd","upper","schides","nw","nw","h","h",1,0.462326136825141,NA,NA,NA
"experimental",21,28,"hd","upper","official","nw","w","g","g",1,0.538414252165239,NA,NA,NA
"experimental",21,29,"hd","upper","uncorked","w","w","g","h",0,0.530947933671996,NA,NA,NA
"experimental",21,30,"hd","upper","courier","w","w","g","g",1,0.899543112376705,NA,NA,NA
"experimental",22,1,"hd","upper","violate","w","w","g","g",1,0.742596476397011,NA,NA,NA
"experimental",22,2,"hd","upper","epthuse","nw","nw","h","h",1,0.623400900047272,NA,NA,NA
"experimental",22,3,"hd","upper","column","w","w","g","g",1,0.588747011846863,NA,NA,NA
"experimental",22,4,"hd","upper","rivet","w","w","g","h",0,0.59546179859899,NA,NA,NA
"experimental",22,5,"hd","upper","uncarled","nw","nw","h","h",1,0.489316719234921,NA,NA,NA
"experimental",22,6,"hd","upper","except","w","w","g","g",1,0.45197883649962,NA,NA,NA
"experimental",22,7,"hd","upper","congraks","nw","nw","h","h",1,0.456036114541348,NA,NA,NA
"experimental",22,8,"hd","upper","bingu","nw","nw","h","h",1,0.508093093172647,NA,NA,NA
"experimental",22,9,"hd","upper","tipoff","w","w","g","h",0,0.470174511545338,NA,NA,NA
"experimental",22,10,"hd","upper","fillings","w","w","g","g",1,0.673585008713417,NA,NA,NA
"experimental",22,11,"hd","upper","squirrel","target","target","q","g",0,0.492981677816715,1,1,NA
"experimental",22,12,"hd","upper","slooch","aftertar1","nw","h","h",1,0.631740584445652,NA,NA,NA
"experimental",22,13,"hd","upper","ragtam","aftertar2","nw","h","h",1,0.557108851557132,NA,NA,NA
"experimental",22,14,"hd","upper","antonym","aftertar3","w","g","g",1,0.725203649140894,NA,NA,NA
"experimental",22,15,"hd","upper","trocess","w","nw","h","h",1,0.565682934306096,NA,NA,NA
"experimental",22,16,"hd","upper","teamwork","nw","w","g","g",1,0.533885859826114,NA,NA,NA
"experimental",22,17,"hd","upper","irfirm","w","nw","h","h",1,0.494408263766672,NA,NA,NA
"experimental",22,18,"hd","upper","lightels","nw","nw","h","h",1,0.60112675849814,NA,NA,NA
"experimental",22,19,"hd","upper","loneliest","nw","w","g","h",0,0.415134912123904,NA,NA,NA
"experimental",22,20,"hd","upper","talate","w","nw","h","h",1,0.47725281456951,NA,NA,NA
"experimental",22,21,"hd","upper","shivering","nw","w","g","g",1,0.616610960103571,NA,NA,NA
"experimental",22,22,"hd","upper","glocked","w","nw","h","h",1,0.430694598006085,NA,NA,NA
"experimental",22,23,"hd","upper","expensive","nw","w","g","g",1,0.532046428066678,NA,NA,NA
"experimental",22,24,"hd","upper","walsams","w","nw","h","h",1,0.493468683562241,NA,NA,NA
"experimental",22,25,"hd","upper","fuintets","nw","nw","h","h",1,0.478631064062938,NA,NA,NA
"experimental",22,26,"hd","upper","borrent","nw","nw","h","h",1,0.466727728955448,NA,NA,NA
"experimental",22,27,"hd","upper","comply","nw","w","g","h",0,0.43861084227683,NA,NA,NA
"experimental",22,28,"hd","upper","brouhuha","w","nw","h","h",1,0.451445811835583,NA,NA,NA
"experimental",22,29,"hd","upper","desert","nw","w","g","g",1,0.439504072419368,NA,NA,NA
"experimental",22,30,"hd","upper","combat","w","w","g","g",1,0.428313864744268,NA,NA,NA
"experimental",23,1,"hd","upper","igiom","nw","nw","h","h",1,0.465553419257049,NA,NA,NA
"experimental",23,2,"hd","upper","deakers","nw","nw","h","h",1,0.44563319417648,NA,NA,NA
"experimental",23,3,"hd","upper","hubris","w","w","g","h",0,0.458409233135171,NA,NA,NA
"experimental",23,4,"hd","upper","peadgear","nw","nw","h","h",1,0.55056158680236,NA,NA,NA
"experimental",23,5,"hd","upper","temelity","nw","nw","h","h",1,0.494505267590284,NA,NA,NA
"experimental",23,6,"hd","upper","ethical","w","w","g","g",1,0.705312889418565,NA,NA,NA
"experimental",23,7,"hd","upper","machinery","w","w","g","h",0,0.539338271948509,NA,NA,NA
"experimental",23,8,"hd","upper","purport","w","w","g","h",0,0.852096300572157,NA,NA,NA
"experimental",23,9,"hd","upper","reason","w","w","g","g",1,0.608161360083614,NA,NA,NA
"experimental",23,10,"hd","upper","professor","w","w","g","g",1,0.365406357450411,NA,NA,NA
"experimental",23,11,"hd","upper","booster","w","w","g","h",0,0.589323737949599,NA,NA,NA
"experimental",23,12,"hd","upper","inducing","w","w","g","h",0,0.419995700009167,NA,NA,NA
"experimental",23,13,"hd","upper","dabble","w","w","g","h",0,1.05744190921541,NA,NA,NA
"experimental",23,14,"hd","upper","riosk","nw","nw","h","h",1,0.60552206018474,NA,NA,NA
"experimental",23,15,"hd","upper","company","w","w","g","g",1,0.523516377666965,NA,NA,NA
"experimental",23,16,"hd","upper","teliever","nw","nw","h","g",0,0.572910881484859,NA,NA,NA
"experimental",23,17,"hd","upper","veranpah","nw","nw","h","h",1,0.436385050357785,NA,NA,NA
"experimental",23,18,"hd","upper","insole","w","w","g","g",1,0.83309810893843,NA,NA,NA
"experimental",23,19,"hd","upper","spiud","nw","nw","h","h",1,0.622551040141843,NA,NA,NA
"experimental",23,20,"hd","upper","chicken","target","target","q","q",1,0.834124429733492,1,NA,NA
"experimental",23,21,"hd","upper","defensa","aftertar1","nw","h","h",1,0.704357748909388,NA,NA,NA
"experimental",23,22,"hd","upper","presently","aftertar2","w","g","g",1,0.570410300453659,NA,NA,NA
"experimental",23,23,"hd","upper","tapling","aftertar3","nw","h","h",1,0.537876923510339,NA,NA,NA
"experimental",23,24,"hd","upper","fallint","nw","nw","h","h",1,0.474541672156192,NA,NA,NA
"experimental",23,25,"hd","upper","latpin","nw","nw","h","h",1,0.445977839350235,NA,NA,NA
"experimental",23,26,"hd","upper","zears","nw","nw","h","h",1,0.394709472369868,NA,NA,NA
"experimental",23,27,"hd","upper","migmarole","nw","nw","h","h",1,0.497464382264298,NA,NA,NA
"experimental",23,28,"hd","upper","eggays","nw","nw","h","h",1,0.492242395703215,NA,NA,NA
"experimental",23,29,"hd","upper","design","nw","w","g","g",1,0.68599753145827,NA,NA,NA
"experimental",23,30,"hd","upper","record","w","w","g","g",1,0.552661902736872,NA,NA,NA
"experimental",24,1,"ld","lower","bettled","nw","nw","h","h",1,0.673784313665237,NA,NA,NA
"experimental",24,2,"ld","lower","sustain","w","w","g","h",0,0.397159399464727,NA,NA,NA
"experimental",24,3,"ld","lower","maiden","w","w","g","h",0,0.467851715744473,NA,NA,NA
"experimental",24,4,"ld","lower","audience","w","w","g","g",1,0.350374730187468,NA,NA,NA
"experimental",24,5,"ld","lower","female","w","w","g","g",1,0.311008705117274,NA,NA,NA
"experimental",24,6,"ld","lower","presence","w","w","g","g",1,0.513043601356912,NA,NA,NA
"experimental",24,7,"ld","lower","seldom","w","w","g","g",1,0.755122887610923,NA,NA,NA
"experimental",24,8,"ld","lower","ebince","nw","nw","h","h",1,0.571199905360118,NA,NA,NA
"experimental",24,9,"ld","lower","repayment","w","w","g","g",1,0.690587834105827,NA,NA,NA
"experimental",24,10,"ld","lower","calcify","w","w","g","h",0,0.557333648903295,NA,NA,NA
"experimental",24,11,"ld","lower","glattery","nw","nw","h","h",1,0.541400183574297,NA,NA,NA
"experimental",24,12,"ld","lower","footstep","w","w","g","g",1,0.462269854731858,NA,NA,NA
"experimental",24,13,"ld","lower","atch","nw","nw","h","h",1,0.506151691486593,NA,NA,NA
"experimental",24,14,"ld","lower","haurded","nw","nw","h","h",1,0.476176170865074,NA,NA,NA
"experimental",24,15,"ld","lower","plogging","nw","nw","h","g",0,0.478637685475405,NA,NA,NA
"experimental",24,16,"ld","lower","drine","nw","nw","h","h",1,0.434049011673778,NA,NA,NA
"experimental",24,17,"ld","lower","ounwit","nw","nw","h","h",1,0.575395571126137,NA,NA,NA
"experimental",24,18,"ld","lower","contusiok","nw","nw","h","h",1,0.542862525209785,NA,NA,NA
"experimental",24,19,"ld","lower","hodels","nw","nw","h","h",1,0.455622275476344,NA,NA,NA
"experimental",24,20,"ld","lower","module","w","w","g","g",1,0.731632059265394,NA,NA,NA
"experimental",24,21,"ld","lower","trises","nw","nw","h","h",1,0.421095849655103,NA,NA,NA
"experimental",24,22,"ld","lower","withep","nw","nw","h","h",1,0.458489683398511,NA,NA,NA
"experimental",24,23,"ld","lower","contact","w","w","g","g",1,0.614542758150492,NA,NA,NA
"experimental",24,24,"ld","lower","whirling","w","w","g","h",0,0.556630784645677,NA,NA,NA
"experimental",24,25,"ld","lower","heaviest","w","w","g","g",1,0.627680326811969,NA,NA,NA
"experimental",24,26,"ld","lower","resent","w","w","g","h",0,0.729011961549986,NA,NA,NA
"experimental",24,27,"ld","lower","carbled","nw","nw","h","h",1,0.530510919634253,NA,NA,NA
"experimental",24,28,"ld","lower","aicline","nw","nw","h","h",1,0.707886968215462,NA,NA,NA
"experimental",24,29,"ld","lower","gaining","w","w","g","g",1,0.670039235847071,NA,NA,NA
"experimental",24,30,"ld","lower","draze","nw","nw","h","g",0,0.77740629913751,NA,NA,NA
"experimental",25,1,"ld","lower","moyeur","nw","nw","h","h",1,0.528750282828696,NA,NA,NA
"experimental",25,2,"ld","lower","dealer","w","w","g","g",1,0.67414683662355,NA,NA,NA
"experimental",25,3,"ld","lower","probable","w","w","g","h",0,0.773593351768795,NA,NA,NA
"experimental",25,4,"ld","lower","culinary","w","w","g","g",1,0.51696447795257,NA,NA,NA
"experimental",25,5,"ld","lower","huffle","nw","nw","h","h",1,0.590998958388809,NA,NA,NA
"experimental",25,6,"ld","lower","amkles","nw","nw","h","h",1,0.66979457414709,NA,NA,NA
"experimental",25,7,"ld","lower","single","w","w","g","g",1,0.577211496827658,NA,NA,NA
"experimental",25,8,"ld","lower","mullet","w","w","g","g",1,0.552504643856082,NA,NA,NA
"experimental",25,9,"ld","lower","sweeping","w","w","g","g",1,0.495605086209252,NA,NA,NA
"experimental",25,10,"ld","lower","miurnal","nw","nw","h","h",1,1.07183887285646,NA,NA,NA
"experimental",25,11,"ld","lower","sefine","nw","nw","h","h",1,0.501535565243103,NA,NA,NA
"experimental",25,12,"ld","lower","handed","w","w","g","h",0,0.432264206698164,NA,NA,NA
"experimental",25,13,"ld","lower","cills","nw","nw","h","h",1,0.509981192473788,NA,NA,NA
"experimental",25,14,"ld","lower","bloodless","w","w","g","g",1,0.631937571801245,NA,NA,NA
"experimental",25,15,"ld","lower","scrooner","nw","nw","h","h",1,0.565393247001339,NA,NA,NA
"experimental",25,16,"ld","lower","decency","w","w","g","g",1,0.589469740341883,NA,NA,NA
"experimental",25,17,"ld","lower","fidelity","w","w","g","g",1,0.692233258159831,NA,NA,NA
"experimental",25,18,"ld","lower","setwixt","nw","nw","h","h",1,0.518934351799544,NA,NA,NA
"experimental",25,19,"ld","lower","digar","nw","nw","h","h",1,0.431401103967801,NA,NA,NA
"experimental",25,20,"ld","lower","gairs","nw","nw","h","h",1,0.4527220914606,NA,NA,NA
"experimental",25,21,"ld","lower","diatonic","w","w","g","h",0,0.520761865016539,NA,NA,NA
"experimental",25,22,"ld","lower","hustle","w","w","g","g",1,0.514161959930789,NA,NA,NA
"experimental",25,23,"ld","lower","thacked","nw","nw","h","h",1,0.524281483318191,NA,NA,NA
"experimental",25,24,"ld","lower","catgup","nw","nw","h","h",1,0.501654088729993,NA,NA,NA
"experimental",25,25,"ld","lower","expounded","w","w","g","g",1,0.711799568089191,NA,NA,NA
"experimental",25,26,"ld","lower","surface","w","w","g","g",1,0.673815765359905,NA,NA,NA
"experimental",25,27,"ld","lower","trewl","nw","nw","h","h",1,0.613216486759484,NA,NA,NA
"experimental",25,28,"ld","lower","series","w","w","g","g",1,0.594367608195171,NA,NA,NA
"experimental",25,29,"ld","lower","flougy","nw","nw","h","h",1,0.456962120777462,NA,NA,NA
"experimental",25,30,"ld","lower","flooted","nw","nw","h","h",1,0.581084699195344,NA,NA,NA
"experimental",26,1,"ld","lower","brother","w","w","g","g",1,0.69341087853536,NA,NA,NA
"experimental",26,2,"ld","lower","ofsters","nw","nw","h","h",1,0.52816958387848,NA,NA,NA
"experimental",26,3,"ld","lower","garment","w","w","g","h",0,0.465534879243933,NA,NA,NA
"experimental",26,4,"ld","lower","kilotin","nw","nw","h","h",1,0.628563293779735,NA,NA,NA
"experimental",26,5,"ld","lower","shazer","nw","nw","h","h",1,0.418005630781408,NA,NA,NA
"experimental",26,6,"ld","lower","erlighten","nw","nw","h","h",1,0.462195363710634,NA,NA,NA
"experimental",26,7,"ld","lower","pressures","w","w","g","g",1,0.579205207817722,NA,NA,NA
"experimental",26,8,"ld","lower","exit","w","w","g","g",1,0.434981308295391,NA,NA,NA
"experimental",26,9,"ld","lower","lutton","nw","nw","h","h",1,0.447670937632211,NA,NA,NA
"experimental",26,10,"ld","lower","alarm","w","w","g","g",1,0.580361308588181,NA,NA,NA
"experimental",26,11,"ld","lower","sazer","nw","nw","h","h",1,0.45174112735549,NA,NA,NA
"experimental",26,12,"ld","lower","eugenifs","nw","nw","h","h",1,0.447923544968944,NA,NA,NA
"experimental",26,13,"ld","lower","ganter","nw","nw","h","h",1,0.404621414025314,NA,NA,NA
"experimental",26,14,"ld","lower","stifle","w","w","g","h",0,0.377705322694965,NA,NA,NA
"experimental",26,15,"ld","lower","deficit","w","w","g","h",0,0.497079015360214,NA,NA,NA
"experimental",26,16,"ld","lower","rainfall","w","w","g","h",0,0.467825561121572,NA,NA,NA
"experimental",26,17,"ld","lower","phraining","nw","nw","h","h",1,0.895274279871956,NA,NA,NA
"experimental",26,18,"ld","lower","cripet","nw","nw","h","h",1,0.577964683936443,NA,NA,NA
"experimental",26,19,"ld","lower","lizard","target","target","q","g",0,0.617438969260547,1,1,NA
"experimental",26,20,"ld","lower","atble","aftertar1","nw","h","h",1,0.886798856256064,NA,NA,NA
"experimental",26,21,"ld","lower","budget","aftertar2","w","g","g",1,0.561532625346445,NA,NA,NA
"experimental",26,22,"ld","lower","bedding","aftertar3","w","g","g",1,0.673626723757479,NA,NA,NA
"experimental",26,23,"ld","lower","ezulated","w","nw","h","h",1,0.604076603194699,NA,NA,NA
"experimental",26,24,"ld","lower","disease","nw","w","g","g",1,0.794112153584138,NA,NA,NA
"experimental",26,25,"ld","lower","unlined","w","w","g","g",1,0.84882167505566,NA,NA,NA
"experimental",26,26,"ld","lower","rebool","w","nw","h","h",1,0.78159170167055,NA,NA,NA
"experimental",26,27,"ld","lower","embrace","nw","w","g","g",1,0.645012236956973,NA,NA,NA
"experimental",26,28,"ld","lower","fuack","w","nw","h","h",1,0.521725944476202,NA,NA,NA
"experimental",26,29,"ld","lower","catacomb","nw","w","g","h",0,0.507060150965117,NA,NA,NA
"experimental",26,30,"ld","lower","dreaded","w","w","g","g",1,0.709185760701075,NA,NA,NA
"experimental",27,1,"hd","upper","dorte","nw","nw","h","h",1,0.527178025513422,NA,NA,NA
"experimental",27,2,"hd","upper","virulent","w","w","g","h",0,0.504239755042363,NA,NA,NA
"experimental",27,3,"hd","upper","sludding","nw","nw","h","h",1,0.602712258638348,NA,NA,NA
"experimental",27,4,"hd","upper","previous","w","w","g","g",1,0.79271735047223,NA,NA,NA
"experimental",27,5,"hd","upper","dingly","nw","nw","h","h",1,0.463438867242076,NA,NA,NA
"experimental",27,6,"hd","upper","churnad","nw","nw","h","h",1,0.45160108426353,NA,NA,NA
"experimental",27,7,"hd","upper","pressing","w","w","g","h",0,0.32762550143525,NA,NA,NA
"experimental",27,8,"hd","upper","inverted","w","w","g","g",1,0.48806692531798,NA,NA,NA
"experimental",27,9,"hd","upper","scrib","nw","nw","h","h",1,0.466780038143042,NA,NA,NA
"experimental",27,10,"hd","upper","satisfies","w","w","g","g",1,0.478825071826577,NA,NA,NA
"experimental",27,11,"hd","upper","collute","nw","nw","h","h",1,0.402246640063822,NA,NA,NA
"experimental",27,12,"hd","upper","misest","nw","nw","h","g",0,0.288357142359018,NA,NA,NA
"experimental",27,13,"hd","upper","reses","nw","nw","h","h",1,0.491029350727331,NA,NA,NA
"experimental",27,14,"hd","upper","armada","w","w","g","h",0,0.533811037719715,NA,NA,NA
"experimental",27,15,"hd","upper","ringlat","nw","nw","h","h",1,0.310504814668093,NA,NA,NA
"experimental",27,16,"hd","upper","arrested","w","w","g","g",1,0.53656257071998,NA,NA,NA
"experimental",27,17,"hd","upper","painter","w","w","g","h",0,0.457321001973469,NA,NA,NA
"experimental",27,18,"hd","upper","incorrect","w","w","g","h",0,0.436423785693478,NA,NA,NA
"experimental",27,19,"hd","upper","fards","nw","nw","h","h",1,1.01722304458963,NA,NA,NA
"experimental",27,20,"hd","upper","aggepting","nw","nw","h","h",1,0.686501752934419,NA,NA,NA
"experimental",27,21,"hd","upper","infancy","w","w","g","g",1,0.553273060184438,NA,NA,NA
"experimental",27,22,"hd","upper","entertain","w","w","g","g",1,0.425349452940281,NA,NA,NA
"experimental",27,23,"hd","upper","patio","w","w","g","g",1,0.55069434636971,NA,NA,NA
"experimental",27,24,"hd","upper","grieving","w","w","g","g",1,0.49476813810179,NA,NA,NA
"experimental",27,25,"hd","upper","railway","w","w","g","g",1,0.417428573651705,NA,NA,NA
"experimental",27,26,"hd","upper","farochial","nw","nw","h","h",1,0.462972718989477,NA,NA,NA
"experimental",27,27,"hd","upper","germeated","nw","nw","h","h",1,0.850983901240397,NA,NA,NA
"experimental",27,28,"hd","upper","pracking","nw","nw","h","h",1,0.734019082854502,NA,NA,NA
"experimental",27,29,"hd","upper","splum","nw","nw","h","h",1,0.422697572270408,NA,NA,NA
"experimental",27,30,"hd","upper","stalemate","w","w","g","g",1,0.676102805475239,NA,NA,NA
"experimental",28,1,"hd","upper","dricked","nw","nw","h","h",1,0.592580816766713,NA,NA,NA
"experimental",28,2,"hd","upper","gounts","nw","nw","h","h",1,0.391392469638959,NA,NA,NA
"experimental",28,3,"hd","upper","pigned","nw","nw","h","h",1,0.293127878801897,NA,NA,NA
"experimental",28,4,"hd","upper","finstrel","nw","nw","h","h",1,0.351769533299375,NA,NA,NA
"experimental",28,5,"hd","upper","sponto","nw","nw","h","h",1,0.431843415193725,NA,NA,NA
"experimental",28,6,"hd","upper","criminal","w","w","g","g",1,0.469291213492397,NA,NA,NA
"experimental",28,7,"hd","upper","miteous","nw","nw","h","h",1,0.384645237936638,NA,NA,NA
"experimental",28,8,"hd","upper","helpful","w","w","g","g",1,0.423361701250542,NA,NA,NA
"experimental",28,9,"hd","upper","smallash","nw","nw","h","h",1,0.428771405131556,NA,NA,NA
"experimental",28,10,"hd","upper","bumbo","nw","nw","h","h",1,0.402193337562494,NA,NA,NA
"experimental",28,11,"hd","upper","stagger","w","w","g","h",0,0.416355902794748,NA,NA,NA
"experimental",28,12,"hd","upper","dusmy","nw","nw","h","h",1,0.446345990581904,NA,NA,NA
"experimental",28,13,"hd","upper","coverall","w","w","g","g",1,0.57105655153282,NA,NA,NA
"experimental",28,14,"hd","upper","tasher","nw","nw","h","h",1,0.505524311447516,NA,NA,NA
"experimental",28,15,"hd","upper","gorilla","target","target","q","g",0,0.547516393533442,1,1,NA
"experimental",28,16,"hd","upper","butcher","aftertar1","w","g","g",1,0.716357094643172,NA,NA,NA
"experimental",28,17,"hd","upper","halter","aftertar2","w","g","h",0,0.574381168873515,NA,NA,NA
"experimental",28,18,"hd","upper","planar","aftertar3","w","g","h",0,0.597729967616033,NA,NA,NA
"experimental",28,19,"hd","upper","dileting","w","nw","h","h",1,0.588497053075116,NA,NA,NA
"experimental",28,20,"hd","upper","yash","nw","nw","h","h",1,0.523213447479066,NA,NA,NA
"experimental",28,21,"hd","upper","harmful","nw","w","g","g",1,0.548616874322761,NA,NA,NA
"experimental",28,22,"hd","upper","trallion","w","nw","h","h",1,0.565326701675076,NA,NA,NA
"experimental",28,23,"hd","upper","matter","nw","w","g","h",0,0.397389162913896,NA,NA,NA
"experimental",28,24,"hd","upper","halms","w","nw","h","h",1,0.563127726549283,NA,NA,NA
"experimental",28,25,"hd","upper","educate","nw","w","g","g",1,0.49116078595398,NA,NA,NA
"experimental",28,26,"hd","upper","jiggling","w","w","g","h",0,0.389830806641839,NA,NA,NA
"experimental",28,27,"hd","upper","peahem","w","nw","h","h",1,0.516621488204692,NA,NA,NA
"experimental",28,28,"hd","upper","forbid","nw","w","g","h",0,0.40676377597265,NA,NA,NA
"experimental",28,29,"hd","upper","icepick","w","w","g","g",1,0.644869545241818,NA,NA,NA
"experimental",28,30,"hd","upper","roughly","w","w","g","g",1,0.561591556062922,NA,NA,NA
"experimental",29,1,"ld","lower","tritical","nw","nw","h","h",1,0.632898671610747,NA,NA,NA
"experimental",29,2,"ld","lower","contund","nw","nw","h","h",1,0.526280822465196,NA,NA,NA
"experimental",29,3,"ld","lower","golemic","nw","nw","h","h",1,0.399677527253516,NA,NA,NA
"experimental",29,4,"ld","lower","parody","w","w","g","h",0,0.366434995725285,NA,NA,NA
"experimental",29,5,"ld","lower","artifact","w","w","g","g",1,0.45446981646819,NA,NA,NA
"experimental",29,6,"ld","lower","slowning","nw","nw","h","g",0,0.418515480472706,NA,NA,NA
"experimental",29,7,"ld","lower","goblet","w","w","g","h",0,0.327879433054477,NA,NA,NA
"experimental",29,8,"ld","lower","argue","w","w","g","g",1,0.489373001328204,NA,NA,NA
"experimental",29,9,"ld","lower","lanthers","nw","nw","h","h",1,0.580026595562231,NA,NA,NA
"experimental",29,10,"ld","lower","insertion","w","w","g","h",0,0.418472772289533,NA,NA,NA
"experimental",29,11,"ld","lower","twenties","w","w","g","g",1,0.399863589263987,NA,NA,NA
"experimental",29,12,"ld","lower","chraps","nw","nw","h","h",1,0.534549657662865,NA,NA,NA
"experimental",29,13,"ld","lower","command","w","w","g","g",1,0.511360435164534,NA,NA,NA
"experimental",29,14,"ld","lower","abraid","nw","nw","h","g",0,0.369404704717454,NA,NA,NA
"experimental",29,15,"ld","lower","delegate","w","w","g","g",1,0.712754708598368,NA,NA,NA
"experimental",29,16,"ld","lower","extend","w","w","g","g",1,0.47488764161244,NA,NA,NA
"experimental",29,17,"ld","lower","filny","nw","nw","h","h",1,0.510301338334102,NA,NA,NA
"experimental",29,18,"ld","lower","chrik","nw","nw","h","g",0,0.50428444967838,NA,NA,NA
"experimental",29,19,"ld","lower","mantos","nw","nw","h","h",1,1.06545052235015,NA,NA,NA
"experimental",29,20,"ld","lower","praiged","nw","nw","h","h",1,0.501397839572746,NA,NA,NA
"experimental",29,21,"ld","lower","puyer","nw","nw","h","h",1,0.495510730950627,NA,NA,NA
"experimental",29,22,"ld","lower","urgent","w","w","g","g",1,0.578190143452957,NA,NA,NA
"experimental",29,23,"ld","lower","system","w","w","g","g",1,0.481630900525488,NA,NA,NA
"experimental",29,24,"ld","lower","gontracts","nw","nw","h","h",1,0.492299671052024,NA,NA,NA
"experimental",29,25,"ld","lower","intended","w","w","g","g",1,0.64774986502016,NA,NA,NA
"experimental",29,26,"ld","lower","egpended","nw","nw","h","h",1,0.500579762621783,NA,NA,NA
"experimental",29,27,"ld","lower","dialect","w","w","g","h",0,0.407277267426252,NA,NA,NA
"experimental",29,28,"ld","lower","country","w","w","g","g",1,0.389287187659647,NA,NA,NA
"experimental",29,29,"ld","lower","brudent","nw","nw","h","g",0,0.403066041355487,NA,NA,NA
"experimental",29,30,"ld","lower","skiing","w","w","g","g",1,0.713083462265786,NA,NA,NA
"experimental",30,1,"ld","lower","pocket","w","w","g","h",0,0.628170974436216,NA,NA,NA
"experimental",30,2,"ld","lower","gallon","w","w","g","h",0,0.593597205413971,NA,NA,NA
"experimental",30,3,"ld","lower","blocking","w","w","g","g",1,0.496397339680698,NA,NA,NA
"experimental",30,4,"ld","lower","portify","nw","nw","h","g",0,0.31504976056749,NA,NA,NA
"experimental",30,5,"ld","lower","ready","w","w","g","g",1,0.596067658974789,NA,NA,NA
"experimental",30,6,"ld","lower","tycoon","w","w","g","h",0,0.570799971348606,NA,NA,NA
"experimental",30,7,"ld","lower","gigoho","nw","nw","h","h",1,0.746253489225637,NA,NA,NA
"experimental",30,8,"ld","lower","condensed","w","w","g","g",1,0.738953699590638,NA,NA,NA
"experimental",30,9,"ld","lower","acroad","nw","nw","h","h",1,0.667662475432735,NA,NA,NA
"experimental",30,10,"ld","lower","etber","nw","nw","h","h",1,0.559103886771481,NA,NA,NA
"experimental",30,11,"ld","lower","breiled","nw","nw","h","h",1,0.631105920881964,NA,NA,NA
"experimental",30,12,"ld","lower","ipiocy","nw","nw","h","h",1,0.348588269785978,NA,NA,NA
"experimental",30,13,"ld","lower","arcients","nw","nw","h","h",1,0.525292905920651,NA,NA,NA
"experimental",30,14,"ld","lower","vivid","w","w","g","h",0,0.411675879906397,NA,NA,NA
"experimental",30,15,"ld","lower","hotplate","w","w","g","h",0,0.617175436520483,NA,NA,NA
"experimental",30,16,"ld","lower","metebing","nw","nw","h","h",1,0.822435628739186,NA,NA,NA
"experimental",30,17,"ld","lower","bellicove","nw","nw","h","h",1,0.491804388468154,NA,NA,NA
"experimental",30,18,"ld","lower","geissue","nw","nw","h","h",1,0.742548140056897,NA,NA,NA
"experimental",30,19,"ld","lower","dontrite","nw","nw","h","h",1,0.47054729773663,NA,NA,NA
"experimental",30,20,"ld","lower","mamps","nw","nw","h","h",1,0.570104390615597,NA,NA,NA
"experimental",30,21,"ld","lower","digested","w","w","g","g",1,0.536428155784961,NA,NA,NA
"experimental",30,22,"ld","lower","actual","w","w","g","g",1,0.633568759774789,NA,NA,NA
"experimental",30,23,"ld","lower","meteoroid","w","w","g","g",1,0.631034409452695,NA,NA,NA
"experimental",30,24,"ld","lower","static","w","w","g","g",1,0.475395504909102,NA,NA,NA
"experimental",30,25,"ld","lower","serfume","nw","nw","h","h",1,0.622823842917569,NA,NA,NA
"experimental",30,26,"ld","lower","throttle","w","w","g","h",0,0.636195810046047,NA,NA,NA
"experimental",30,27,"ld","lower","intersect","w","w","g","g",1,0.480931015918031,NA,NA,NA
"experimental",30,28,"ld","lower","pammed","nw","nw","h","h",1,0.564386128273327,NA,NA,NA
"experimental",30,29,"ld","lower","senior","w","w","g","g",1,0.636423587042373,NA,NA,NA
"experimental",30,30,"ld","lower","snays","nw","nw","h","h",1,0.489151183632203,NA,NA,NA
"experimental",31,1,"hd","upper","sullen","w","w","g","h",0,0.52387923176866,NA,NA,NA
"experimental",31,2,"hd","upper","pregs","nw","nw","h","h",1,0.613412149832584,NA,NA,NA
"experimental",31,3,"hd","upper","neliefs","nw","nw","h","h",1,0.475331939233001,NA,NA,NA
"experimental",31,4,"hd","upper","picnic","w","w","g","h",0,0.470380768936593,NA,NA,NA
"experimental",31,5,"hd","upper","gewer","nw","nw","h","h",1,0.50615367788123,NA,NA,NA
"experimental",31,6,"hd","upper","optional","w","w","g","g",1,0.676305090019014,NA,NA,NA
"experimental",31,7,"hd","upper","pender","nw","nw","h","h",1,0.575621692754794,NA,NA,NA
"experimental",31,8,"hd","upper","glamorous","w","w","g","g",1,0.70303545036586,NA,NA,NA
"experimental",31,9,"hd","upper","spigat","nw","nw","h","h",1,0.648032599827275,NA,NA,NA
"experimental",31,10,"hd","upper","fictional","w","w","g","g",1,0.612796688394155,NA,NA,NA
"experimental",31,11,"hd","upper","companion","w","w","g","g",1,0.626863905170467,NA,NA,NA
"experimental",31,12,"hd","upper","crocodile","target","target","q","q",1,0.760295875661541,1,NA,NA
"experimental",31,13,"hd","upper","cartles","aftertar1","nw","h","h",1,0.440329101984389,NA,NA,NA
"experimental",31,14,"hd","upper","gackpedal","aftertar2","nw","h","h",1,0.484953862498514,NA,NA,NA
"experimental",31,15,"hd","upper","greakable","aftertar3","nw","h","h",1,0.472062279703096,NA,NA,NA
"experimental",31,16,"hd","upper","hanling","nw","nw","h","h",1,0.563975268916693,NA,NA,NA
"experimental",31,17,"hd","upper","statute","nw","w","g","g",1,0.491930526623037,NA,NA,NA
"experimental",31,18,"hd","upper","prama","w","nw","h","h",1,0.485745122772641,NA,NA,NA
"experimental",31,19,"hd","upper","sputter","nw","w","g","h",0,0.49575141974492,NA,NA,NA
"experimental",31,20,"hd","upper","tining","w","nw","h","h",1,0.418554546893574,NA,NA,NA
"experimental",31,21,"hd","upper","landing","nw","w","g","h",0,0.408005293051247,NA,NA,NA
"experimental",31,22,"hd","upper","guivers","w","nw","h","h",1,0.486016601149458,NA,NA,NA
"experimental",31,23,"hd","upper","perishing","nw","w","g","h",0,0.456845583685208,NA,NA,NA
"experimental",31,24,"hd","upper","misobeyed","w","nw","h","g",0,0.50095619057538,NA,NA,NA
"experimental",31,25,"hd","upper","category","nw","w","g","g",1,0.55890358868055,NA,NA,NA
"experimental",31,26,"hd","upper","coupling","w","w","g","g",1,0.4710425803205,NA,NA,NA
"experimental",31,27,"hd","upper","laser","w","w","g","g",1,0.610488459758926,NA,NA,NA
"experimental",31,28,"hd","upper","index","w","w","g","h",0,0.464443006378133,NA,NA,NA
"experimental",31,29,"hd","upper","edasion","w","nw","h","h",1,0.675480391597375,NA,NA,NA
"experimental",31,30,"hd","upper","sonkers","nw","nw","h","h",1,0.446903183474205,NA,NA,NA
"experimental",32,1,"hd","upper","paterways","nw","nw","h","h",1,0.74064448045101,NA,NA,NA
"experimental",32,2,"hd","upper","typical","w","w","g","h",0,0.381406368047465,NA,NA,NA
"experimental",32,3,"hd","upper","mabit","nw","nw","h","h",1,0.420781663095113,NA,NA,NA
"experimental",32,4,"hd","upper","bamboo","w","w","g","h",0,0.617361167503987,NA,NA,NA
"experimental",32,5,"hd","upper","nollow","nw","nw","h","h",1,0.429802361002658,NA,NA,NA
"experimental",32,6,"hd","upper","pastnoss","nw","nw","h","h",1,0.515303493593819,NA,NA,NA
"experimental",32,7,"hd","upper","prison","w","w","g","g",1,0.57333067979198,NA,NA,NA
"experimental",32,8,"hd","upper","priant","nw","nw","h","h",1,0.564709915954154,NA,NA,NA
"experimental",32,9,"hd","upper","fravity","nw","nw","h","h",1,0.612789735896513,NA,NA,NA
"experimental",32,10,"hd","upper","houted","nw","nw","h","h",1,0.458861145365518,NA,NA,NA
"experimental",32,11,"hd","upper","slogan","w","w","g","h",0,0.430773061874788,NA,NA,NA
"experimental",32,12,"hd","upper","standard","w","w","g","g",1,0.764367720752489,NA,NA,NA
"experimental",32,13,"hd","upper","cessation","w","w","g","h",0,0.692477257689461,NA,NA,NA
"experimental",32,14,"hd","upper","hivinity","nw","nw","h","h",1,0.59018319885945,NA,NA,NA
"experimental",32,15,"hd","upper","martial","w","w","g","h",0,0.420916740142275,NA,NA,NA
"experimental",32,16,"hd","upper","preclude","w","w","g","h",0,1.36245783697814,NA,NA,NA
"experimental",32,17,"hd","upper","kangaroo","target","target","q","q",1,0.722480588243343,1,NA,NA
"experimental",32,18,"hd","upper","iolize","aftertar1","nw","h","h",1,0.619925314211287,NA,NA,NA
"experimental",32,19,"hd","upper","gures","aftertar2","nw","h","h",1,0.481338564597536,NA,NA,NA
"experimental",32,20,"hd","upper","intrude","aftertar3","w","g","h",0,0.676753360487055,NA,NA,NA
"experimental",32,21,"hd","upper","melodic","w","w","g","g",1,0.87211717129685,NA,NA,NA
"experimental",32,22,"hd","upper","birn","w","nw","h","h",1,0.683558860735502,NA,NA,NA
"experimental",32,23,"hd","upper","stelled","nw","nw","h","h",1,0.677926014759578,NA,NA,NA
"experimental",32,24,"hd","upper","latter","nw","w","g","h",0,0.43339514604304,NA,NA,NA
"experimental",32,25,"hd","upper","anonymous","w","w","g","g",1,0.518749945156742,NA,NA,NA
"experimental",32,26,"hd","upper","unsmilung","w","nw","h","h",1,0.519485585391521,NA,NA,NA
"experimental",32,27,"hd","upper","peags","nw","nw","h","h",1,0.568893663177732,NA,NA,NA
"experimental",32,28,"hd","upper","ilterfere","nw","nw","h","h",1,0.447618628386408,NA,NA,NA
"experimental",32,29,"hd","upper","hangar","nw","w","g","h",0,0.404390657378826,NA,NA,NA
"experimental",32,30,"hd","upper","treason","w","w","g","g",1,0.754436576971784,NA,NA,NA
"experimental",33,1,"hd","upper","pamine","nw","nw","h","h",1,0.490431104961317,NA,NA,NA
"experimental",33,2,"hd","upper","asclibed","nw","nw","h","h",1,0.605101930792443,NA,NA,NA
"experimental",33,3,"hd","upper","vorm","nw","nw","h","h",1,0.603139009501319,NA,NA,NA
"experimental",33,4,"hd","upper","dounger","nw","nw","h","h",1,0.465251151239499,NA,NA,NA
"experimental",33,5,"hd","upper","emergence","w","w","g","g",1,0.628404710674658,NA,NA,NA
"experimental",33,6,"hd","upper","actively","w","w","g","g",1,0.634668247308582,NA,NA,NA
"experimental",33,7,"hd","upper","frader","nw","nw","h","h",1,0.544102055893745,NA,NA,NA
"experimental",33,8,"hd","upper","primal","w","w","g","g",1,0.703849885612726,NA,NA,NA
"experimental",33,9,"hd","upper","analysis","w","w","g","g",1,0.5859842224163,NA,NA,NA
"experimental",33,10,"hd","upper","refebs","nw","nw","h","h",1,0.504744969774038,NA,NA,NA
"experimental",33,11,"hd","upper","slimped","nw","nw","h","h",1,0.45881181571167,NA,NA,NA
"experimental",33,12,"hd","upper","spider","target","target","q","g",0,0.614901639346499,1,1,NA
"experimental",33,13,"hd","upper","culer","aftertar1","nw","h","g",0,0.813015990017448,NA,NA,NA
"experimental",33,14,"hd","upper","seasoning","aftertar2","w","g","g",1,0.467241551494226,NA,NA,NA
"experimental",33,15,"hd","upper","metrol","aftertar3","nw","h","h",1,0.550591383187566,NA,NA,NA
"experimental",33,16,"hd","upper","widely","nw","w","g","g",1,0.717864461999852,NA,NA,NA
"experimental",33,17,"hd","upper","grested","w","nw","h","h",1,0.566520544525702,NA,NA,NA
"experimental",33,18,"hd","upper","giving","nw","w","g","g",1,0.406323120114394,NA,NA,NA
"experimental",33,19,"hd","upper","derisury","w","nw","h","h",1,0.556418236927129,NA,NA,NA
"experimental",33,20,"hd","upper","brimitive","nw","nw","h","h",1,0.764495845302008,NA,NA,NA
"experimental",33,21,"hd","upper","organize","nw","w","g","g",1,0.644576878286898,NA,NA,NA
"experimental",33,22,"hd","upper","image","w","w","g","g",1,0.417528557125479,NA,NA,NA
"experimental",33,23,"hd","upper","relaying","w","w","g","g",1,0.40667074493831,NA,NA,NA
"experimental",33,24,"hd","upper","bulmed","w","nw","h","g",0,0.420718097419012,NA,NA,NA
"experimental",33,25,"hd","upper","sampling","nw","w","g","g",1,0.634299102937803,NA,NA,NA
"experimental",33,26,"hd","upper","arbitrary","w","w","g","g",1,0.782985511585139,NA,NA,NA
"experimental",33,27,"hd","upper","emission","w","w","g","g",1,0.661371128808241,NA,NA,NA
"experimental",33,28,"hd","upper","felevance","w","nw","h","h",1,0.633372103446163,NA,NA,NA
"experimental",33,29,"hd","upper","acoustic","nw","w","g","g",1,0.62268148228759,NA,NA,NA
"experimental",33,30,"hd","upper","season","w","w","g","g",1,0.492019584751688,NA,NA,NA
"experimental",34,1,"ld","lower","hutting","nw","nw","h","h",1,0.670588151901029,NA,NA,NA
"experimental",34,2,"ld","lower","oalis","nw","nw","h","h",1,0.433543797000311,NA,NA,NA
"experimental",34,3,"ld","lower","egect","nw","nw","h","h",1,0.486763166787568,NA,NA,NA
"experimental",34,4,"ld","lower","angry","w","w","g","g",1,0.617644895566627,NA,NA,NA
"experimental",34,5,"ld","lower","tyena","nw","nw","h","h",1,0.470970737864263,NA,NA,NA
"experimental",34,6,"ld","lower","fomrade","nw","nw","h","h",1,0.474366204405669,NA,NA,NA
"experimental",34,7,"ld","lower","fashing","nw","nw","h","h",1,0.645832300418988,NA,NA,NA
"experimental",34,8,"ld","lower","crazy","w","w","g","g",1,0.586512943205889,NA,NA,NA
"experimental",34,9,"ld","lower","release","w","w","g","g",1,0.529311117483303,NA,NA,NA
"experimental",34,10,"ld","lower","unmarked","w","w","g","g",1,0.626675856707152,NA,NA,NA
"experimental",34,11,"ld","lower","pollute","w","w","g","h",0,0.528074235364329,NA,NA,NA
"experimental",34,12,"ld","lower","servant","w","w","g","g",1,0.520518858742435,NA,NA,NA
"experimental",34,13,"ld","lower","manage","w","w","g","g",1,0.466050026123412,NA,NA,NA
"experimental",34,14,"ld","lower","obtuse","w","w","g","g",1,0.789983033202589,NA,NA,NA
"experimental",34,15,"ld","lower","afternoon","w","w","g","g",1,0.420708165271208,NA,NA,NA
"experimental",34,16,"ld","lower","ignore","w","w","g","g",1,0.386142673087306,NA,NA,NA
"experimental",34,17,"ld","lower","axis","w","w","g","g",1,0.504834359046072,NA,NA,NA
"experimental",34,18,"ld","lower","mystery","w","w","g","g",1,0.458890279638581,NA,NA,NA
"experimental",34,19,"ld","lower","pakened","nw","nw","h","h",1,0.606966192892287,NA,NA,NA
"experimental",34,20,"ld","lower","outflow","w","w","g","g",1,0.58101980923675,NA,NA,NA
"experimental",34,21,"ld","lower","retona","nw","nw","h","h",1,0.628465627785772,NA,NA,NA
"experimental",34,22,"ld","lower","corg","nw","nw","h","h",1,0.768903065531049,NA,NA,NA
"experimental",34,23,"ld","lower","aefated","nw","nw","h","h",1,0.608330537506845,NA,NA,NA
"experimental",34,24,"ld","lower","graiking","nw","nw","h","h",1,0.534442721633241,NA,NA,NA
"experimental",34,25,"ld","lower","lindo","nw","nw","h","h",1,0.495021738694049,NA,NA,NA
"experimental",34,26,"ld","lower","miability","nw","nw","h","h",1,0.705775395908859,NA,NA,NA
"experimental",34,27,"ld","lower","suspect","w","w","g","g",1,0.683882979501504,NA,NA,NA
"experimental",34,28,"ld","lower","slending","nw","nw","h","h",1,0.686541150440462,NA,NA,NA
"experimental",34,29,"ld","lower","efficient","w","w","g","g",1,0.608145468635485,NA,NA,NA
"experimental",34,30,"ld","lower","glaims","nw","nw","h","h",1,0.495455773139838,NA,NA,NA
"experimental",35,1,"ld","lower","scatter","w","w","g","g",1,1.48149383708369,NA,NA,NA
"experimental",35,2,"ld","lower","oleandur","nw","nw","h","h",1,0.612892036966514,NA,NA,NA
"experimental",35,3,"ld","lower","fisco","nw","nw","h","h",1,0.60294831241481,NA,NA,NA
"experimental",35,4,"ld","lower","encrusted","w","w","g","h",0,0.76907224295428,NA,NA,NA
"experimental",35,5,"ld","lower","brongs","nw","nw","h","h",1,0.655528383620549,NA,NA,NA
"experimental",35,6,"ld","lower","nimp","nw","nw","h","h",1,0.515588545880746,NA,NA,NA
"experimental",35,7,"ld","lower","gonesty","nw","nw","h","h",1,0.725687013124116,NA,NA,NA
"experimental",35,8,"ld","lower","cabinet","w","w","g","g",1,0.623004938825034,NA,NA,NA
"experimental",35,9,"ld","lower","saucer","w","w","g","g",1,1.07648843730567,NA,NA,NA
"experimental",35,10,"ld","lower","larger","w","w","g","g",1,0.759925406891853,NA,NA,NA
"experimental",35,11,"ld","lower","ements","nw","nw","h","g",0,0.695989261264913,NA,NA,NA
"experimental",35,12,"ld","lower","bentler","nw","nw","h","h",1,0.530661557102576,NA,NA,NA
"experimental",35,13,"ld","lower","burning","w","w","g","g",1,0.588085200404748,NA,NA,NA
"experimental",35,14,"ld","lower","joses","nw","nw","h","g",0,0.546810549683869,NA,NA,NA
"experimental",35,15,"ld","lower","harder","w","w","g","g",1,0.586633453087416,NA,NA,NA
"experimental",35,16,"ld","lower","glates","nw","nw","h","h",1,0.68133671063697,NA,NA,NA
"experimental",35,17,"ld","lower","vintnel","nw","nw","h","g",0,0.6446354779182,NA,NA,NA
"experimental",35,18,"ld","lower","talent","w","w","g","h",0,0.729340384190436,NA,NA,NA
"experimental",35,19,"ld","lower","clarms","nw","nw","h","h",1,0.730716316204052,NA,NA,NA
"experimental",35,20,"ld","lower","spaceship","w","w","g","g",1,0.684162072546314,NA,NA,NA
"experimental",35,21,"ld","lower","stretches","w","w","g","g",1,0.55012986989459,NA,NA,NA
"experimental",35,22,"ld","lower","triangle","w","w","g","g",1,0.766917631379329,NA,NA,NA
"experimental",35,23,"ld","lower","turning","w","w","g","g",1,0.509806055750232,NA,NA,NA
"experimental",35,24,"ld","lower","fonducts","nw","nw","h","h",1,0.576091151800938,NA,NA,NA
"experimental",35,25,"ld","lower","fetching","w","w","g","g",1,0.495494839560706,NA,NA,NA
"experimental",35,26,"ld","lower","surround","w","w","g","g",1,0.482167567010038,NA,NA,NA
"experimental",35,27,"ld","lower","gumdrep","nw","nw","h","h",1,0.661629695445299,NA,NA,NA
"experimental",35,28,"ld","lower","inforl","nw","nw","h","g",0,0.577747832227033,NA,NA,NA
"experimental",35,29,"ld","lower","lavilion","nw","nw","h","h",1,1.44927729520714,NA,NA,NA
"experimental",35,30,"ld","lower","marvel","w","w","g","g",1,0.525928562681656,NA,NA,NA
"experimental",36,1,"ld","lower","ugifies","nw","nw","h","h",1,0.631323434703518,NA,NA,NA
"experimental",36,2,"ld","lower","loached","nw","nw","h","h",1,0.468687339569442,NA,NA,NA
"experimental",36,3,"ld","lower","legalosm","nw","nw","h","h",1,0.367405696597416,NA,NA,NA
"experimental",36,4,"ld","lower","outlaved","nw","nw","h","h",1,0.390139365044888,NA,NA,NA
"experimental",36,5,"ld","lower","dishwater","w","w","g","g",1,0.476906182942912,NA,NA,NA
"experimental",36,6,"ld","lower","classify","w","w","g","g",1,0.560294087859802,NA,NA,NA
"experimental",36,7,"ld","lower","earmaff","nw","nw","h","g",0,0.384362834156491,NA,NA,NA
"experimental",36,8,"ld","lower","fudden","nw","nw","h","h",1,0.478377794555854,NA,NA,NA
"experimental",36,9,"ld","lower","consonant","w","w","g","h",0,0.496878055098932,NA,NA,NA
"experimental",36,10,"ld","lower","forecast","w","w","g","g",1,0.59551741858013,NA,NA,NA
"experimental",36,11,"ld","lower","outfit","w","w","g","g",1,0.770371697552036,NA,NA,NA
"experimental",36,12,"ld","lower","brimitar","nw","nw","h","h",1,0.569613080937415,NA,NA,NA
"experimental",36,13,"ld","lower","alticles","nw","nw","h","h",1,1.23312982550124,NA,NA,NA
"experimental",36,14,"ld","lower","jaguar","target","target","q","q",1,0.766565040510613,1,NA,NA
"experimental",36,15,"ld","lower","perform","aftertar1","w","g","g",1,0.526551638788078,NA,NA,NA
"experimental",36,16,"ld","lower","extruded","aftertar2","w","g","g",1,0.655918716627639,NA,NA,NA
"experimental",36,17,"ld","lower","godomy","aftertar3","nw","h","h",1,0.640796375868376,NA,NA,NA
"experimental",36,18,"ld","lower","overflow","nw","w","g","g",1,0.655748546065297,NA,NA,NA
"experimental",36,19,"ld","lower","create","w","w","g","g",1,0.547913679096382,NA,NA,NA
"experimental",36,20,"ld","lower","blerapies","w","nw","h","h",1,0.524592690286227,NA,NA,NA
"experimental",36,21,"ld","lower","ephically","nw","nw","h","h",1,0.430103304737713,NA,NA,NA
"experimental",36,22,"ld","lower","atabaster","nw","nw","h","h",1,0.451415684365202,NA,NA,NA
"experimental",36,23,"ld","lower","tinion","nw","nw","h","h",1,0.430910456401762,NA,NA,NA
"experimental",36,24,"ld","lower","geborn","nw","nw","h","h",1,0.388314169307705,NA,NA,NA
"experimental",36,25,"ld","lower","usually","nw","w","g","g",1,0.563030391582288,NA,NA,NA
"experimental",36,26,"ld","lower","itself","w","w","g","h",0,0.55509362090379,NA,NA,NA
"experimental",36,27,"ld","lower","divider","w","w","g","h",0,0.595153902366292,NA,NA,NA
"experimental",36,28,"ld","lower","disperse","w","w","g","g",1,0.576956240925938,NA,NA,NA
"experimental",36,29,"ld","lower","fullity","w","nw","h","g",0,0.504368541762233,NA,NA,NA
"experimental",36,30,"ld","lower","recollect","nw","w","g","h",0,0.634429544967134,NA,NA,NA
"experimental",37,1,"hd","upper","prawls","nw","nw","h","h",1,0.614768879779149,NA,NA,NA
"experimental",37,2,"hd","upper","slooping","nw","nw","h","h",1,0.660825523373205,NA,NA,NA
"experimental",37,3,"hd","upper","veirs","nw","nw","h","h",1,0.600047797313891,NA,NA,NA
"experimental",37,4,"hd","upper","hackal","nw","nw","h","h",1,1.34266970935278,NA,NA,NA
"experimental",37,5,"hd","upper","thesis","w","w","g","g",1,0.735420176351909,NA,NA,NA
"experimental",37,6,"hd","upper","seighing","nw","nw","h","g",0,0.631408851011656,NA,NA,NA
