"procedure","block","trial","PMdemand","context","stim","role","word_type","correct_key","response","correct","reaction_time","pressedQ","pressedQ_blank","pressedQ_fix"
"LDTpractice",1,1,NA,"upper","tricycle","","w","g","g",1,0.592094821855426,NA,NA,NA
"LDTpractice",2,1,NA,"upper","picture","","w","g","g",1,0.555206729099154,NA,NA,NA
"LDTpractice",3,1,NA,"upper","summary","","w","g","g",1,0.418673276435584,NA,NA,NA
"LDTpractice",4,1,NA,"upper","lumbigo","","nw","h","g",0,0.526092700660229,NA,NA,NA
"LDTpractice",5,1,NA,"upper","julled","","nw","h","h",1,0.52081883372739,NA,NA,NA
"LDTpractice",6,1,NA,"upper","revival","","w","g","g",1,0.611047781072557,NA,NA,NA
"LDTpractice",7,1,NA,"upper","treeps","","nw","h","g",0,0.578447121195495,NA,NA,NA
"LDTpractice",8,1,NA,"upper","hiring","","w","g","g",1,0.817898858338594,NA,NA,NA
"LDTpractice",9,1,NA,"upper","turative","","nw","h","h",1,0.582125727552921,NA,NA,NA
"LDTpractice",10,1,NA,"upper","alolition","","nw","h","h",1,0.549465904943645,NA,NA,NA
"LDTpractice",11,1,NA,"upper","latador","","nw","h","h",1,0.422113424167037,NA,NA,NA
"LDTpractice",12,1,NA,"upper","grimace","","w","g","h",0,0.459479340352118,NA,NA,NA
"LDTpractice",13,1,NA,"upper","slumber","","w","g","h",0,0.575454007834196,NA,NA,NA
"LDTpractice",14,1,NA,"upper","grutch","","nw","h","h",1,0.662804544903338,NA,NA,NA
"LDTpractice",1,2,NA,"lower","unscrew","","w","g","g",1,1.29580744635314,NA,NA,NA
"LDTpractice",2,2,NA,"lower","sponsor","","w","g","g",1,0.572628722060472,NA,NA,NA
"LDTpractice",3,2,NA,"lower","umpire","","w","g","g",1,0.57247930765152,NA,NA,NA
"LDTpractice",4,2,NA,"lower","grocus","","nw","h","h",1,0.547463755588979,NA,NA,NA
"LDTpractice",5,2,NA,"lower","lurshing","","nw","h","h",1,0.547958482522517,NA,NA,NA
"LDTpractice",6,2,NA,"lower","reputable","","w","g","g",1,0.621422858908772,NA,NA,NA
"LDTpractice",7,2,NA,"lower","trotch","","nw","h","h",1,0.49076515622437,NA,NA,NA
"LDTpractice",8,2,NA,"lower","overshoot","","w","g","g",1,0.8214165805839,NA,NA,NA
"LDTpractice",9,2,NA,"lower","hasking","","nw","h","h",1,0.505771469324827,NA,NA,NA
"LDTpractice",10,2,NA,"lower","crinklo","","nw","h","h",1,0.523777837865055,NA,NA,NA
"LDTpractice",11,2,NA,"lower","curlecs","","nw","h","h",1,0.965152399614453,NA,NA,NA
"LDTpractice",12,2,NA,"lower","busted","","w","g","g",1,0.589204336516559,NA,NA,NA
"LDTpractice",13,2,NA,"lower","infinity","","w","g","h",0,0.627599549945444,NA,NA,NA
"LDTpractice",14,2,NA,"lower","raestro","","nw","h","h",1,0.489223624579608,NA,NA,NA
"experimental",1,1,"hd","upper","insole","w","w","g","h",0,0.711649995762855,NA,NA,NA
"experimental",1,2,"hd","upper","micron","w","w","g","h",0,0.490258355624974,NA,NA,NA
"experimental",1,3,"hd","upper","thamp","nw","nw","h","h",1,0.685489840339869,NA,NA,NA
"experimental",1,4,"hd","upper","disuse","w","w","g","g",1,0.544935184530914,NA,NA,NA
"experimental",1,5,"hd","upper","fission","w","w","g","g",1,0.601343406829983,NA,NA,NA
"experimental",1,6,"hd","upper","childhood","w","w","g","h",0,0.430632446426898,NA,NA,NA
"experimental",1,7,"hd","upper","saturate","w","w","g","g",1,0.716672122478485,NA,NA,NA
"experimental",1,8,"hd","upper","otoist","nw","nw","h","h",1,0.519804628565907,NA,NA,NA
"experimental",1,9,"hd","upper","trembla","nw","nw","h","h",1,0.538377864751965,NA,NA,NA
"experimental",1,10,"hd","upper","minister","w","w","g","g",1,0.587799541652203,NA,NA,NA
"experimental",1,11,"hd","upper","birn","nw","nw","h","h",1,0.931088989600539,NA,NA,NA
"experimental",1,12,"hd","upper","pressures","w","w","g","g",1,0.589042244944721,NA,NA,NA
"experimental",1,13,"hd","upper","spider","target","target","q","q",1,1.18845231551677,1,NA,NA
"experimental",1,14,"hd","upper","butled","aftertar1","nw","h","h",1,0.946976393461227,NA,NA,NA
"experimental",1,15,"hd","upper","lofty","aftertar2","w","g","h",0,0.996077810414136,NA,NA,NA
"experimental",1,16,"hd","upper","dounger","aftertar3","nw","h","h",1,0.827470721676946,NA,NA,NA
"experimental",1,17,"hd","upper","handcuff","nw","w","g","g",1,0.67354998877272,NA,NA,NA
"experimental",1,18,"hd","upper","bellicove","w","nw","h","h",1,0.621470249257982,NA,NA,NA
"experimental",1,19,"hd","upper","pircus","nw","nw","h","h",1,0.491434954106808,NA,NA,NA
"experimental",1,20,"hd","upper","mitro","nw","nw","h","h",1,0.51082770479843,NA,NA,NA
"experimental",1,21,"hd","upper","peadgear","nw","nw","h","h",1,0.593548515345901,NA,NA,NA
"experimental",1,22,"hd","upper","analysis","nw","w","g","g",1,0.624799619428813,NA,NA,NA
"experimental",1,23,"hd","upper","cripet","w","nw","h","h",1,0.902829790953547,NA,NA,NA
"experimental",1,24,"hd","upper","abstain","nw","w","g","g",1,0.61767120519653,NA,NA,NA
"experimental",1,25,"hd","upper","drobate","w","nw","h","g",0,0.630513579118997,NA,NA,NA
"experimental",1,26,"hd","upper","blocking","nw","w","g","g",1,0.468510897830129,NA,NA,NA
"experimental",1,27,"hd","upper","shimble","w","nw","h","h",1,0.672507711686194,NA,NA,NA
"experimental",1,28,"hd","upper","cessation","nw","w","g","h",0,0.484469839837402,NA,NA,NA
"experimental",1,29,"hd","upper","fallacy","w","w","g","h",0,0.519928385969251,NA,NA,NA
"experimental",1,30,"hd","upper","glating","w","nw","h","h",1,0.713882152922451,NA,NA,NA
"experimental",2,1,"hd","upper","probable","w","w","g","g",1,0.819526416249573,NA,NA,NA
"experimental",2,2,"hd","upper","irfirm","nw","nw","h","h",1,0.577481814660132,NA,NA,NA
"experimental",2,3,"hd","upper","brother","w","w","g","g",1,0.617494927253574,NA,NA,NA
"experimental",2,4,"hd","upper","ofsters","nw","nw","h","h",1,0.53548194700852,NA,NA,NA
"experimental",2,5,"hd","upper","subber","nw","nw","h","h",1,0.520779593382031,NA,NA,NA
"experimental",2,6,"hd","upper","army","w","w","g","g",1,0.58684238512069,NA,NA,NA
"experimental",2,7,"hd","upper","fillings","w","w","g","g",1,0.890220443252474,NA,NA,NA
"experimental",2,8,"hd","upper","opert","nw","nw","h","h",1,0.517419133335352,NA,NA,NA
"experimental",2,9,"hd","upper","phonology","w","w","g","h",0,0.638477504719049,NA,NA,NA
"experimental",2,10,"hd","upper","digar","nw","nw","h","h",1,0.89185041654855,NA,NA,NA
"experimental",2,11,"hd","upper","peems","nw","nw","h","h",1,1.06313639553264,NA,NA,NA
"experimental",2,12,"hd","upper","edasion","nw","nw","h","h",1,0.667874061502516,NA,NA,NA
"experimental",2,13,"hd","upper","even","w","w","g","g",1,0.567844148725271,NA,NA,NA
"experimental",2,14,"hd","upper","leather","w","w","g","h",0,0.687882881611586,NA,NA,NA
"experimental",2,15,"hd","upper","latirizes","nw","nw","h","h",1,0.641339314170182,NA,NA,NA
"experimental",2,16,"hd","upper","forgive","w","w","g","g",1,0.560540663544089,NA,NA,NA
"experimental",2,17,"hd","upper","naxis","nw","nw","h","h",1,0.672333545982838,NA,NA,NA
"experimental",2,18,"hd","upper","thesis","w","w","g","g",1,0.764252231922001,NA,NA,NA
"experimental",2,19,"hd","upper","butterfly","target","target","q","g",0,0.628902924712747,NA,NA,NA
"experimental",2,20,"hd","upper","committed","aftertar1","w","g","h",0,0.674918863922358,NA,NA,NA
"experimental",2,21,"hd","upper","smallash","aftertar2","nw","h","q",0,2.30282689351588,NA,NA,1
"experimental",2,22,"hd","upper","kickoff","aftertar3","w","g","g",1,1.6722955130972,NA,NA,NA
"experimental",2,23,"hd","upper","markot","w","nw","h","h",1,0.685381477233022,NA,NA,NA
"experimental",2,24,"hd","upper","regional","nw","w","g","h",0,0.855896539520472,NA,NA,NA
"experimental",2,25,"hd","upper","soluced","w","nw","h","h",1,0.748505488969386,NA,NA,NA
"experimental",2,26,"hd","upper","sullen","nw","w","g","g",1,0.74177400348708,NA,NA,NA
"experimental",2,27,"hd","upper","forbid","w","w","g","g",1,0.415061981417239,NA,NA,NA
"experimental",2,28,"hd","upper","cheathe","w","nw","h","h",1,0.765793160069734,NA,NA,NA
"experimental",2,29,"hd","upper","mopping","nw","w","g","g",1,0.846503067295998,NA,NA,NA
"experimental",2,30,"hd","upper","crimb","w","nw","h","h",1,0.691848544403911,NA,NA,NA
"experimental",3,1,"ld","lower","grolific","nw","nw","h","h",1,0.870249354280531,NA,NA,NA
"experimental",3,2,"ld","lower","olgies","nw","nw","h","h",1,0.67410991480574,NA,NA,NA
"experimental",3,3,"ld","lower","awful","w","w","g","g",1,0.710144383832812,NA,NA,NA
"experimental",3,4,"ld","lower","infancy","w","w","g","g",1,0.832830917555839,NA,NA,NA
"experimental",3,5,"ld","lower","rivet","w","w","g","h",0,0.510843400843441,NA,NA,NA
"experimental",3,6,"ld","lower","efficient","w","w","g","g",1,0.705528543330729,NA,NA,NA
"experimental",3,7,"ld","lower","egect","nw","nw","h","h",1,0.660221641883254,NA,NA,NA
"experimental",3,8,"ld","lower","bedding","w","w","g","g",1,0.943952794186771,NA,NA,NA
"experimental",3,9,"ld","lower","treason","w","w","g","h",0,0.610212269704789,NA,NA,NA
"experimental",3,10,"ld","lower","vorm","nw","nw","h","h",1,0.735854788217694,NA,NA,NA
"experimental",3,11,"ld","lower","preight","nw","nw","h","h",1,1.20015401020646,NA,NA,NA
"experimental",3,12,"ld","lower","eyesight","w","w","g","g",1,0.543822275940329,NA,NA,NA
"experimental",3,13,"ld","lower","ringlat","nw","nw","h","h",1,0.505710194353014,NA,NA,NA
"experimental",3,14,"ld","lower","bamps","nw","nw","h","h",1,1.10852449340746,NA,NA,NA
"experimental",3,15,"ld","lower","rapport","w","w","g","h",0,0.575229433830827,NA,NA,NA
"experimental",3,16,"ld","lower","remain","w","w","g","g",1,0.719131872057915,NA,NA,NA
"experimental",3,17,"ld","lower","temelity","nw","nw","h","h",1,0.545096974819899,NA,NA,NA
"experimental",3,18,"ld","lower","nollow","nw","nw","h","h",1,0.817492270842195,NA,NA,NA
"experimental",3,19,"ld","lower","cavern","w","w","g","g",1,0.671558101661503,NA,NA,NA
"experimental",3,20,"ld","lower","implode","w","w","g","g",1,0.595550363417715,NA,NA,NA
"experimental",3,21,"ld","lower","reses","nw","nw","h","h",1,1.00283857481554,NA,NA,NA
"experimental",3,22,"ld","lower","stalemate","w","w","g","g",1,0.737436465453357,NA,NA,NA
"experimental",3,23,"ld","lower","actively","w","w","g","g",1,0.882886773906648,NA,NA,NA
"experimental",3,24,"ld","lower","grummer","nw","nw","h","h",1,0.63091352628544,NA,NA,NA
"experimental",3,25,"ld","lower","batire","nw","nw","h","g",0,0.668843291699886,NA,NA,NA
"experimental",3,26,"ld","lower","previous","w","w","g","g",1,0.696875199209899,NA,NA,NA
"experimental",3,27,"ld","lower","aggepting","nw","nw","h","h",1,0.731266112998128,NA,NA,NA
"experimental",3,28,"ld","lower","phraining","nw","nw","h","h",1,0.725248495582491,NA,NA,NA
"experimental",3,29,"ld","lower","talate","nw","nw","h","g",0,0.767232365906239,NA,NA,NA
"experimental",3,30,"ld","lower","design","w","w","g","g",1,0.631185188423842,NA,NA,NA
"experimental",4,1,"ld","lower","chining","nw","nw","h","h",1,0.635631089564413,NA,NA,NA
"experimental",4,2,"ld","lower","razelle","nw","nw","h","h",1,0.977171033155173,NA,NA,NA
"experimental",4,3,"ld","lower","airbis","nw","nw","h","h",1,0.529884198214859,NA,NA,NA
"experimental",4,4,"ld","lower","sopes","nw","nw","h","h",1,0.484134789556265,NA,NA,NA
"experimental",4,5,"ld","lower","pegend","nw","nw","h","h",1,0.543412971310318,NA,NA,NA
"experimental",4,6,"ld","lower","kiner","nw","nw","h","h",1,0.472743695601821,NA,NA,NA
"experimental",4,7,"ld","lower","tracing","w","w","g","h",0,0.524801702238619,NA,NA,NA
"experimental",4,8,"ld","lower","regards","w","w","g","g",1,0.454599685035646,NA,NA,NA
"experimental",4,9,"ld","lower","illness","w","w","g","g",1,0.579507207032293,NA,NA,NA
"experimental",4,10,"ld","lower","relaying","w","w","g","g",1,0.499489434063435,NA,NA,NA
"experimental",4,11,"ld","lower","kilotin","nw","nw","h","h",1,0.469914485700428,NA,NA,NA
"experimental",4,12,"ld","lower","mandate","w","w","g","g",1,0.409917304757982,NA,NA,NA
"experimental",4,13,"ld","lower","ronvince","nw","nw","h","h",1,0.520472313743085,NA,NA,NA
"experimental",4,14,"ld","lower","kangaroo","target","target","q","g",0,0.418431195430458,NA,NA,NA
"experimental",4,15,"ld","lower","passet","aftertar1","nw","h","g",0,1.32846425054595,NA,NA,NA
"experimental",4,16,"ld","lower","surface","aftertar2","w","g","g",1,0.730479500256479,NA,NA,NA
"experimental",4,17,"ld","lower","cills","aftertar3","nw","h","h",1,0.692506872583181,NA,NA,NA
"experimental",4,18,"ld","lower","brimitive","nw","nw","h","h",1,0.527835564222187,NA,NA,NA
"experimental",4,19,"ld","lower","desert","nw","w","g","g",1,0.913868328090757,NA,NA,NA
"experimental",4,20,"ld","lower","visible","w","w","g","h",0,0.452512716408819,NA,NA,NA
"experimental",4,21,"ld","lower","rascaps","w","nw","h","h",1,0.593122308142483,NA,NA,NA
"experimental",4,22,"ld","lower","bingu","nw","nw","h","h",1,0.455522431060672,NA,NA,NA
"experimental",4,23,"ld","lower","trake","nw","nw","h","g",0,0.652169878594577,NA,NA,NA
"experimental",4,24,"ld","lower","reforest","nw","w","g","g",1,0.920885662548244,NA,NA,NA
"experimental",4,25,"ld","lower","rudder","w","w","g","h",0,0.626879947260022,NA,NA,NA
"experimental",4,26,"ld","lower","ounside","w","nw","h","h",1,0.737013577949256,NA,NA,NA
"experimental",4,27,"ld","lower","aviation","nw","w","g","q",0,0.817055196501315,NA,NA,NA
"experimental",4,28,"ld","lower","curtail","w","w","g","h",0,0.632018888834864,NA,NA,NA
"experimental",4,29,"ld","lower","enacted","w","w","g","g",1,0.798743057530373,NA,NA,NA
"experimental",4,30,"ld","lower","demise","w","w","g","g",1,1.05324638495222,NA,NA,NA
"experimental",5,1,"hd","upper","subpoena","w","w","g","g",1,0.897690548095852,NA,NA,NA
"experimental",5,2,"hd","upper","sarlock","nw","nw","h","h",1,0.661128691397607,NA,NA,NA
"experimental",5,3,"hd","upper","pariah","w","w","g","h",0,0.721740432549268,NA,NA,NA
"experimental",5,4,"hd","upper","mounting","w","w","g","g",1,0.691698225215077,NA,NA,NA
"experimental",5,5,"hd","upper","snocks","nw","nw","h","h",1,0.638163282070309,NA,NA,NA
"experimental",5,6,"hd","upper","chrayed","nw","nw","h","h",1,0.643437149003148,NA,NA,NA
"experimental",5,7,"hd","upper","removable","w","w","g","g",1,0.504760886076838,NA,NA,NA
"experimental",5,8,"hd","upper","charcoal","w","w","g","g",1,0.547455605585128,NA,NA,NA
"experimental",5,9,"hd","upper","airline","w","w","g","g",1,0.620812826789916,NA,NA,NA
"experimental",5,10,"hd","upper","alber","nw","nw","h","h",1,0.47480500722304,NA,NA,NA
"experimental",5,11,"hd","upper","aligning","w","w","g","g",1,0.606752199586481,NA,NA,NA
"experimental",5,12,"hd","upper","sength","nw","nw","h","h",1,0.613448067102581,NA,NA,NA
"experimental",5,13,"hd","upper","slightly","w","w","g","g",1,0.523266810923815,NA,NA,NA
"experimental",5,14,"hd","upper","tining","nw","nw","h","h",1,0.550248895771801,NA,NA,NA
"experimental",5,15,"hd","upper","porghum","nw","nw","h","h",1,0.582490962464362,NA,NA,NA
"experimental",5,16,"hd","upper","entropy","w","w","g","g",1,0.486510927323252,NA,NA,NA
"experimental",5,17,"hd","upper","donastic","nw","nw","h","h",1,0.600714056286961,NA,NA,NA
"experimental",5,18,"hd","upper","urique","nw","nw","h","h",1,0.940048405900598,NA,NA,NA
"experimental",5,19,"hd","upper","ordinary","w","w","g","h",0,0.577031459193677,NA,NA,NA
"experimental",5,20,"hd","upper","flieves","nw","nw","h","h",1,1.59358805743977,NA,NA,NA
"experimental",5,21,"hd","upper","theery","nw","nw","h","h",1,0.705095996614546,NA,NA,NA
"experimental",5,22,"hd","upper","bureaug","nw","nw","h","h",1,0.714773808140308,NA,NA,NA
"experimental",5,23,"hd","upper","chiffol","nw","nw","h","h",1,0.885408401954919,NA,NA,NA
"experimental",5,24,"hd","upper","caloric","w","w","g","g",1,0.624776679091156,NA,NA,NA
"experimental",5,25,"hd","upper","solidity","w","w","g","g",1,0.57483250554651,NA,NA,NA
"experimental",5,26,"hd","upper","category","w","w","g","h",0,0.566972415428609,NA,NA,NA
"experimental",5,27,"hd","upper","sputter","w","w","g","h",0,0.551477713976055,NA,NA,NA
"experimental",5,28,"hd","upper","renown","w","w","g","g",1,0.752128857653588,NA,NA,NA
"experimental",5,29,"hd","upper","pender","nw","nw","h","h",1,1.09678084217012,NA,NA,NA
"experimental",5,30,"hd","upper","leuter","nw","nw","h","h",1,0.804168451577425,NA,NA,NA
"experimental",6,1,"ld","lower","currowing","nw","nw","h","h",1,0.689818625338376,NA,NA,NA
"experimental",6,2,"ld","lower","sefraud","nw","nw","h","h",1,0.637134890537709,NA,NA,NA
"experimental",6,3,"ld","lower","repayment","w","w","g","g",1,0.698436049278826,NA,NA,NA
"experimental",6,4,"ld","lower","lindo","nw","nw","h","h",1,0.549786767922342,NA,NA,NA
"experimental",6,5,"ld","lower","undue","w","w","g","h",0,0.623126784339547,NA,NA,NA
"experimental",6,6,"ld","lower","actual","w","w","g","g",1,0.652184367179871,NA,NA,NA
"experimental",6,7,"ld","lower","afternoon","w","w","g","g",1,0.856884483713657,NA,NA,NA
"experimental",6,8,"ld","lower","snays","nw","nw","h","h",1,0.548203279729933,NA,NA,NA
"experimental",6,9,"ld","lower","laser","w","w","g","g",1,0.71784721268341,NA,NA,NA
"experimental",6,10,"ld","lower","urgency","w","w","g","g",1,0.856764953117818,NA,NA,NA
"experimental",6,11,"ld","lower","tibs","nw","nw","h","h",1,0.70145270600915,NA,NA,NA
"experimental",6,12,"ld","lower","gaioty","nw","nw","h","g",0,0.872102391906083,NA,NA,NA
"experimental",6,13,"ld","lower","nimp","nw","nw","h","h",1,0.732051820494235,NA,NA,NA
"experimental",6,14,"ld","lower","hodels","nw","nw","h","h",1,0.742139540147036,NA,NA,NA
"experimental",6,15,"ld","lower","cookbook","w","w","g","g",1,0.670753076206893,NA,NA,NA
"experimental",6,16,"ld","lower","otiates","nw","nw","h","h",1,0.547567288391292,NA,NA,NA
"experimental",6,17,"ld","lower","stelled","nw","nw","h","h",1,0.843841081019491,NA,NA,NA
"experimental",6,18,"ld","lower","rootsie","nw","nw","h","h",1,0.529165802989155,NA,NA,NA
"experimental",6,19,"ld","lower","ludictous","nw","nw","h","h",1,0.515117249917239,NA,NA,NA
"experimental",6,20,"ld","lower","accessory","w","w","g","g",1,1.01382700540125,NA,NA,NA
"experimental",6,21,"ld","lower","hangar","w","w","g","g",1,0.556474485434592,NA,NA,NA
"experimental",6,22,"ld","lower","scatter","w","w","g","g",1,0.621133690234274,NA,NA,NA
"experimental",6,23,"ld","lower","irregular","w","w","g","g",1,0.531081926077604,NA,NA,NA
"experimental",6,24,"ld","lower","lifetime","w","w","g","g",1,0.476228516548872,NA,NA,NA
"experimental",6,25,"ld","lower","galashes","nw","nw","h","h",1,0.577137106098235,NA,NA,NA
"experimental",6,26,"ld","lower","innocent","w","w","g","g",1,0.536121560260653,NA,NA,NA
"experimental",6,27,"ld","lower","capobly","nw","nw","h","h",1,0.513530138880014,NA,NA,NA
"experimental",6,28,"ld","lower","sonkers","nw","nw","h","h",1,0.556111967656761,NA,NA,NA
"experimental",6,29,"ld","lower","require","w","w","g","g",1,0.44478453323245,NA,NA,NA
"experimental",6,30,"ld","lower","acorn","w","w","g","g",1,0.546132007148117,NA,NA,NA
"experimental",7,1,"ld","lower","miurnal","nw","nw","h","h",1,0.658674979116768,NA,NA,NA
"experimental",7,2,"ld","lower","amidst","w","w","g","g",1,0.711146817542613,NA,NA,NA
"experimental",7,3,"ld","lower","equitable","w","w","g","g",1,1.09785934071988,NA,NA,NA
"experimental",7,4,"ld","lower","aicline","nw","nw","h","h",1,0.661187853198498,NA,NA,NA
"experimental",7,5,"ld","lower","plunging","w","w","g","g",1,1.03391762590036,NA,NA,NA
"experimental",7,6,"ld","lower","glocked","nw","nw","h","h",1,0.583186719100922,NA,NA,NA
"experimental",7,7,"ld","lower","culinary","w","w","g","g",1,0.534471062012017,NA,NA,NA
"experimental",7,8,"ld","lower","nopping","nw","nw","h","h",1,0.527855184394866,NA,NA,NA
"experimental",7,9,"ld","lower","seasoning","w","w","g","g",1,0.488942907191813,NA,NA,NA
"experimental",7,10,"ld","lower","ottans","nw","nw","h","h",1,0.556175053585321,NA,NA,NA
"experimental",7,11,"ld","lower","landing","w","w","g","g",1,0.596737526822835,NA,NA,NA
"experimental",7,12,"ld","lower","prama","nw","nw","h","h",1,0.684171976987273,NA,NA,NA
"experimental",7,13,"ld","lower","oldest","w","w","g","g",1,0.463529218453914,NA,NA,NA
"experimental",7,14,"ld","lower","practice","w","w","g","h",0,0.476124982815236,NA,NA,NA
"experimental",7,15,"ld","lower","hegacy","nw","nw","h","h",1,0.536131822969764,NA,NA,NA
"experimental",7,16,"ld","lower","scabry","nw","nw","h","h",1,0.617487078998238,NA,NA,NA
"experimental",7,17,"ld","lower","ciping","nw","nw","h","h",1,0.711443230975419,NA,NA,NA
"experimental",7,18,"ld","lower","loneliest","w","w","g","g",1,0.586125801317394,NA,NA,NA
"experimental",7,19,"ld","lower","lightels","nw","nw","h","h",1,0.569431862793863,NA,NA,NA
"experimental",7,20,"ld","lower","maroon","w","w","g","g",1,0.392497122753412,NA,NA,NA
"experimental",7,21,"ld","lower","baladroit","nw","nw","h","h",1,0.55981713719666,NA,NA,NA
"experimental",7,22,"ld","lower","nogwhell","nw","nw","h","h",1,0.640487804077566,NA,NA,NA
"experimental",7,23,"ld","lower","heaviest","w","w","g","g",1,0.477881429716945,NA,NA,NA
"experimental",7,24,"ld","lower","expensive","w","w","g","g",1,0.60827320581302,NA,NA,NA
"experimental",7,25,"ld","lower","odacles","nw","nw","h","h",1,0.558728978969157,NA,NA,NA
"experimental",7,26,"ld","lower","function","w","w","g","g",1,0.53491990827024,NA,NA,NA
"experimental",7,27,"ld","lower","maintain","w","w","g","g",1,0.584906943608075,NA,NA,NA
"experimental",7,28,"ld","lower","seartfelt","nw","nw","h","h",1,0.655676131136715,NA,NA,NA
"experimental",7,29,"ld","lower","religious","w","w","g","g",1,0.64447972830385,NA,NA,NA
"experimental",7,30,"ld","lower","huests","nw","nw","h","h",1,0.640134945511818,NA,NA,NA
"experimental",8,1,"hd","upper","corg","nw","nw","h","h",1,0.573419560678303,NA,NA,NA
"experimental",8,2,"hd","upper","addition","w","w","g","g",1,0.469437265768647,NA,NA,NA
"experimental",8,3,"hd","upper","preclude","w","w","g","g",1,0.712556743528694,NA,NA,NA
"experimental",8,4,"hd","upper","ausht","nw","nw","h","h",1,0.492134634871036,NA,NA,NA
"experimental",8,5,"hd","upper","trewl","nw","nw","h","h",1,0.526387000922114,NA,NA,NA
"experimental",8,6,"hd","upper","yash","nw","nw","h","h",1,0.608403603546321,NA,NA,NA
"experimental",8,7,"hd","upper","encrusted","w","w","g","g",1,0.711135950870812,NA,NA,NA
"experimental",8,8,"hd","upper","shockwave","w","w","g","g",1,0.593844627495855,NA,NA,NA
"experimental",8,9,"hd","upper","century","w","w","g","g",1,0.553163829725236,NA,NA,NA
"experimental",8,10,"hd","upper","halms","nw","nw","h","h",1,0.545860345009714,NA,NA,NA
"experimental",8,11,"hd","upper","sheerio","nw","nw","h","h",1,0.523126452695578,NA,NA,NA
"experimental",8,12,"hd","upper","ignore","w","w","g","g",1,0.469122741371393,NA,NA,NA
"experimental",8,13,"hd","upper","rantho","nw","nw","h","h",1,0.504286081064492,NA,NA,NA
"experimental",8,14,"hd","upper","paranoid","w","w","g","g",1,0.650875560007989,NA,NA,NA
"experimental",8,15,"hd","upper","tusied","nw","nw","h","h",1,0.511457055341452,NA,NA,NA
"experimental",8,16,"hd","upper","inducing","w","w","g","g",1,0.608395453542471,NA,NA,NA
"experimental",8,17,"hd","upper","agony","w","w","g","g",1,0.694336365908384,NA,NA,NA
"experimental",8,18,"hd","upper","lonnote","nw","nw","h","h",1,0.761341825593263,NA,NA,NA
"experimental",8,19,"hd","upper","deakers","nw","nw","h","h",1,0.594094858504832,NA,NA,NA
"experimental",8,20,"hd","upper","gazes","w","w","g","g",1,0.624814711511135,NA,NA,NA
"experimental",8,21,"hd","upper","ladybug","target","target","q","g",0,1.08614194998518,1,1,NA
"experimental",8,22,"hd","upper","hivinity","aftertar1","nw","h","h",1,0.759927371516824,NA,NA,NA
"experimental",8,23,"hd","upper","gonesty","aftertar2","nw","h","h",1,0.903850939124823,NA,NA,NA
"experimental",8,24,"hd","upper","huzzles","aftertar3","nw","h","h",1,0.86582850664854,NA,NA,NA
"experimental",8,25,"hd","upper","chappef","nw","nw","h","h",1,0.638549948111176,NA,NA,NA
"experimental",8,26,"hd","upper","couple","nw","w","g","g",1,0.539120408240706,NA,NA,NA
"experimental",8,27,"hd","upper","jiggling","w","w","g","g",1,0.94051626836881,NA,NA,NA
"experimental",8,28,"hd","upper","coverall","w","w","g","g",1,0.693193876184523,NA,NA,NA
"experimental",8,29,"hd","upper","ahead","w","w","g","g",1,0.695821150671691,NA,NA,NA
"experimental",8,30,"hd","upper","sweeping","w","w","g","g",1,0.466500598471612,NA,NA,NA
"experimental",9,1,"hd","upper","reconcile","w","w","g","g",1,0.630151060875505,NA,NA,NA
"experimental",9,2,"hd","upper","terrify","w","w","g","g",1,0.459454890806228,NA,NA,NA
"experimental",9,3,"hd","upper","quickel","nw","nw","h","h",1,0.671462416183203,NA,NA,NA
"experimental",9,4,"hd","upper","permeable","w","w","g","g",1,0.650814284570515,NA,NA,NA
"experimental",9,5,"hd","upper","splinging","nw","nw","h","h",1,0.711547669954598,NA,NA,NA
"experimental",9,6,"hd","upper","elalt","nw","nw","h","h",1,0.881476847454906,NA,NA,NA
"experimental",9,7,"hd","upper","ifling","nw","nw","h","h",1,0.506523671559989,NA,NA,NA
"experimental",9,8,"hd","upper","unamufed","nw","nw","h","h",1,0.549478884320706,NA,NA,NA
"experimental",9,9,"hd","upper","holdup","w","w","g","g",1,0.550630128011107,NA,NA,NA
"experimental",9,10,"hd","upper","etuip","nw","nw","h","h",1,0.575913117267191,NA,NA,NA
"experimental",9,11,"hd","upper","educate","w","w","g","g",1,0.503142082132399,NA,NA,NA
"experimental",9,12,"hd","upper","flamingo","target","target","q","g",0,0.673112612683326,1,1,NA
"experimental",9,13,"hd","upper","epthuse","aftertar1","nw","h","q",0,0.0124448491260409,NA,NA,1
"experimental",9,14,"hd","upper","butler","aftertar2","w","g","g",1,1.37045687437057,NA,NA,NA
"experimental",9,15,"hd","upper","browting","aftertar3","nw","h","h",1,0.625828916672617,NA,NA,NA
"experimental",9,16,"hd","upper","pexts","nw","nw","h","h",1,0.60624238057062,NA,NA,NA
"experimental",9,17,"hd","upper","glamorous","nw","w","g","g",1,0.565171597059816,NA,NA,NA
"experimental",9,18,"hd","upper","chraps","w","nw","h","h",1,0.916213376447558,NA,NA,NA
"experimental",9,19,"hd","upper","derived","nw","w","g","g",1,0.862151710316539,NA,NA,NA
"experimental",9,20,"hd","upper","intended","w","w","g","g",1,0.722136455122381,NA,NA,NA
"experimental",9,21,"hd","upper","tredits","w","nw","h","h",1,0.667587005067617,NA,NA,NA
"experimental",9,22,"hd","upper","antonym","nw","w","g","g",1,0.815467180684209,NA,NA,NA
"experimental",9,23,"hd","upper","trallion","w","nw","h","h",1,0.645487292669713,NA,NA,NA
"experimental",9,24,"hd","upper","urgent","nw","w","g","g",1,0.546124460641295,NA,NA,NA
"experimental",9,25,"hd","upper","humanize","w","w","g","g",1,0.586915130726993,NA,NA,NA
"experimental",9,26,"hd","upper","efcorted","w","nw","h","h",1,0.712519012857229,NA,NA,NA
"experimental",9,27,"hd","upper","suburb","nw","w","g","g",1,0.586451493669301,NA,NA,NA
"experimental",9,28,"hd","upper","owner","w","w","g","g",1,0.673188980203122,NA,NA,NA
"experimental",9,29,"hd","upper","guivers","w","nw","h","h",1,0.508536084089428,NA,NA,NA
"experimental",9,30,"hd","upper","duplex","nw","w","g","h",0,0.550602056086063,NA,NA,NA
"experimental",10,1,"ld","lower","phambled","nw","nw","h","h",1,0.926937992684543,NA,NA,NA
"experimental",10,2,"ld","lower","cayward","nw","nw","h","h",1,0.632177358493209,NA,NA,NA
"experimental",10,3,"ld","lower","student","w","w","g","g",1,0.637563512660563,NA,NA,NA
"experimental",10,4,"ld","lower","triplet","w","w","g","g",1,0.786077566444874,NA,NA,NA
"experimental",10,5,"ld","lower","chight","nw","nw","h","h",1,0.520797402597964,NA,NA,NA
"experimental",10,6,"ld","lower","attended","w","w","g","g",1,0.474183806683868,NA,NA,NA
"experimental",10,7,"ld","lower","govern","w","w","g","h",0,0.533605667296797,NA,NA,NA
"experimental",10,8,"ld","lower","bluads","nw","nw","h","h",1,0.510848531965166,NA,NA,NA
"experimental",10,9,"ld","lower","iolize","nw","nw","h","h",1,0.895896974019706,NA,NA,NA
"experimental",10,10,"ld","lower","arrow","w","w","g","g",1,0.523451239336282,NA,NA,NA
"experimental",10,11,"ld","lower","clattest","nw","nw","h","h",1,0.603882240597159,NA,NA,NA
"experimental",10,12,"ld","lower","levels","w","w","g","g",1,0.721804424189031,NA,NA,NA
"experimental",10,13,"ld","lower","runabouk","nw","nw","h","h",1,0.779180367011577,NA,NA,NA
"experimental",10,14,"ld","lower","facienda","nw","nw","h","h",1,0.506482620257884,NA,NA,NA
"experimental",10,15,"ld","lower","erony","nw","nw","h","h",1,0.628580853808671,NA,NA,NA
"experimental",10,16,"ld","lower","system","w","w","g","g",1,0.633842345327139,NA,NA,NA
"experimental",10,17,"ld","lower","misest","nw","nw","h","h",1,0.7911836062558,NA,NA,NA
"experimental",10,18,"ld","lower","entertain","w","w","g","g",1,0.517817571293563,NA,NA,NA
"experimental",10,19,"ld","lower","filny","nw","nw","h","h",1,0.559865432791412,NA,NA,NA
"experimental",10,20,"ld","lower","optional","w","w","g","g",1,0.567016484681517,NA,NA,NA
"experimental",10,21,"ld","lower","typical","w","w","g","g",1,0.974948836956173,NA,NA,NA
"experimental",10,22,"ld","lower","geissue","nw","nw","h","h",1,0.558287377469242,NA,NA,NA
"experimental",10,23,"ld","lower","cobalt","w","w","g","g",1,0.837097521871328,NA,NA,NA
"experimental",10,24,"ld","lower","throttle","w","w","g","h",0,0.601441809441894,NA,NA,NA
"experimental",10,25,"ld","lower","topefuls","nw","nw","h","h",1,0.825091867242008,NA,NA,NA
"experimental",10,26,"ld","lower","dishwater","w","w","g","g",1,0.614843504503369,NA,NA,NA
"experimental",10,27,"ld","lower","jungle","w","w","g","g",1,0.652755461167544,NA,NA,NA
"experimental",10,28,"ld","lower","pregs","nw","nw","h","h",1,0.863833902403712,NA,NA,NA
"experimental",10,29,"ld","lower","tinion","nw","nw","h","h",1,0.739801133051515,NA,NA,NA
"experimental",10,30,"ld","lower","integral","w","w","g","g",1,0.492637210059911,NA,NA,NA
"experimental",11,1,"hd","upper","warmer","w","w","g","g",1,1.15179362660274,NA,NA,NA
"experimental",11,2,"hd","upper","statute","w","w","g","g",1,0.815503703895956,NA,NA,NA
"experimental",11,3,"hd","upper","knowledge","w","w","g","g",1,0.957459833938628,NA,NA,NA
"experimental",11,4,"hd","upper","admire","w","w","g","g",1,0.709448023699224,NA,NA,NA
"experimental",11,5,"hd","upper","smabled","nw","nw","h","h",1,0.655449745710939,NA,NA,NA
"experimental",11,6,"hd","upper","disperse","w","w","g","g",1,0.835430421866477,NA,NA,NA
"experimental",11,7,"hd","upper","mubby","nw","nw","h","h",1,0.736837601289153,NA,NA,NA
"experimental",11,8,"hd","upper","legalosm","nw","nw","h","h",1,0.769511308521032,NA,NA,NA
"experimental",11,9,"hd","upper","ebince","nw","nw","h","h",1,0.632819386664778,NA,NA,NA
"experimental",11,10,"hd","upper","cartles","nw","nw","h","h",1,0.558191389776766,NA,NA,NA
"experimental",11,11,"hd","upper","prohibit","w","w","g","g",1,0.78928649937734,NA,NA,NA
"experimental",11,12,"hd","upper","rangel","nw","nw","h","h",1,0.555947461165488,NA,NA,NA
"experimental",11,13,"hd","upper","comment","w","w","g","g",1,0.802456678356975,NA,NA,NA
"experimental",11,14,"hd","upper","scack","nw","nw","h","h",1,0.673374011646956,NA,NA,NA
"experimental",11,15,"hd","upper","bickering","w","w","g","g",1,0.70954340742901,NA,NA,NA
"experimental",11,16,"hd","upper","dialogues","w","w","g","g",1,0.655532150063664,NA,NA,NA
"experimental",11,17,"hd","upper","fidelity","w","w","g","g",1,0.747522675897926,NA,NA,NA
"experimental",11,18,"hd","upper","fabstand","nw","nw","h","h",1,0.628242182079703,NA,NA,NA
"experimental",11,19,"hd","upper","formation","w","w","g","g",1,0.576702446211129,NA,NA,NA
"experimental",11,20,"hd","upper","elpousal","nw","nw","h","h",1,0.511987400241196,NA,NA,NA
"experimental",11,21,"hd","upper","porcupine","target","target","q","g",0,0.570105283055454,NA,NA,NA
"experimental",11,22,"hd","upper","setwixt","aftertar1","nw","h","h",1,1.66523199668154,NA,NA,NA
"experimental",11,23,"hd","upper","favoting","aftertar2","nw","h","h",1,0.773245153948665,NA,NA,NA
"experimental",11,24,"hd","upper","vibrate","aftertar3","w","g","g",1,0.81253443704918,NA,NA,NA
"experimental",11,25,"hd","upper","gaining","w","w","g","g",1,0.738506210502237,NA,NA,NA
"experimental",11,26,"hd","upper","rejoiced","w","w","g","g",1,0.699254657607526,NA,NA,NA
"experimental",11,27,"hd","upper","imotope","w","nw","h","h",1,0.597872772719711,NA,NA,NA
"experimental",11,28,"hd","upper","chemical","nw","w","g","g",1,0.500532314646989,NA,NA,NA
"experimental",11,29,"hd","upper","gerby","w","nw","h","h",1,0.582177645061165,NA,NA,NA
"experimental",11,30,"hd","upper","attrove","nw","nw","h","h",1,0.813453862443566,NA,NA,NA
"experimental",12,1,"hd","upper","dentures","w","w","g","g",1,2.82012346899137,NA,NA,NA
"experimental",12,2,"hd","upper","pocket","w","w","g","g",1,0.89601861871779,NA,NA,NA
"experimental",12,3,"hd","upper","wimpid","nw","nw","h","h",1,0.619255901314318,NA,NA,NA
"experimental",12,4,"hd","upper","rearrange","w","w","g","g",1,0.537175609264523,NA,NA,NA
"experimental",12,5,"hd","upper","havel","nw","nw","h","h",1,0.681626503355801,NA,NA,NA
"experimental",12,6,"hd","upper","wienegs","nw","nw","h","h",1,0.613113621249795,NA,NA,NA
"experimental",12,7,"hd","upper","pillage","w","w","g","h",0,0.64305440755561,NA,NA,NA
"experimental",12,8,"hd","upper","happen","w","w","g","g",1,0.799651314504445,NA,NA,NA
"experimental",12,9,"hd","upper","image","w","w","g","g",1,0.374314476270229,NA,NA,NA
"experimental",12,10,"hd","upper","pammed","nw","nw","h","h",1,0.613510549068451,NA,NA,NA
"experimental",12,11,"hd","upper","rabbit","target","target","q","g",0,0.499379259999842,1,1,NA
"experimental",12,12,"hd","upper","theles","aftertar1","nw","h","h",1,1.21274977456778,NA,NA,NA
"experimental",12,13,"hd","upper","ghists","aftertar2","nw","h","h",1,0.506454548798501,NA,NA,NA
"experimental",12,14,"hd","upper","walnut","aftertar3","w","g","g",1,0.548211731482297,NA,NA,NA
"experimental",12,15,"hd","upper","country","w","w","g","g",1,0.780925041530281,NA,NA,NA
"experimental",12,16,"hd","upper","fullity","w","nw","h","h",1,0.668010496068746,NA,NA,NA
"experimental",12,17,"hd","upper","suspect","nw","w","g","g",1,0.487959792371839,NA,NA,NA
"experimental",12,18,"hd","upper","praiged","w","nw","h","h",1,0.530446840450168,NA,NA,NA
"experimental",12,19,"hd","upper","fomrade","nw","nw","h","h",1,0.668732211925089,NA,NA,NA
"experimental",12,20,"hd","upper","culer","nw","nw","h","h",1,0.61486584180966,NA,NA,NA
"experimental",12,21,"hd","upper","infusion","nw","w","g","g",1,0.677747470326722,NA,NA,NA
"experimental",12,22,"hd","upper","classify","w","w","g","g",1,0.848172582220286,NA,NA,NA
"experimental",12,23,"hd","upper","potatoes","w","w","g","g",1,0.476807458791882,NA,NA,NA
"experimental",12,24,"hd","upper","mabit","w","nw","h","h",1,0.550957330036908,NA,NA,NA
"experimental",12,25,"hd","upper","sodent","nw","nw","h","g",0,0.503804032225162,NA,NA,NA
"experimental",12,26,"hd","upper","rationale","nw","w","g","g",1,0.482389209326357,NA,NA,NA
"experimental",12,27,"hd","upper","rasuals","w","nw","h","h",1,0.590215221513063,NA,NA,NA
"experimental",12,28,"hd","upper","fassed","nw","nw","h","h",1,0.61275291396305,NA,NA,NA
"experimental",12,29,"hd","upper","ilcurring","nw","nw","h","h",1,0.530764987226576,NA,NA,NA
"experimental",12,30,"hd","upper","remover","nw","w","g","h",0,0.69923805585131,NA,NA,NA
"experimental",13,1,"ld","lower","bettled","nw","nw","h","g",0,1.2625119346194,NA,NA,NA
"experimental",13,2,"ld","lower","sonnet","w","w","g","g",1,1.49041984369978,NA,NA,NA
"experimental",13,3,"ld","lower","igiom","nw","nw","h","h",1,0.62109143147245,NA,NA,NA
"experimental",13,4,"ld","lower","hubris","w","w","g","h",0,1.0815345607698,NA,NA,NA
"experimental",13,5,"ld","lower","mestowal","nw","nw","h","h",1,0.981764839496464,NA,NA,NA
"experimental",13,6,"ld","lower","alarm","w","w","g","g",1,0.61208643624559,NA,NA,NA
"experimental",13,7,"ld","lower","criminal","w","w","g","g",1,0.770245098508894,NA,NA,NA
"experimental",13,8,"ld","lower","redefloy","nw","nw","h","h",1,0.977467145305127,NA,NA,NA
"experimental",13,9,"ld","lower","migmarole","nw","nw","h","h",1,0.76879291376099,NA,NA,NA
"experimental",13,10,"ld","lower","brouhuha","nw","nw","h","h",1,0.440811927430332,NA,NA,NA
"experimental",13,11,"ld","lower","elvisages","nw","nw","h","h",1,0.517442375421524,NA,NA,NA
"experimental",13,12,"ld","lower","sponto","nw","nw","h","h",1,0.487480761483312,NA,NA,NA
"experimental",13,13,"ld","lower","unbridled","w","w","g","g",1,0.561285621486604,NA,NA,NA
"experimental",13,14,"ld","lower","living","w","w","g","g",1,0.5519232400693,NA,NA,NA
"experimental",13,15,"ld","lower","serving","w","w","g","g",1,0.512049278710037,NA,NA,NA
"experimental",13,16,"ld","lower","rebool","nw","nw","h","h",1,0.570540244225413,NA,NA,NA
"experimental",13,17,"ld","lower","ebciting","nw","nw","h","h",1,0.562582958955318,NA,NA,NA
"experimental",13,18,"ld","lower","dricked","nw","nw","h","h",1,0.514407909475267,NA,NA,NA
"experimental",13,19,"ld","lower","stagger","w","w","g","h",0,0.444530982058495,NA,NA,NA
"experimental",13,20,"ld","lower","contact","w","w","g","g",1,0.457090826239437,NA,NA,NA
"experimental",13,21,"ld","lower","befin","nw","nw","h","h",1,0.461082750465721,NA,NA,NA
"experimental",13,22,"ld","lower","command","w","w","g","g",1,0.473148773889989,NA,NA,NA
"experimental",13,23,"ld","lower","borrent","nw","nw","h","h",1,0.644481237046421,NA,NA,NA
"experimental",13,24,"ld","lower","wrestle","w","w","g","g",1,0.521177729126066,NA,NA,NA
"experimental",13,25,"ld","lower","comply","w","w","g","g",1,0.681537760421634,NA,NA,NA
"experimental",13,26,"ld","lower","contund","nw","nw","h","h",1,0.652760894969106,NA,NA,NA
"experimental",13,27,"ld","lower","ethical","w","w","g","g",1,0.568809756543487,NA,NA,NA
"experimental",13,28,"ld","lower","violate","w","w","g","g",1,0.800733434967697,NA,NA,NA
"experimental",13,29,"ld","lower","engineer","w","w","g","g",1,0.471069049555808,NA,NA,NA
"experimental",13,30,"ld","lower","tunneg","nw","nw","h","h",1,1.29841359145939,NA,NA,NA
"experimental",14,1,"ld","lower","atsless","nw","nw","h","h",1,2.42082121828571,NA,NA,NA
"experimental",14,2,"ld","lower","prison","w","w","g","g",1,0.546134723816067,NA,NA,NA
"experimental",14,3,"ld","lower","rainfall","w","w","g","g",1,0.490819790400565,NA,NA,NA
"experimental",14,4,"ld","lower","triangle","w","w","g","g",1,1.24436098150909,NA,NA,NA
"experimental",14,5,"ld","lower","cemoir","nw","nw","h","h",1,0.54530072119087,NA,NA,NA
"experimental",14,6,"ld","lower","glates","nw","nw","h","h",1,0.641566001344472,NA,NA,NA
"experimental",14,7,"ld","lower","rarely","w","w","g","g",1,0.550673292018473,NA,NA,NA
"experimental",14,8,"ld","lower","eugenifs","nw","nw","h","h",1,0.47845463687554,NA,NA,NA
"experimental",14,9,"ld","lower","become","w","w","g","g",1,0.553816724568605,NA,NA,NA
"experimental",14,10,"ld","lower","saucer","w","w","g","h",0,0.537733422126621,NA,NA,NA
"experimental",14,11,"ld","lower","lignpost","nw","nw","h","h",1,0.546571797691286,NA,NA,NA
"experimental",14,12,"ld","lower","crocodile","target","target","q","g",0,0.531173386145383,NA,NA,NA
"experimental",14,13,"ld","lower","pastnoss","aftertar1","nw","h","h",1,1.08454518020153,NA,NA,NA
"experimental",14,14,"ld","lower","mining","aftertar2","w","g","g",1,0.71097295358777,NA,NA,NA
"experimental",14,15,"ld","lower","antwers","aftertar3","nw","h","h",1,0.62495688162744,NA,NA,NA
"experimental",14,16,"ld","lower","shurk","nw","nw","h","h",1,0.77434447966516,NA,NA,NA
"experimental",14,17,"ld","lower","withep","nw","nw","h","h",1,0.668649204075336,NA,NA,NA
"experimental",14,18,"ld","lower","earterner","nw","nw","h","h",1,0.560059218201786,NA,NA,NA
"experimental",14,19,"ld","lower","bloves","nw","nw","h","h",1,0.472001454327255,NA,NA,NA
"experimental",14,20,"ld","lower","glapula","nw","nw","h","h",1,0.50738302944228,NA,NA,NA
"experimental",14,21,"ld","lower","movie","nw","w","g","g",1,0.589392990805209,NA,NA,NA
"experimental",14,22,"ld","lower","module","w","w","g","g",1,1.10004259832203,NA,NA,NA
"experimental",14,23,"ld","lower","sequence","w","w","g","g",1,0.638806819915771,NA,NA,NA
"experimental",14,24,"ld","lower","ezulated","w","nw","h","h",1,0.546604699455202,NA,NA,NA
"experimental",14,25,"ld","lower","airmen","nw","w","g","g",1,0.835097786504775,NA,NA,NA
"experimental",14,26,"ld","lower","volume","w","w","g","g",1,0.527739576529711,NA,NA,NA
"experimental",14,27,"ld","lower","unspoken","w","w","g","g",1,0.545113274361938,NA,NA,NA
"experimental",14,28,"ld","lower","catacomb","w","w","g","h",0,0.521783838048577,NA,NA,NA
"experimental",14,29,"ld","lower","encounter","w","w","g","g",1,0.482061102520674,NA,NA,NA
"experimental",14,30,"ld","lower","clarms","w","nw","h","g",0,0.533244054764509,NA,NA,NA
"experimental",15,1,"hd","upper","apticle","nw","nw","h","h",1,0.559814118780196,NA,NA,NA
"experimental",15,2,"hd","upper","describe","w","w","g","g",1,0.614725784398615,NA,NA,NA
"experimental",15,3,"hd","upper","ugifies","nw","nw","h","h",1,0.64469977421686,NA,NA,NA
"experimental",15,4,"hd","upper","glassware","w","w","g","g",1,0.489461781922728,NA,NA,NA
"experimental",15,5,"hd","upper","observer","w","w","g","g",1,0.580196926835924,NA,NA,NA
"experimental",15,6,"hd","upper","plogging","nw","nw","h","h",1,0.531450481154025,NA,NA,NA
"experimental",15,7,"hd","upper","bookend","w","w","g","h",0,0.692762235179543,NA,NA,NA
"experimental",15,8,"hd","upper","pived","nw","nw","h","h",1,0.551438171882182,NA,NA,NA
"experimental",15,9,"hd","upper","sunhess","nw","nw","h","h",1,0.646525947377086,NA,NA,NA
"experimental",15,10,"hd","upper","eightiech","nw","nw","h","h",1,0.492129202000797,NA,NA,NA
"experimental",15,11,"hd","upper","deadly","w","w","g","g",1,0.581772265024483,NA,NA,NA
"experimental",15,12,"hd","upper","yearnungs","nw","nw","h","h",1,0.661122654564679,NA,NA,NA
"experimental",15,13,"hd","upper","amaze","w","w","g","g",1,0.521082044113427,NA,NA,NA
"experimental",15,14,"hd","upper","boutique","w","w","g","h",0,0.650597257073969,NA,NA,NA
"experimental",15,15,"hd","upper","veirs","nw","nw","h","h",1,0.69444744521752,NA,NA,NA
"experimental",15,16,"hd","upper","gymnasium","w","w","g","g",1,0.553130023181438,NA,NA,NA
"experimental",15,17,"hd","upper","dumult","nw","nw","h","h",1,0.584402859676629,NA,NA,NA
"experimental",15,18,"hd","upper","strenuous","w","w","g","h",0,0.590957765001804,NA,NA,NA
"experimental",15,19,"hd","upper","neally","nw","nw","h","h",1,0.66186127346009,NA,NA,NA
"experimental",15,20,"hd","upper","daining","nw","nw","h","h",1,0.697816659230739,NA,NA,NA
"experimental",15,21,"hd","upper","kraums","nw","nw","h","h",1,0.57823160244152,NA,NA,NA
"experimental",15,22,"hd","upper","podges","nw","nw","h","h",1,0.473849963862449,NA,NA,NA
"experimental",15,23,"hd","upper","mosary","nw","nw","h","h",1,0.477791479323059,NA,NA,NA
"experimental",15,24,"hd","upper","summon","w","w","g","g",1,0.601477125193924,NA,NA,NA
"experimental",15,25,"hd","upper","sustain","w","w","g","g",1,0.591475432273,NA,NA,NA
"experimental",15,26,"hd","upper","alchemist","w","w","g","g",1,0.774160956963897,NA,NA,NA
"experimental",15,27,"hd","upper","lentils","w","w","g","g",1,0.653494684491307,NA,NA,NA
"experimental",15,28,"hd","upper","doxing","nw","nw","h","g",0,0.840579927898943,NA,NA,NA
"experimental",15,29,"hd","upper","consonant","w","w","g","g",1,0.693684376776218,NA,NA,NA
"experimental",15,30,"hd","upper","hindsight","w","w","g","g",1,0.679814818780869,NA,NA,NA
"experimental",16,1,"ld","lower","insertion","w","w","g","g",1,1.12373696733266,NA,NA,NA
"experimental",16,2,"ld","lower","sunshine","w","w","g","g",1,1.87625670898706,NA,NA,NA
"experimental",16,3,"ld","lower","hustle","w","w","g","g",1,0.656441916245967,NA,NA,NA
"experimental",16,4,"ld","lower","elderly","w","w","g","g",1,0.427457017824054,NA,NA,NA
"experimental",16,5,"ld","lower","flougy","nw","nw","h","h",1,0.768788083922118,NA,NA,NA
"experimental",16,6,"ld","lower","fuintets","nw","nw","h","h",1,0.696297464426607,NA,NA,NA
"experimental",16,7,"ld","lower","imprives","nw","nw","h","h",1,0.642863941844553,NA,NA,NA
"experimental",16,8,"ld","lower","oppose","w","w","g","g",1,1.47955154813826,NA,NA,NA
"experimental",16,9,"ld","lower","elbalm","nw","nw","h","h",1,1.73086375137791,NA,NA,NA
"experimental",16,10,"ld","lower","forgery","w","w","g","h",0,0.522901576478034,NA,NA,NA
"experimental",16,11,"ld","lower","brighten","w","w","g","g",1,0.636557155288756,NA,NA,NA
"experimental",16,12,"ld","lower","downtrund","nw","nw","h","h",1,1.2569344099611,NA,NA,NA
"experimental",16,13,"ld","lower","talent","w","w","g","g",1,0.981078439857811,NA,NA,NA
"experimental",16,14,"ld","lower","dealer","w","w","g","g",1,0.644494820386171,NA,NA,NA
"experimental",16,15,"ld","lower","nomma","nw","nw","h","g",0,1.16111284447834,NA,NA,NA
"experimental",16,16,"ld","lower","bentler","nw","nw","h","h",1,0.593157925643027,NA,NA,NA
"experimental",16,17,"ld","lower","gontracts","nw","nw","h","h",1,0.50377958221361,NA,NA,NA
"experimental",16,18,"ld","lower","joadbed","nw","nw","h","h",1,0.425819499418139,NA,NA,NA
"experimental",16,19,"ld","lower","dazid","nw","nw","h","h",1,0.534326477441937,NA,NA,NA
"experimental",16,20,"ld","lower","moozy","nw","nw","h","h",1,0.422819443978369,NA,NA,NA
"experimental",16,21,"ld","lower","sefine","nw","nw","h","h",1,0.476123474072665,NA,NA,NA
"experimental",16,22,"ld","lower","clume","nw","nw","h","h",1,0.43144713062793,NA,NA,NA
"experimental",16,23,"ld","lower","vivid","w","w","g","g",1,0.716874963603914,NA,NA,NA
"experimental",16,24,"ld","lower","confined","w","w","g","h",0,0.654790512751788,NA,NA,NA
"experimental",16,25,"ld","lower","nameplate","w","w","g","g",1,0.674828611779958,NA,NA,NA
"experimental",16,26,"ld","lower","quittint","nw","nw","h","h",1,0.558188371825963,NA,NA,NA
"experimental",16,27,"ld","lower","portify","nw","nw","h","h",1,0.55819501215592,NA,NA,NA
"experimental",16,28,"ld","lower","arrival","w","w","g","g",1,0.470148718450218,NA,NA,NA
"experimental",16,29,"ld","lower","except","w","w","g","g",1,0.505375748500228,NA,NA,NA
"experimental",16,30,"ld","lower","retain","w","w","g","g",1,0.580161912366748,NA,NA,NA
"experimental",17,1,"ld","lower","condensed","w","w","g","g",1,0.689902840182185,NA,NA,NA
"experimental",17,2,"ld","lower","crudios","nw","nw","h","h",1,0.588846346363425,NA,NA,NA
"experimental",17,3,"ld","lower","profats","nw","nw","h","h",1,0.579411822836846,NA,NA,NA
"experimental",17,4,"ld","lower","explosion","w","w","g","h",0,0.507032283581793,NA,NA,NA
"experimental",17,5,"ld","lower","houted","nw","nw","h","h",1,0.716788937337697,NA,NA,NA
"experimental",17,6,"ld","lower","crundle","nw","nw","h","h",1,0.542843386530876,NA,NA,NA
"experimental",17,7,"ld","lower","tipoff","w","w","g","g",1,1.23947227094322,NA,NA,NA
"experimental",17,8,"ld","lower","harfing","nw","nw","h","h",1,0.892162827774882,NA,NA,NA
"experimental",17,9,"ld","lower","offonents","nw","nw","h","h",1,0.822916457429528,NA,NA,NA
"experimental",17,10,"ld","lower","doads","nw","nw","h","h",1,0.540116200689226,NA,NA,NA
"experimental",17,11,"ld","lower","breiled","nw","nw","h","h",1,0.540851801633835,NA,NA,NA
"experimental",17,12,"ld","lower","exit","w","w","g","g",1,0.517413096036762,NA,NA,NA
"experimental",17,13,"ld","lower","frader","nw","nw","h","h",1,0.494063134305179,NA,NA,NA
"experimental",17,14,"ld","lower","warden","w","w","g","g",1,0.665420952718705,NA,NA,NA
"experimental",17,15,"ld","lower","neliefs","nw","nw","h","h",1,0.500545595772564,NA,NA,NA
"experimental",17,16,"ld","lower","potent","w","w","g","h",0,0.590483865235001,NA,NA,NA
"experimental",17,17,"ld","lower","latter","w","w","g","g",1,0.55714971665293,NA,NA,NA
"experimental",17,18,"ld","lower","primal","w","w","g","g",1,1.15714446501806,NA,NA,NA
"experimental",17,19,"ld","lower","number","w","w","g","g",1,0.669122801627964,NA,NA,NA
"experimental",17,20,"ld","lower","daylight","w","w","g","g",1,0.448448651004583,NA,NA,NA
"experimental",17,21,"ld","lower","trocess","nw","nw","h","h",1,0.397154015023261,NA,NA,NA
"experimental",17,22,"ld","lower","tablet","w","w","g","g",1,0.834905208088458,NA,NA,NA
"experimental",17,23,"ld","lower","deceit","w","w","g","h",0,0.456480190623552,NA,NA,NA
"experimental",17,24,"ld","lower","omners","nw","nw","h","h",1,0.587530897930264,NA,NA,NA
"experimental",17,25,"ld","lower","erlighten","nw","nw","h","h",1,0.738278014119714,NA,NA,NA
"experimental",17,26,"ld","lower","perishing","w","w","g","h",0,0.537703237496316,NA,NA,NA
"experimental",17,27,"ld","lower","exclusion","w","w","g","g",1,0.482479160185903,NA,NA,NA
"experimental",17,28,"ld","lower","tuckel","nw","nw","h","h",1,0.66249183146283,NA,NA,NA
"experimental",17,29,"ld","lower","prawls","nw","nw","h","h",1,0.930906673893332,NA,NA,NA
"experimental",17,30,"ld","lower","protest","w","w","g","g",1,0.684108589310199,NA,NA,NA
"experimental",18,1,"hd","upper","divider","w","w","g","g",1,1.02995649026707,NA,NA,NA
"experimental",18,2,"hd","upper","standard","w","w","g","g",1,0.843135966453701,NA,NA,NA
"experimental",18,3,"hd","upper","tinker","w","w","g","g",1,0.655778759159148,NA,NA,NA
"experimental",18,4,"hd","upper","calcify","w","w","g","h",0,0.691809304524213,NA,NA,NA
"experimental",18,5,"hd","upper","carbled","nw","nw","h","g",0,0.614517812151462,NA,NA,NA
"experimental",18,6,"hd","upper","gigoho","nw","nw","h","g",0,0.539605475962162,NA,NA,NA
"experimental",18,7,"hd","upper","restock","w","w","g","g",1,0.533102186862379,NA,NA,NA
"experimental",18,8,"hd","upper","painter","w","w","g","g",1,0.805389119777828,NA,NA,NA
"experimental",18,9,"hd","upper","grested","nw","nw","h","h",1,0.563432054128498,NA,NA,NA
"experimental",18,10,"hd","upper","ascending","w","w","g","g",1,0.643442884087563,NA,NA,NA
"experimental",18,11,"hd","upper","racile","nw","nw","h","h",1,0.648102795239538,NA,NA,NA
"experimental",18,12,"hd","upper","fudden","nw","nw","h","h",1,0.636821874883026,NA,NA,NA
"experimental",18,13,"hd","upper","scrib","nw","nw","h","h",1,0.793456814717501,NA,NA,NA
"experimental",18,14,"hd","upper","slending","nw","nw","h","h",1,0.648126339074224,NA,NA,NA
"experimental",18,15,"hd","upper","ulcer","w","w","g","g",1,0.547867324203253,NA,NA,NA
"experimental",18,16,"hd","upper","squirrel","target","target","q","g",0,0.435423358343542,1,1,NA
"experimental",18,17,"hd","upper","trecious","aftertar1","nw","h","g",0,0.840075240004808,NA,NA,NA
"experimental",18,18,"hd","upper","snorls","aftertar2","nw","h","g",0,0.573028668761253,NA,NA,NA
"experimental",18,19,"hd","upper","pranny","aftertar3","nw","h","h",1,0.532971486914903,NA,NA,NA
"experimental",18,20,"hd","upper","vergas","nw","nw","h","h",1,0.526433485560119,NA,NA,NA
"experimental",18,21,"hd","upper","emission","nw","w","g","g",1,0.719782050698996,NA,NA,NA
"experimental",18,22,"hd","upper","vented","w","w","g","g",1,0.977089534513652,NA,NA,NA
"experimental",18,23,"hd","upper","arrive","w","w","g","g",1,0.720514934044331,NA,NA,NA
"experimental",18,24,"hd","upper","unlined","w","w","g","h",0,0.761803650762886,NA,NA,NA
"experimental",18,25,"hd","upper","sprea","w","nw","h","h",1,0.537722857668996,NA,NA,NA
"experimental",18,26,"hd","upper","senalize","nw","nw","h","h",1,0.617491003125906,NA,NA,NA
"experimental",18,27,"hd","upper","ready","nw","w","g","g",1,0.598765635862947,NA,NA,NA
"experimental",18,28,"hd","upper","unmarked","w","w","g","g",1,0.773427770938724,NA,NA,NA
"experimental",18,29,"hd","upper","hangar","w","w","g","g",1,0.764771408867091,NA,NA,NA
"experimental",18,30,"hd","upper","elormity","w","nw","h","h",1,0.532859502360225,NA,NA,NA
"experimental",19,1,"hd","upper","twenties","w","w","g","g",1,0.661854330915958,NA,NA,NA
"experimental",19,2,"hd","upper","vinegar","w","w","g","h",0,0.561773405876011,NA,NA,NA
"experimental",19,3,"hd","upper","plashed","nw","nw","h","h",1,0.665803694631904,NA,NA,NA
"experimental",19,4,"hd","upper","nelvet","nw","nw","h","h",1,0.669808899518102,NA,NA,NA
"experimental",19,5,"hd","upper","gensions","nw","nw","h","h",1,1.7532155062072,NA,NA,NA
"experimental",19,6,"hd","upper","revising","w","w","g","h",0,0.977225063834339,NA,NA,NA
"experimental",19,7,"hd","upper","moral","w","w","g","g",1,1.15840075118467,NA,NA,NA
"experimental",19,8,"hd","upper","fuestion","nw","nw","h","h",1,1.06395560735837,NA,NA,NA
"experimental",19,9,"hd","upper","bamboo","w","w","g","g",1,0.995469891000539,NA,NA,NA
"experimental",19,10,"hd","upper","bother","w","w","g","g",1,0.802037714980543,NA,NA,NA
"experimental",19,11,"hd","upper","destroy","w","w","g","g",1,0.984091474674642,NA,NA,NA
"experimental",19,12,"hd","upper","traze","nw","nw","h","g",0,0.710749888792634,NA,NA,NA
"experimental",19,13,"hd","upper","giving","w","w","g","g",1,0.584756623953581,NA,NA,NA
"experimental",19,14,"hd","upper","farochial","nw","nw","h","h",1,0.735394773539156,NA,NA,NA
"experimental",19,15,"hd","upper","footstep","w","w","g","g",1,0.87211989890784,NA,NA,NA
"experimental",19,16,"hd","upper","mineluyer","nw","nw","h","h",1,0.650649476796389,NA,NA,NA
"experimental",19,17,"hd","upper","giraffe","target","target","q","g",0,0.518385948613286,1,1,NA
"experimental",19,18,"hd","upper","chrik","aftertar1","nw","h","h",1,0.53579345298931,NA,NA,NA
"experimental",19,19,"hd","upper","causality","aftertar2","w","g","g",1,1.0964524326846,NA,NA,NA
"experimental",19,20,"hd","upper","hostade","aftertar3","nw","h","h",1,0.539102297276258,NA,NA,NA
"experimental",19,21,"hd","upper","intercede","nw","w","g","g",1,0.627809937112033,NA,NA,NA
"experimental",19,22,"hd","upper","inverted","w","w","g","g",1,0.569130619522184,NA,NA,NA
"experimental",19,23,"hd","upper","funtair","w","nw","h","h",1,0.616473477333784,NA,NA,NA
"experimental",19,24,"hd","upper","monopoly","nw","w","g","g",1,0.5984788807109,NA,NA,NA
"experimental",19,25,"hd","upper","priant","w","nw","h","h",1,0.653197968844324,NA,NA,NA
"experimental",19,26,"hd","upper","sequence","nw","w","g","g",1,0.584392295219004,NA,NA,NA
"experimental",19,27,"hd","upper","pamine","w","nw","h","h",1,0.662863706704229,NA,NA,NA
"experimental",19,28,"hd","upper","region","nw","w","g","g",1,0.626795128453523,NA,NA,NA
"experimental",19,29,"hd","upper","susher","w","nw","h","h",1,0.664173722267151,NA,NA,NA
"experimental",19,30,"hd","upper","glattery","nw","nw","h","h",1,0.562946382910013,NA,NA,NA
"experimental",20,1,"ld","lower","series","w","w","g","g",1,1.66728938464075,NA,NA,NA
"experimental",20,2,"ld","lower","gund","nw","nw","h","h",1,0.75836259778589,NA,NA,NA
"experimental",20,3,"ld","lower","walsams","nw","nw","h","h",1,1.00647824350744,NA,NA,NA
"experimental",20,4,"ld","lower","frunted","nw","nw","h","h",1,0.892487010918558,NA,NA,NA
"experimental",20,5,"ld","lower","lasprey","nw","nw","h","h",1,0.951074265409261,NA,NA,NA
"experimental",20,6,"ld","lower","issue","w","w","g","g",1,0.567195781972259,NA,NA,NA
"experimental",20,7,"ld","lower","oppose","w","w","g","g",1,1.0624602586031,NA,NA,NA
"experimental",20,8,"ld","lower","column","w","w","g","h",0,1.48961270507425,NA,NA,NA
"experimental",20,9,"ld","lower","postal","w","w","g","g",1,0.71622508764267,NA,NA,NA
"experimental",20,10,"ld","lower","selongs","nw","nw","h","h",1,0.686163864098489,NA,NA,NA
"experimental",20,11,"ld","lower","scrobby","nw","nw","h","h",1,0.688798081129789,NA,NA,NA
"experimental",20,12,"ld","lower","kettle","w","w","g","g",1,0.843452302273363,NA,NA,NA
"experimental",20,13,"ld","lower","manage","w","w","g","g",1,0.632090728729963,NA,NA,NA
"experimental",20,14,"ld","lower","truthful","w","w","g","g",1,0.541459117084742,NA,NA,NA
"experimental",20,15,"ld","lower","anterior","w","w","g","g",1,0.574126787483692,NA,NA,NA
"experimental",20,16,"ld","lower","gounts","nw","nw","h","h",1,0.613422712311149,NA,NA,NA
"experimental",20,17,"ld","lower","chesume","nw","nw","h","h",1,0.675472148694098,NA,NA,NA
"experimental",20,18,"ld","lower","apology","w","w","g","g",1,0.805802348069847,NA,NA,NA
"experimental",20,19,"ld","lower","amkles","nw","nw","h","h",1,0.754607623443007,NA,NA,NA
"experimental",20,20,"ld","lower","felevance","nw","nw","h","h",1,0.850822494830936,NA,NA,NA
"experimental",20,21,"ld","lower","esdings","nw","nw","h","h",1,0.783312347717583,NA,NA,NA
"experimental",20,22,"ld","lower","drine","nw","nw","h","h",1,0.775227985344827,NA,NA,NA
"experimental",20,23,"ld","lower","acoustic","w","w","g","g",1,0.838419308885932,NA,NA,NA
"experimental",20,24,"ld","lower","labitable","nw","nw","h","h",1,1.17105809273198,NA,NA,NA
"experimental",20,25,"ld","lower","decant","w","w","g","h",0,0.786448837723583,NA,NA,NA
"experimental",20,26,"ld","lower","sporidic","nw","nw","h","h",1,0.568119433242828,NA,NA,NA
"experimental",20,27,"ld","lower","hutting","nw","nw","h","h",1,0.743451064452529,NA,NA,NA
"experimental",20,28,"ld","lower","female","w","w","g","g",1,0.60022597014904,NA,NA,NA
"experimental",20,29,"ld","lower","helpful","w","w","g","g",1,0.814789232797921,NA,NA,NA
"experimental",20,30,"ld","lower","deeper","w","w","g","g",1,0.788794187363237,NA,NA,NA
"experimental",21,1,"hd","upper","fallint","nw","nw","h","h",1,0.948092320933938,NA,NA,NA
"experimental",21,2,"hd","upper","chone","nw","nw","h","h",1,0.635773863177747,NA,NA,NA
"experimental",21,3,"hd","upper","handle","w","w","g","g",1,0.552437888924032,NA,NA,NA
"experimental",21,4,"hd","upper","coupling","w","w","g","h",0,0.664471342694014,NA,NA,NA
"experimental",21,5,"hd","upper","gumdrep","nw","nw","h","h",1,1.62051188573241,NA,NA,NA
"experimental",21,6,"hd","upper","figure","w","w","g","g",1,0.88983317418024,NA,NA,NA
"experimental",21,7,"hd","upper","reborn","w","w","g","g",1,0.73243154399097,NA,NA,NA
"experimental",21,8,"hd","upper","martial","w","w","g","g",1,0.516564604826272,NA,NA,NA
"experimental",21,9,"hd","upper","personify","w","w","g","h",0,0.718583416659385,NA,NA,NA
"experimental",21,10,"hd","upper","gewer","nw","nw","h","h",1,0.639423492364585,NA,NA,NA
"experimental",21,11,"hd","upper","compose","w","w","g","g",1,0.668763906229287,NA,NA,NA
"experimental",21,12,"hd","upper","dehydrate","w","w","g","g",1,1.06415090197697,NA,NA,NA
"experimental",21,13,"hd","upper","record","w","w","g","g",1,1.46014551632106,NA,NA,NA
"experimental",21,14,"hd","upper","rawhide","w","w","g","h",0,0.648124829865992,NA,NA,NA
"experimental",21,15,"hd","upper","louches","nw","nw","h","h",1,0.660827750340104,NA,NA,NA
"experimental",21,16,"hd","upper","gunrunker","nw","nw","h","h",1,0.80080557661131,NA,NA,NA
"experimental",21,17,"hd","upper","ilterfere","nw","nw","h","h",1,0.782902741339058,NA,NA,NA
"experimental",21,18,"hd","upper","fetching","w","w","g","g",1,1.15717796981335,NA,NA,NA
"experimental",21,19,"hd","upper","dariner","nw","nw","h","h",1,0.749091373290867,NA,NA,NA
"experimental",21,20,"hd","upper","gradielts","nw","nw","h","h",1,0.549856796860695,NA,NA,NA
"experimental",21,21,"hd","upper","coster","nw","nw","h","h",1,1.23843452194706,NA,NA,NA
"experimental",21,22,"hd","upper","colored","w","w","g","g",1,0.803139757364988,NA,NA,NA
"experimental",21,23,"hd","upper","distrust","w","w","g","g",1,1.55309712188318,NA,NA,NA
"experimental",21,24,"hd","upper","thaken","nw","nw","h","h",1,0.576253902167082,NA,NA,NA
"experimental",21,25,"hd","upper","exemplify","w","w","g","g",1,0.703619362320751,NA,NA,NA
"experimental",21,26,"hd","upper","greakable","nw","nw","h","h",1,0.633498542010784,NA,NA,NA
"experimental",21,27,"hd","upper","unrealon","nw","nw","h","h",1,1.11074578389525,NA,NA,NA
"experimental",21,28,"hd","upper","ucility","nw","nw","h","h",1,0.64078874560073,NA,NA,NA
"experimental",21,29,"hd","upper","octopus","target","target","q","g",0,0.629496053326875,NA,NA,NA
"experimental",21,30,"hd","upper","picnic","aftertar1","w","g","g",1,0.59481898881495,NA,NA,NA
"experimental",22,1,"hd","upper","nores","nw","nw","h","h",1,0.600537777878344,NA,NA,NA
"experimental",22,2,"hd","upper","undimmec","nw","nw","h","h",1,0.686497102957219,NA,NA,NA
"experimental",22,3,"hd","upper","gackpedal","nw","nw","h","h",1,0.593211051076651,NA,NA,NA
"experimental",22,4,"hd","upper","bulmed","nw","nw","h","h",1,0.69578523049131,NA,NA,NA
"experimental",22,5,"hd","upper","unstatle","nw","nw","h","h",1,0.546480036806315,NA,NA,NA
"experimental",22,6,"hd","upper","seeming","w","w","g","h",0,0.627139535732567,NA,NA,NA
"experimental",22,7,"hd","upper","arranged","w","w","g","g",1,0.744563068263233,NA,NA,NA
"experimental",22,8,"hd","upper","realize","w","w","g","g",1,1.31310658808798,NA,NA,NA
"experimental",22,9,"hd","upper","undertake","w","w","g","g",1,0.970310056116432,NA,NA,NA
"experimental",22,10,"hd","upper","widely","w","w","g","g",1,0.689460031222552,NA,NA,NA
"experimental",22,11,"hd","upper","padicals","nw","nw","h","g",0,0.93208961142227,NA,NA,NA
"experimental",22,12,"hd","upper","godomy","nw","nw","h","h",1,0.733627460896969,NA,NA,NA
"experimental",22,13,"hd","upper","perform","w","w","g","g",1,0.830753004178405,NA,NA,NA
"experimental",22,14,"hd","upper","elephant","target","target","q","q",1,1.38009061617777,1,NA,NA
"experimental",22,15,"hd","upper","deserve","aftertar1","w","g","g",1,1.01142943650484,NA,NA,NA
"experimental",22,16,"hd","upper","frose","aftertar2","nw","h","h",1,0.649469858966768,NA,NA,NA
"experimental",22,17,"hd","upper","surdens","aftertar3","nw","h","h",1,1.09414330450818,NA,NA,NA
"experimental",22,18,"hd","upper","shamrock","nw","w","g","g",1,0.735756386071444,NA,NA,NA
"experimental",22,19,"hd","upper","maximized","w","w","g","g",1,0.728493650443852,NA,NA,NA
"experimental",22,20,"hd","upper","outset","w","w","g","g",1,0.83261720975861,NA,NA,NA
"experimental",22,21,"hd","upper","baseline","w","w","g","g",1,0.67801007675007,NA,NA,NA
"experimental",22,22,"hd","upper","cassette","w","w","g","g",1,0.91400898899883,NA,NA,NA
"experimental",22,23,"hd","upper","huntry","w","nw","h","h",1,0.764478315133601,NA,NA,NA
"experimental",22,24,"hd","upper","clypaper","nw","nw","h","h",1,0.732407999690622,NA,NA,NA
"experimental",22,25,"hd","upper","outlaved","nw","nw","h","h",1,0.797869210597128,NA,NA,NA
"experimental",22,26,"hd","upper","acting","nw","w","g","g",1,0.603616313543171,NA,NA,NA
"experimental",22,27,"hd","upper","fictional","w","w","g","g",1,2.31357112992555,NA,NA,NA
"experimental",22,28,"hd","upper","noblin","w","nw","h","h",1,0.739499588031322,NA,NA,NA
"experimental",22,29,"hd","upper","decency","nw","w","g","g",1,0.732175577897578,NA,NA,NA
"experimental",22,30,"hd","upper","fuhrek","w","nw","h","h",1,0.701469609513879,NA,NA,NA
"experimental",23,1,"ld","lower","serfume","nw","nw","h","h",1,1.07845300715417,NA,NA,NA
"experimental",23,2,"ld","lower","valif","nw","nw","h","h",1,0.657782418187708,NA,NA,NA
"experimental",23,3,"ld","lower","horks","nw","nw","h","h",1,0.677803311496973,NA,NA,NA
"experimental",23,4,"ld","lower","gallon","w","w","g","g",1,0.81719464994967,NA,NA,NA
"experimental",23,5,"ld","lower","uncarled","nw","nw","h","h",1,0.822413882706314,NA,NA,NA
"experimental",23,6,"ld","lower","assent","w","w","g","g",1,0.715797672979534,NA,NA,NA
"experimental",23,7,"ld","lower","miability","nw","nw","h","h",1,0.860960623249412,NA,NA,NA
"experimental",23,8,"ld","lower","fracture","w","w","g","g",1,0.872875421773642,NA,NA,NA
"experimental",23,9,"ld","lower","ounwit","nw","nw","h","h",1,0.67492791917175,NA,NA,NA
"experimental",23,10,"ld","lower","filter","w","w","g","g",1,0.830568877514452,NA,NA,NA
"experimental",23,11,"ld","lower","budget","w","w","g","g",1,0.740568729583174,NA,NA,NA
"experimental",23,12,"ld","lower","loached","nw","nw","h","h",1,0.749490716960281,NA,NA,NA
"experimental",23,13,"ld","lower","seldom","w","w","g","g",1,0.742019103374332,NA,NA,NA
"experimental",23,14,"ld","lower","ameld","nw","nw","h","g",0,0.534742422401905,NA,NA,NA
"experimental",23,15,"ld","lower","lavilion","nw","nw","h","h",1,0.838721759151667,NA,NA,NA
"experimental",23,16,"ld","lower","pimorous","nw","nw","h","h",1,0.570649210829288,NA,NA,NA
"experimental",23,17,"ld","lower","crazy","w","w","g","g",1,0.610740199685097,NA,NA,NA
"experimental",23,18,"ld","lower","itself","w","w","g","g",1,0.599749052431434,NA,NA,NA
"experimental",23,19,"ld","lower","anemic","w","w","g","g",1,0.662457119207829,NA,NA,NA
"experimental",23,20,"ld","lower","antique","w","w","g","g",1,0.810526552144438,NA,NA,NA
"experimental",23,21,"ld","lower","shazer","nw","nw","h","h",1,0.680452017579228,NA,NA,NA
"experimental",23,22,"ld","lower","allained","nw","nw","h","h",1,0.739786644466221,NA,NA,NA
"experimental",23,23,"ld","lower","marvel","w","w","g","g",1,0.524413829203695,NA,NA,NA
"experimental",23,24,"ld","lower","teamwork","w","w","g","g",1,0.621817976702005,NA,NA,NA
"experimental",23,25,"ld","lower","etber","nw","nw","h","h",1,1.69915353879333,NA,NA,NA
"experimental",23,26,"ld","lower","vopings","nw","nw","h","h",1,0.80481229070574,NA,NA,NA
"experimental",23,27,"ld","lower","recount","w","w","g","h",0,1.01880083652213,NA,NA,NA
"experimental",23,28,"ld","lower","cegalia","nw","nw","h","h",1,0.760169754270464,NA,NA,NA
"experimental",23,29,"ld","lower","whirlpool","w","w","g","g",1,0.672121347859502,NA,NA,NA
"experimental",23,30,"ld","lower","senior","w","w","g","g",1,0.587468415964395,NA,NA,NA
"experimental",24,1,"ld","lower","rillains","nw","nw","h","h",1,0.681803988758475,NA,NA,NA
"experimental",24,2,"ld","lower","dorte","nw","nw","h","h",1,0.597119664773345,NA,NA,NA
"experimental",24,3,"ld","lower","guffy","nw","nw","h","h",1,0.739787549711764,NA,NA,NA
"experimental",24,4,"ld","lower","haurded","nw","nw","h","h",1,0.508456396870315,NA,NA,NA
"experimental",24,5,"ld","lower","glaims","nw","nw","h","h",1,0.630501203238964,NA,NA,NA
"experimental",24,6,"ld","lower","omission","w","w","g","g",1,0.739897422492504,NA,NA,NA
"experimental",24,7,"ld","lower","whirling","w","w","g","g",1,1.35649525234476,NA,NA,NA
"experimental",24,8,"ld","lower","reloant","nw","nw","h","h",1,0.860491251572967,NA,NA,NA
"experimental",24,9,"ld","lower","athcan","nw","nw","h","h",1,0.695466480683535,NA,NA,NA
"experimental",24,10,"ld","lower","jaguar","target","target","q","q",1,0.882200978230685,1,NA,NA
"experimental",24,11,"ld","lower","submit","aftertar1","w","g","g",1,0.765405890997499,NA,NA,NA
"experimental",24,12,"ld","lower","result","aftertar2","w","g","g",1,0.845412193331867,NA,NA,NA
"experimental",24,13,"ld","lower","appain","aftertar3","nw","h","h",1,0.890064992476255,NA,NA,NA
"experimental",24,14,"ld","lower","prillway","nw","nw","h","h",1,0.61282626260072,NA,NA,NA
"experimental",24,15,"ld","lower","uncorked","nw","w","g","h",0,0.794774979818612,NA,NA,NA
"experimental",24,16,"ld","lower","fivalve","w","nw","h","h",1,0.857412414159626,NA,NA,NA
"experimental",24,17,"ld","lower","failure","nw","w","g","g",1,0.509529159869999,NA,NA,NA
"experimental",24,18,"ld","lower","angry","w","w","g","g",1,0.542440420947969,NA,NA,NA
"experimental",24,19,"ld","lower","other","w","w","g","g",1,0.991138692013919,NA,NA,NA
"experimental",24,20,"ld","lower","apop","w","nw","h","h",1,0.669863835442811,NA,NA,NA
"experimental",24,21,"ld","lower","detrabe","nw","nw","h","h",1,0.689143394120038,NA,NA,NA
"experimental",24,22,"ld","lower","permute","nw","w","g","h",0,0.986554242670536,NA,NA,NA
"experimental",24,23,"ld","lower","persona","w","w","g","g",1,0.705426518805325,NA,NA,NA
"experimental",24,24,"ld","lower","veclors","w","nw","h","h",1,0.820193195715547,NA,NA,NA
"experimental",24,25,"ld","lower","virulent","nw","w","g","h",0,0.712999251205474,NA,NA,NA
"experimental",24,26,"ld","lower","cherry","w","w","g","g",1,0.595804820302874,NA,NA,NA
"experimental",24,27,"ld","lower","surfaced","w","w","g","h",0,0.713453530333936,NA,NA,NA
"experimental",24,28,"ld","lower","recipus","w","nw","h","h",1,0.587376352865249,NA,NA,NA
"experimental",24,29,"ld","lower","combat","nw","w","g","g",1,0.746205416508019,NA,NA,NA
"experimental",24,30,"ld","lower","define","w","w","g","g",1,1.09077952429652,NA,NA,NA
"experimental",25,1,"hd","upper","yellep","nw","nw","h","h",1,1.91722818510607,NA,NA,NA
"experimental",25,2,"hd","upper","ignoble","w","w","g","h",0,0.982468746602535,NA,NA,NA
"experimental",25,3,"hd","upper","clooped","nw","nw","h","h",1,0.581792488694191,NA,NA,NA
"experimental",25,4,"hd","upper","index","w","w","g","g",1,0.693127469625324,NA,NA,NA
"experimental",25,5,"hd","upper","hatred","w","w","g","g",1,0.839802974369377,NA,NA,NA
"experimental",25,6,"hd","upper","tyena","nw","nw","h","h",1,0.644465239718556,NA,NA,NA
"experimental",25,7,"hd","upper","correct","w","w","g","g",1,0.689164523035288,NA,NA,NA
"experimental",25,8,"hd","upper","hanling","nw","nw","h","h",1,1.2918752883561,NA,NA,NA
"experimental",25,9,"hd","upper","shillac","nw","nw","h","h",1,0.981510684359819,NA,NA,NA
"experimental",25,10,"hd","upper","turntable","w","w","g","g",1,0.772929421626031,NA,NA,NA
"experimental",25,11,"hd","upper","collision","w","w","g","g",1,0.899017767980695,NA,NA,NA
"experimental",25,12,"hd","upper","threaded","w","w","g","h",0,0.710052924230695,NA,NA,NA
"experimental",25,13,"hd","upper","presence","w","w","g","g",1,0.616701673716307,NA,NA,NA
"experimental",25,14,"hd","upper","mixture","w","w","g","g",1,0.80678395414725,NA,NA,NA
"experimental",25,15,"hd","upper","bengths","nw","nw","h","h",1,0.868753402028233,NA,NA,NA
"experimental",25,16,"hd","upper","atch","nw","nw","h","h",1,0.743176082149148,NA,NA,NA
"experimental",25,17,"hd","upper","pollute","w","w","g","g",1,0.672798390034586,NA,NA,NA
"experimental",25,18,"hd","upper","despise","w","w","g","g",1,0.811114549636841,NA,NA,NA
"experimental",25,19,"hd","upper","abhorrent","w","w","g","g",1,1.04910987662151,NA,NA,NA
"experimental",25,20,"hd","upper","company","w","w","g","h",0,1.86995414830744,NA,NA,NA
"experimental",25,21,"hd","upper","tragedy","w","w","g","g",1,0.665096769109368,NA,NA,NA
"experimental",25,22,"hd","upper","gremieres","nw","nw","h","h",1,0.645126887597144,NA,NA,NA
"experimental",25,23,"hd","upper","latpin","nw","nw","h","h",1,0.601765690371394,NA,NA,NA
"experimental",25,24,"hd","upper","snife","nw","nw","h","h",1,0.67178659979254,NA,NA,NA
"experimental",25,25,"hd","upper","nearsipe","nw","nw","h","h",1,0.666168023366481,NA,NA,NA
"experimental",25,26,"hd","upper","decantel","nw","nw","h","h",1,0.702093224972486,NA,NA,NA
"experimental",25,27,"hd","upper","prame","nw","nw","h","h",1,0.648089513648301,NA,NA,NA
"experimental",25,28,"hd","upper","rodeo","w","w","g","g",1,0.692849770653993,NA,NA,NA
"experimental",25,29,"hd","upper","alomalous","nw","nw","h","h",1,0.551438775844872,NA,NA,NA
"experimental",25,30,"hd","upper","adok","nw","nw","h","h",1,0.783529073931277,NA,NA,NA
"experimental",26,1,"ld","lower","halter","w","w","g","g",1,3.64517971081659,NA,NA,NA
"experimental",26,2,"ld","lower","unwose","nw","nw","h","h",1,0.63507086224854,NA,NA,NA
"experimental",26,3,"ld","lower","exploit","w","w","g","h",0,0.951829184312373,NA,NA,NA
"experimental",26,4,"ld","lower","ipiocy","nw","nw","h","h",1,0.607779988087714,NA,NA,NA
"experimental",26,5,"ld","lower","brongs","nw","nw","h","h",1,0.525744369719177,NA,NA,NA
"experimental",26,6,"ld","lower","graveyard","w","w","g","g",1,0.559159412514418,NA,NA,NA
"experimental",26,7,"ld","lower","cutout","w","w","g","g",1,0.790226148441434,NA,NA,NA
"experimental",26,8,"ld","lower","turning","w","w","g","h",0,0.820899215526879,NA,NA,NA
"experimental",26,9,"ld","lower","erithets","nw","nw","h","h",1,0.922090031206608,NA,NA,NA
"experimental",26,10,"ld","lower","achieve","w","w","g","g",1,0.667426120955497,NA,NA,NA
"experimental",26,11,"ld","lower","obviously","w","w","g","g",1,0.966850589960814,NA,NA,NA
"experimental",26,12,"ld","lower","satisfies","w","w","g","g",1,0.630820859223604,NA,NA,NA
"experimental",26,13,"ld","lower","pleamed","nw","nw","h","h",1,0.692148881964386,NA,NA,NA
"experimental",26,14,"ld","lower","huffle","nw","nw","h","h",1,0.83879722096026,NA,NA,NA
"experimental",26,15,"ld","lower","digested","w","w","g","g",1,0.547475225757807,NA,NA,NA
"experimental",26,16,"ld","lower","paying","w","w","g","g",1,0.651173482649028,NA,NA,NA
"experimental",26,17,"ld","lower","cooray","nw","nw","h","h",1,0.839100275188684,NA,NA,NA
"experimental",26,18,"ld","lower","stuggard","nw","nw","h","h",1,0.683932612650096,NA,NA,NA
"experimental",26,19,"ld","lower","publish","w","w","g","g",1,0.574476024601609,NA,NA,NA
"experimental",26,20,"ld","lower","advantage","w","w","g","g",1,0.621790206525475,NA,NA,NA
"experimental",26,21,"ld","lower","single","w","w","g","g",1,0.547156776767224,NA,NA,NA
"experimental",26,22,"ld","lower","pigned","nw","nw","h","h",1,0.610769780352712,NA,NA,NA
"experimental",26,23,"ld","lower","dredigest","nw","nw","h","h",1,0.704344700090587,NA,NA,NA
"experimental",26,24,"ld","lower","newstrint","nw","nw","h","h",1,0.627007628325373,NA,NA,NA
"experimental",26,25,"ld","lower","rarren","nw","nw","h","h",1,0.655996994115412,NA,NA,NA
"experimental",26,26,"ld","lower","splum","nw","nw","h","h",1,0.644181503448635,NA,NA,NA
"experimental",26,27,"ld","lower","earnest","w","w","g","g",1,0.824752289801836,NA,NA,NA
"experimental",26,28,"ld","lower","maunches","nw","nw","h","h",1,0.574137351941317,NA,NA,NA
"experimental",26,29,"ld","lower","ralliep","nw","nw","h","h",1,0.549464999698102,NA,NA,NA
"experimental",26,30,"ld","lower","regiment","w","w","g","g",1,0.590204656589776,NA,NA,NA
"experimental",27,1,"ld","lower","poars","nw","nw","h","h",1,0.516442960593849,NA,NA,NA
"experimental",27,2,"ld","lower","rowel","nw","nw","h","h",1,0.62244279962033,NA,NA,NA
"experimental",27,3,"ld","lower","venturous","w","w","g","h",0,0.579827768262476,NA,NA,NA
"experimental",27,4,"ld","lower","ronic","nw","nw","h","h",1,0.659128352999687,NA,NA,NA
"experimental",27,5,"ld","lower","provide","w","w","g","g",1,0.647127226460725,NA,NA,NA
"experimental",27,6,"ld","lower","lancos","nw","nw","h","h",1,0.707767944317311,NA,NA,NA
"experimental",27,7,"ld","lower","curricula","w","w","g","h",0,0.725812647026032,NA,NA,NA
"experimental",27,8,"ld","lower","diatonic","w","w","g","h",0,0.943196970038116,NA,NA,NA
"experimental",27,9,"ld","lower","hasks","nw","nw","h","h",1,1.15097381081432,NA,NA,NA
"experimental",27,10,"ld","lower","booster","w","w","g","g",1,0.726860055699944,NA,NA,NA
"experimental",27,11,"ld","lower","affluent","w","w","g","g",1,1.09628249285743,NA,NA,NA
"experimental",27,12,"ld","lower","spaceship","w","w","g","g",1,0.57082518748939,NA,NA,NA
"experimental",27,13,"ld","lower","flooted","nw","nw","h","h",1,0.608967151492834,NA,NA,NA
"experimental",27,14,"ld","lower","natch","nw","nw","h","h",1,0.455079319421202,NA,NA,NA
"experimental",27,15,"ld","lower","planofoad","nw","nw","h","h",1,0.579700388945639,NA,NA,NA
"experimental",27,16,"ld","lower","inforl","nw","nw","h","h",1,0.635538120288402,NA,NA,NA
"experimental",27,17,"ld","lower","castaway","w","w","g","g",1,0.608162729535252,NA,NA,NA
"experimental",27,18,"ld","lower","managed","w","w","g","g",1,0.686169900931418,NA,NA,NA
"experimental",27,19,"ld","lower","expounded","w","w","g","h",0,0.695499381516129,NA,NA,NA
"experimental",27,20,"ld","lower","peahem","nw","nw","h","h",1,0.618481664452702,NA,NA,NA
"experimental",27,21,"ld","lower","elpired","nw","nw","h","h",1,0.687830661889166,NA,NA,NA
"experimental",27,22,"ld","lower","planar","w","w","g","g",1,0.768424962181598,NA,NA,NA
"experimental",27,23,"ld","lower","catgup","nw","nw","h","h",1,0.479840415529907,NA,NA,NA
"experimental",27,24,"ld","lower","stooping","w","w","g","g",1,0.547161003109068,NA,NA,NA
"experimental",27,25,"ld","lower","carony","nw","nw","h","h",1,0.443819830659777,NA,NA,NA
"experimental",27,26,"ld","lower","eggays","nw","nw","h","h",1,0.528494495898485,NA,NA,NA
"experimental",27,27,"ld","lower","hardest","w","w","g","g",1,0.632963065523654,NA,NA,NA
"experimental",27,28,"ld","lower","unburnid","nw","nw","h","h",1,0.806190523318946,NA,NA,NA
"experimental",27,29,"ld","lower","epic","w","w","g","g",1,0.540109559893608,NA,NA,NA
"experimental",27,30,"ld","lower","uncle","w","w","g","g",1,0.748736099805683,NA,NA,NA
"experimental",28,1,"hd","upper","patio","w","w","g","g",1,0.726163091603667,NA,NA,NA
"experimental",28,2,"hd","upper","presently","w","w","g","g",1,0.750662787817419,NA,NA,NA
"experimental",28,3,"hd","upper","peags","nw","nw","h","h",1,0.623435271903872,NA,NA,NA
"experimental",28,4,"hd","upper","harmful","w","w","g","g",1,0.818603972438723,NA,NA,NA
"experimental",28,5,"hd","upper","extend","w","w","g","g",1,0.66388938203454,NA,NA,NA
"experimental",28,6,"hd","upper","sording","nw","nw","h","g",0,0.68468149472028,NA,NA,NA
"experimental",28,7,"hd","upper","machinery","w","w","g","g",1,0.743876065127552,NA,NA,NA
"experimental",28,8,"hd","upper","partner","w","w","g","g",1,0.848466278985143,NA,NA,NA
"experimental",28,9,"hd","upper","defensa","nw","nw","h","h",1,0.6771419653669,NA,NA,NA
"experimental",28,10,"hd","upper","tucker","w","w","g","h",0,0.904455537907779,NA,NA,NA
"experimental",28,11,"hd","upper","fatho","nw","nw","h","h",1,0.665510299615562,NA,NA,NA
"experimental",28,12,"hd","upper","potter","w","w","g","h",0,0.70145149808377,NA,NA,NA
"experimental",28,13,"hd","upper","cervical","w","w","g","g",1,0.951513452455401,NA,NA,NA
"experimental",28,14,"hd","upper","riosk","nw","nw","h","h",1,0.727516874670982,NA,NA,NA
"experimental",28,15,"hd","upper","tharcely","nw","nw","h","h",1,0.736834884621203,NA,NA,NA
"experimental",28,16,"hd","upper","railroad","w","w","g","h",0,0.497510828543454,NA,NA,NA
"experimental",28,17,"hd","upper","lanthers","nw","nw","h","h",1,0.63621667213738,NA,NA,NA
"experimental",28,18,"hd","upper","collute","nw","nw","h","h",1,0.752858119551092,NA,NA,NA
"experimental",28,19,"hd","upper","trises","nw","nw","h","h",1,0.584756926167756,NA,NA,NA
"experimental",28,20,"hd","upper","slooping","nw","nw","h","g",0,0.655432239174843,NA,NA,NA
"experimental",28,21,"hd","upper","contain","w","w","g","h",0,0.546484564431012,NA,NA,NA
"experimental",28,22,"hd","upper","chonemic","nw","nw","h","h",1,3.02719761058688,NA,NA,NA
"experimental",28,23,"hd","upper","tasher","nw","nw","h","h",1,2.08844353212044,NA,NA,NA
"experimental",28,24,"hd","upper","maiden","w","w","g","h",0,1.41910823760554,NA,NA,NA
"experimental",28,25,"hd","upper","dolphin","target","target","q","h",0,1.74451899854466,NA,NA,NA
"experimental",28,26,"hd","upper","blipover","aftertar1","nw","h","h",1,1.0718899522908,NA,NA,NA
"experimental",28,27,"hd","upper","recollect","aftertar2","w","g","g",1,1.05904365470633,NA,NA,NA
"experimental",28,28,"hd","upper","alticles","aftertar3","nw","h","h",1,0.711469189729542,NA,NA,NA
"experimental",28,29,"hd","upper","standard","nw","w","g","g",1,0.849563793744892,NA,NA,NA
"experimental",28,30,"hd","upper","welayed","w","nw","h","h",1,0.702077528927475,NA,NA,NA
"experimental",29,1,"hd","upper","emergence","w","w","g","g",1,0.783181044273078,NA,NA,NA
"experimental",29,2,"hd","upper","marinate","w","w","g","g",1,0.614406732376665,NA,NA,NA
"experimental",29,3,"hd","upper","gures","nw","nw","h","h",1,0.844465601723641,NA,NA,NA
"experimental",29,4,"hd","upper","noils","nw","nw","h","h",1,0.705235751811415,NA,NA,NA
"experimental",29,5,"hd","upper","heuls","nw","nw","h","h",1,0.531088265124708,NA,NA,NA
"experimental",29,6,"hd","upper","ensues","w","w","g","h",0,0.636597904842347,NA,NA,NA
"experimental",29,7,"hd","upper","rewrite","w","w","g","g",1,0.713081353344023,NA,NA,NA
"experimental",29,8,"hd","upper","mantos","nw","nw","h","h",1,0.731087721884251,NA,NA,NA
"experimental",29,9,"hd","upper","miracle","w","w","g","g",1,0.531530470587313,NA,NA,NA
"experimental",29,10,"hd","upper","dialect","w","w","g","h",0,0.789730516262352,NA,NA,NA
"experimental",29,11,"hd","upper","beartiset","nw","nw","h","h",1,0.651392623316497,NA,NA,NA
"experimental",29,12,"hd","upper","bypassed","w","w","g","g",1,0.663448082283139,NA,NA,NA
"experimental",29,13,"hd","upper","measure","w","w","g","g",1,1.73948479769751,NA,NA,NA
"experimental",29,14,"hd","upper","amplifier","w","w","g","g",1,0.62673596618697,NA,NA,NA
"experimental",29,15,"hd","upper","cogantly","nw","nw","h","h",1,0.736286127008498,NA,NA,NA
"experimental",29,16,"hd","upper","unsmilung","nw","nw","h","h",1,0.681437546852976,NA,NA,NA
"experimental",29,17,"hd","upper","churnad","nw","nw","h","h",1,0.581451402045786,NA,NA,NA
"experimental",29,18,"hd","upper","ebuating","nw","nw","h","h",1,0.756760696880519,NA,NA,NA
"experimental",29,19,"hd","upper","draze","nw","nw","h","h",1,0.499758379068226,NA,NA,NA
"experimental",29,20,"hd","upper","slogan","w","w","g","g",1,1.12649524351582,NA,NA,NA
"experimental",29,21,"hd","upper","asclibed","nw","nw","h","h",1,0.655805924907327,NA,NA,NA
"experimental",29,22,"hd","upper","target","w","w","g","g",1,0.635900035034865,NA,NA,NA
"experimental",29,23,"hd","upper","audience","w","w","g","g",1,0.512521065305918,NA,NA,NA
"experimental",29,24,"hd","upper","mennel","nw","nw","h","h",1,0.610403036698699,NA,NA,NA
"experimental",29,25,"hd","upper","pakened","nw","nw","h","h",1,0.504421912599355,NA,NA,NA
"experimental",29,26,"hd","upper","smolvers","nw","nw","h","h",1,0.498381957877427,NA,NA,NA
"experimental",29,27,"hd","upper","gorilla","target","target","q","g",0,0.596107874531299,NA,NA,NA
"experimental",29,28,"hd","upper","arrested","aftertar1","w","g","g",1,0.738751913886517,NA,NA,NA
"experimental",29,29,"hd","upper","supplier","aftertar2","w","g","g",1,0.555426473263651,NA,NA,NA
"experimental",29,30,"hd","upper","release","aftertar3","w","g","g",1,0.715419156942517,NA,NA,NA
"experimental",30,1,"ld","lower","asthmatic","w","w","g","h",0,1.22209676215425,NA,NA,NA
"experimental",30,2,"ld","lower","egpended","nw","nw","h","h",1,0.523434939794242,NA,NA,NA
"experimental",30,3,"ld","lower","neuran","nw","nw","h","h",1,0.499879118520766,NA,NA,NA
"experimental",30,4,"ld","lower","tycoon","w","w","g","h",0,1.02243990171701,NA,NA,NA
"experimental",30,5,"ld","lower","prominent","w","w","g","g",1,0.498160402756184,NA,NA,NA
"experimental",30,6,"ld","lower","drauns","nw","nw","h","h",1,0.597189089749008,NA,NA,NA
"experimental",30,7,"ld","lower","penalize","w","w","g","g",1,1.58860034123063,NA,NA,NA
"experimental",30,8,"ld","lower","lovud","nw","nw","h","h",1,0.499754153657705,NA,NA,NA
"experimental",30,9,"ld","lower","overflow","w","w","g","g",1,0.614495475776494,NA,NA,NA
"experimental",30,10,"ld","lower","forecast","w","w","g","g",1,0.604474765714258,NA,NA,NA
"experimental",30,11,"ld","lower","delegate","w","w","g","g",1,0.554505539126694,NA,NA,NA
"experimental",30,12,"ld","lower","aefated","nw","nw","h","h",1,0.51355549460277,NA,NA,NA
"experimental",30,13,"ld","lower","companion","w","w","g","g",1,0.595071634277701,NA,NA,NA
"experimental",30,14,"ld","lower","derisury","nw","nw","h","h",1,1.08211199380457,NA,NA,NA
"experimental",30,15,"ld","lower","arcients","nw","nw","h","h",1,1.22148491861299,NA,NA,NA
"experimental",30,16,"ld","lower","parody","w","w","g","h",0,1.00283193448558,NA,NA,NA
"experimental",30,17,"ld","lower","abraid","nw","nw","h","h",1,0.64880338171497,NA,NA,NA
"experimental",30,18,"ld","lower","outflow","w","w","g","h",0,0.477559057530016,NA,NA,NA
"experimental",30,19,"ld","lower","misobeyed","nw","nw","h","g",0,0.583974237088114,NA,NA,NA
"experimental",30,20,"ld","lower","gigglod","nw","nw","h","h",1,0.950628135818988,NA,NA,NA
"experimental",30,21,"ld","lower","enunciate","w","w","g","g",1,0.558469692710787,NA,NA,NA
"experimental",30,22,"ld","lower","atabaster","nw","nw","h","h",1,0.534456875175238,NA,NA,NA
"experimental",30,23,"ld","lower","dominion","w","w","g","h",0,0.863198213279247,NA,NA,NA
"experimental",30,24,"ld","lower","baults","nw","nw","h","h",1,0.715163794346154,NA,NA,NA
"experimental",30,25,"ld","lower","teliever","nw","nw","h","h",1,0.525265338364989,NA,NA,NA
"experimental",30,26,"ld","lower","suddenly","w","w","g","g",1,0.606525814626366,NA,NA,NA
"experimental",30,27,"ld","lower","dabble","w","w","g","h",0,0.700614175759256,NA,NA,NA
"experimental",30,28,"ld","lower","organize","w","w","g","g",1,0.549730021040887,NA,NA,NA
"experimental",30,29,"ld","lower","geborn","nw","nw","h","h",1,0.539721686858684,NA,NA,NA
"experimental",30,30,"ld","lower","grefab","nw","nw","h","h",1,0.618321685586125,NA,NA,NA
"experimental",31,1,"hd","upper","outfit","w","w","g","g",1,0.832848725840449,NA,NA,NA
"experimental",31,2,"hd","upper","create","w","w","g","g",1,0.646181238349527,NA,NA,NA
"experimental",31,3,"hd","upper","entitle","w","w","g","g",1,1.83394775027409,NA,NA,NA
"experimental",31,4,"hd","upper","carnival","w","w","g","g",1,0.806489955168217,NA,NA,NA
"experimental",31,5,"hd","upper","blerapies","nw","nw","h","h",1,0.684353990945965,NA,NA,NA
"experimental",31,6,"hd","upper","burning","w","w","g","g",1,0.567305653821677,NA,NA,NA
"experimental",31,7,"hd","upper","posing","w","w","g","h",0,0.894488858990371,NA,NA,NA
"experimental",31,8,"hd","upper","mamps","nw","nw","h","h",1,0.465106065850705,NA,NA,NA
"experimental",31,9,"hd","upper","guitar","w","w","g","g",1,0.589116197545081,NA,NA,NA
"experimental",31,10,"hd","upper","wrecber","nw","nw","h","h",1,0.539821296464652,NA,NA,NA
"experimental",31,11,"hd","upper","sengry","nw","nw","h","h",1,0.484389850404114,NA,NA,NA
"experimental",31,12,"hd","upper","hotplate","w","w","g","g",1,0.631123912986368,NA,NA,NA
"experimental",31,13,"hd","upper","rocket","w","w","g","g",1,0.596482466440648,NA,NA,NA
"experimental",31,14,"hd","upper","professor","w","w","g","g",1,0.778128732927144,NA,NA,NA
"experimental",31,15,"hd","upper","lizard","target","target","q","g",0,0.617419465444982,NA,NA,NA
"experimental",31,16,"hd","upper","veranpah","aftertar1","nw","h","h",1,0.638768484815955,NA,NA,NA
"experimental",31,17,"hd","upper","ements","aftertar2","nw","h","h",1,0.683560737408698,NA,NA,NA
"experimental",31,18,"hd","upper","tenpince","aftertar3","nw","h","h",1,0.56676414096728,NA,NA,NA
"experimental",31,19,"hd","upper","sazer","nw","nw","h","h",1,0.605578317306936,NA,NA,NA
"experimental",31,20,"hd","upper","roodies","nw","nw","h","h",1,0.699575822800398,NA,NA,NA
"experimental",31,21,"hd","upper","arpired","nw","nw","h","h",1,0.661735705565661,NA,NA,NA
"experimental",31,22,"hd","upper","sorping","nw","nw","h","h",1,0.627399123739451,NA,NA,NA
"experimental",31,23,"hd","upper","pretzel","nw","w","g","g",1,0.599770181812346,NA,NA,NA
"experimental",31,24,"hd","upper","brials","w","nw","h","h",1,0.598401910159737,NA,NA,NA
"experimental",31,25,"hd","upper","disease","nw","w","g","g",1,0.589130987878889,NA,NA,NA
"experimental",31,26,"hd","upper","listless","w","w","g","h",0,0.859677170868963,NA,NA,NA
"experimental",31,27,"hd","upper","overcoat","w","w","g","g",1,0.719889809843153,NA,NA,NA
"experimental",31,28,"hd","upper","slimped","w","nw","h","h",1,0.625176324043423,NA,NA,NA
"experimental",31,29,"hd","upper","ephically","nw","nw","h","h",1,0.59853170439601,NA,NA,NA
"experimental",31,30,"hd","upper","nauling","nw","nw","h","h",1,0.620412577874959,NA,NA,NA
"experimental",32,1,"hd","upper","usually","w","w","g","g",1,0.69809496216476,NA,NA,NA
"experimental",32,2,"hd","upper","mortgage","w","w","g","h",0,0.492894081864506,NA,NA,NA
"experimental",32,3,"hd","upper","outrank","w","w","g","g",1,0.719486240297556,NA,NA,NA
"experimental",32,4,"hd","upper","bloodless","w","w","g","g",1,0.568785608746111,NA,NA,NA
"experimental",32,5,"hd","upper","trophy","w","w","g","g",1,0.559231252409518,NA,NA,NA
"experimental",32,6,"hd","upper","parent","w","w","g","g",1,0.68816148629412,NA,NA,NA
"experimental",32,7,"hd","upper","handbook","w","w","g","g",1,0.849787764251232,NA,NA,NA
"experimental",32,8,"hd","upper","retona","nw","nw","h","h",1,0.670480206608772,NA,NA,NA
"experimental",32,9,"hd","upper","bailmenz","nw","nw","h","h",1,0.977808835916221,NA,NA,NA
"experimental",32,10,"hd","upper","resume","w","w","g","g",1,0.735871993470937,NA,NA,NA
"experimental",32,11,"hd","upper","troven","nw","nw","h","h",1,0.712550404947251,NA,NA,NA
"experimental",32,12,"hd","upper","scrooner","nw","nw","h","h",1,0.787338682450354,NA,NA,NA
"experimental",32,13,"hd","upper","gablus","nw","nw","h","h",1,0.578485757112503,NA,NA,NA
"experimental",32,14,"hd","upper","incidonts","nw","nw","h","h",1,0.640848209615797,NA,NA,NA
"experimental",32,15,"hd","upper","massacre","w","w","g","g",1,0.69441001676023,NA,NA,NA
"experimental",32,16,"hd","upper","butcher","w","w","g","g",1,0.896143281366676,NA,NA,NA
"experimental",32,17,"hd","upper","ubefully","nw","nw","h","h",1,0.922783071640879,NA,NA,NA
"experimental",32,18,"hd","upper","jinds","nw","nw","h","h",1,0.596147416159511,NA,NA,NA
"experimental",32,19,"hd","upper","telecast","w","w","g","h",0,0.642854283098131,NA,NA,NA
"experimental",32,20,"hd","upper","digest","w","w","g","g",1,0.615433615166694,NA,NA,NA
"experimental",32,21,"hd","upper","grenavier","nw","nw","h","h",1,0.861471347976476,NA,NA,NA
"experimental",32,22,"hd","upper","axis","w","w","g","h",0,1.065436467994,NA,NA,NA
"experimental",32,23,"hd","upper","colicky","w","w","g","h",0,0.613487609196454,NA,NA,NA
"experimental",32,24,"hd","upper","coyote","target","target","q","q",1,1.04243212006986,1,NA,NA
"experimental",32,25,"hd","upper","egcused","aftertar1","nw","h","h",1,0.823126542847604,NA,NA,NA
"experimental",32,26,"hd","upper","gettle","aftertar2","nw","h","h",1,0.732462935615331,NA,NA,NA
"experimental",32,27,"hd","upper","miteous","aftertar3","nw","h","h",1,0.565829623490572,NA,NA,NA
"experimental",32,28,"hd","upper","impirt","nw","nw","h","h",1,0.765821835491806,NA,NA,NA
"experimental",32,29,"hd","upper","afford","nw","w","g","h",0,0.557830683421344,NA,NA,NA
"experimental",32,30,"hd","upper","brimitar","w","nw","h","h",1,0.485772610176355,NA,NA,NA
"experimental",33,1,"ld","lower","extruded","w","w","g","g",1,1.64692800771445,NA,NA,NA
"experimental",33,2,"ld","lower","dests","nw","nw","h","h",1,0.652686036657542,NA,NA,NA
"experimental",33,3,"ld","lower","mebase","nw","nw","h","h",1,0.960792826488614,NA,NA,NA
"experimental",33,4,"ld","lower","spiud","nw","nw","h","h",1,0.472804970573634,NA,NA,NA
"experimental",33,5,"ld","lower","unversed","w","w","g","h",0,0.48415410798043,NA,NA,NA
"experimental",33,6,"ld","lower","earmaff","nw","nw","h","h",1,0.50208259979263,NA,NA,NA
"experimental",33,7,"ld","lower","demon","w","w","g","g",1,0.775480933021754,NA,NA,NA
"experimental",33,8,"ld","lower","flicking","w","w","g","h",0,0.597848926670849,NA,NA,NA
"experimental",33,9,"ld","lower","purpose","w","w","g","g",1,0.524511325638741,NA,NA,NA
"experimental",33,10,"ld","lower","lenie","nw","nw","h","h",1,0.429848852101713,NA,NA,NA
"experimental",33,11,"ld","lower","togglo","nw","nw","h","h",1,0.459114708937705,NA,NA,NA
"experimental",33,12,"ld","lower","tritical","nw","nw","h","h",1,0.551073239184916,NA,NA,NA
"experimental",33,13,"ld","lower","sludding","nw","nw","h","h",1,0.639128588140011,NA,NA,NA
"experimental",33,14,"ld","lower","pester","w","w","g","h",0,0.587779921945184,NA,NA,NA
"experimental",33,15,"ld","lower","geadpan","nw","nw","h","h",1,0.817731333430856,NA,NA,NA
"experimental",33,16,"ld","lower","nature","w","w","g","g",1,0.719113459344953,NA,NA,NA
"experimental",33,17,"ld","lower","volition","w","w","g","h",0,1.22347137285396,NA,NA,NA
"experimental",33,18,"ld","lower","addma","nw","nw","h","h",1,1.26877314224839,NA,NA,NA
"experimental",33,19,"ld","lower","argue","w","w","g","g",1,0.568114301655442,NA,NA,NA
"experimental",33,20,"ld","lower","roaned","nw","nw","h","h",1,1.17544785002246,NA,NA,NA
"experimental",33,21,"ld","lower","railway","w","w","g","g",1,0.694797285832465,NA,NA,NA
"experimental",33,22,"ld","lower","numbled","nw","nw","h","h",1,1.3374752830714,NA,NA,NA
"experimental",33,23,"ld","lower","splatter","w","w","g","g",1,0.744023667648435,NA,NA,NA
"experimental",33,24,"ld","lower","populace","w","w","g","h",0,0.665535050909966,NA,NA,NA
"experimental",33,25,"ld","lower","checkout","w","w","g","g",1,0.741118090692908,NA,NA,NA
"experimental",33,26,"ld","lower","paterways","nw","nw","h","h",1,0.630388614255935,NA,NA,NA
"experimental",33,27,"ld","lower","artifact","w","w","g","g",1,0.611773421056569,NA,NA,NA
"experimental",33,28,"ld","lower","golemic","nw","nw","h","h",1,0.705760059412569,NA,NA,NA
"experimental",33,29,"ld","lower","beggarlan","nw","nw","h","h",1,0.635788049548864,NA,NA,NA
"experimental",33,30,"ld","lower","melodic","w","w","g","g",1,0.943850770127028,NA,NA,NA
"experimental",34,1,"ld","lower","rualify","nw","nw","h","h",1,0.560080951079726,NA,NA,NA
"experimental",34,2,"ld","lower","harder","w","w","g","g",1,0.848085951991379,NA,NA,NA
"experimental",34,3,"ld","lower","deficit","w","w","g","h",0,0.716918128076941,NA,NA,NA
"experimental",34,4,"ld","lower","fards","nw","nw","h","h",1,0.622817089781165,NA,NA,NA
"experimental",34,5,"ld","lower","incorrect","w","w","g","g",1,0.708098164759576,NA,NA,NA
"experimental",34,6,"ld","lower","fravity","nw","nw","h","h",1,0.790072206407785,NA,NA,NA
"experimental",34,7,"ld","lower","plapping","nw","nw","h","h",1,0.82791353110224,NA,NA,NA
"experimental",34,8,"ld","lower","seighing","nw","nw","h","h",1,0.826170969754457,NA,NA,NA
"experimental",34,9,"ld","lower","icepick","w","w","g","g",1,0.686482010874897,NA,NA,NA
"experimental",34,10,"ld","lower","plartly","nw","nw","h","h",1,0.881154475267977,NA,NA,NA
"experimental",34,11,"ld","lower","frequency","w","w","g","g",1,0.732565865386277,NA,NA,NA
"experimental",34,12,"ld","lower","defeat","w","w","g","h",0,0.661863386631012,NA,NA,NA
"experimental",34,13,"ld","lower","bumbo","nw","nw","h","h",1,0.560634538065642,NA,NA,NA
"experimental",34,14,"ld","lower","robbery","w","w","g","g",1,0.864628363400698,NA,NA,NA
"experimental",34,15,"ld","lower","monkey","target","target","q","q",1,1.26103982748464,1,NA,NA
"experimental",34,16,"ld","lower","fuack","aftertar1","nw","h","h",1,0.593991023022681,NA,NA,NA
"experimental",34,17,"ld","lower","remade","aftertar2","w","g","h",0,0.567433033604175,NA,NA,NA
"experimental",34,18,"ld","lower","foster","aftertar3","w","g","h",0,0.862734878435731,NA,NA,NA
"experimental",34,19,"ld","lower","stable","w","w","g","h",0,1.05877802940086,NA,NA,NA
"experimental",34,20,"ld","lower","shests","w","nw","h","h",1,1.11881143180653,NA,NA,NA
"experimental",34,21,"ld","lower","hecture","nw","nw","h","h",1,0.815475028939545,NA,NA,NA
"experimental",34,22,"ld","lower","begut","nw","nw","h","h",1,0.57348174136132,NA,NA,NA
"experimental",34,23,"ld","lower","anonymous","nw","w","g","g",1,0.540849386248738,NA,NA,NA
"experimental",34,24,"ld","lower","scarlet","w","w","g","g",1,0.573413523379713,NA,NA,NA
"experimental",34,25,"ld","lower","gelfry","w","nw","h","h",1,0.66873975796625,NA,NA,NA
"experimental",34,26,"ld","lower","fisco","nw","nw","h","g",0,0.93439662642777,NA,NA,NA
"experimental",34,27,"ld","lower","surround","nw","w","g","g",1,1.44721862534061,NA,NA,NA
"experimental",34,28,"ld","lower","fonducts","w","nw","h","h",1,0.90778279537335,NA,NA,NA
"experimental",34,29,"ld","lower","bullet","nw","w","g","g",1,0.845839608460665,NA,NA,NA
"experimental",34,30,"ld","lower","graciap","w","nw","h","h",1,0.706417481880635,NA,NA,NA
"experimental",35,1,"hd","upper","pressing","w","w","g","g",1,0.56410758709535,NA,NA,NA
"experimental",35,2,"hd","upper","zears","nw","nw","h","h",1,0.53899242496118,NA,NA,NA
"experimental",35,3,"hd","upper","stranded","w","w","g","g",1,0.755664993077517,NA,NA,NA
"experimental",35,4,"hd","upper","reason","w","w","g","g",1,0.89196451427415,NA,NA,NA
"experimental",35,5,"hd","upper","itfidels","nw","nw","h","h",1,0.63941021123901,NA,NA,NA
"experimental",35,6,"hd","upper","larger","w","w","g","g",1,0.652094719000161,NA,NA,NA
"experimental",35,7,"hd","upper","stifle","w","w","g","h",0,0.567441786639392,NA,NA,NA
"experimental",35,8,"hd","upper","endgume","nw","nw","h","h",1,1.71049120649695,NA,NA,NA
"experimental",35,9,"hd","upper","forfeit","w","w","g","g",1,0.736398413777351,NA,NA,NA
"experimental",35,10,"hd","upper","official","w","w","g","g",1,1.28115580324084,NA,NA,NA
"experimental",35,11,"hd","upper","oleandur","nw","nw","h","h",1,0.556477503851056,NA,NA,NA
"experimental",35,12,"hd","upper","pypecast","nw","nw","h","h",1,0.772415678482503,NA,NA,NA
"experimental",35,13,"hd","upper","shivering","w","w","g","g",1,0.579838030505925,NA,NA,NA
"experimental",35,14,"hd","upper","retreat","w","w","g","g",1,0.891121757682413,NA,NA,NA
"experimental",35,15,"hd","upper","fragment","w","w","g","g",1,0.701794698368758,NA,NA,NA
"experimental",35,16,"hd","upper","pripend","nw","nw","h","h",1,0.647875806316733,NA,NA,NA
"experimental",35,17,"hd","upper","handed","w","w","g","g",1,0.955432329326868,NA,NA,NA
"experimental",35,18,"hd","upper","schides","nw","nw","h","h",1,0.603476558811963,NA,NA,NA
"experimental",35,19,"hd","upper","slooch","nw","nw","h","h",1,0.59354157326743,NA,NA,NA
"experimental",35,20,"hd","upper","amms","nw","nw","h","h",1,0.912123955786228,NA,NA,NA
"experimental",35,21,"hd","upper","dingly","nw","nw","h","h",1,0.554177733603865,NA,NA,NA
"experimental",35,22,"hd","upper","halents","nw","nw","h","h",1,1.96215415559709,NA,NA,NA
"experimental",35,23,"hd","upper","emotion","w","w","g","g",1,0.634077785536647,NA,NA,NA
"experimental",35,24,"hd","upper","gairs","nw","nw","h","h",1,0.534079868346453,NA,NA,NA
"experimental",35,25,"hd","upper","medium","w","w","g","g",1,0.90072108944878,NA,NA,NA
"experimental",35,26,"hd","upper","atble","nw","nw","h","h",1,0.654503154102713,NA,NA,NA
"experimental",35,27,"hd","upper","ifkling","nw","nw","h","g",0,0.763210860546678,NA,NA,NA
"experimental",35,28,"hd","upper","squadroim","nw","nw","h","h",1,0.602865017019212,NA,NA,NA
"experimental",35,29,"hd","upper","lawsuit","w","w","g","g",1,0.665757511742413,NA,NA,NA
"experimental",35,30,"hd","upper","inversion","w","w","g","g",1,1.0858132392168,NA,NA,NA
"experimental",36,1,"ld","lower","duries","nw","nw","h","h",1,0.590795069001615,NA,NA,NA
"experimental",36,2,"ld","lower","boulder","w","w","g","g",1,0.829462608788162,NA,NA,NA
"experimental",36,3,"ld","lower","buzzer","w","w","g","h",0,1.00278394110501,NA,NA,NA
"experimental",36,4,"ld","lower","expired","w","w","g","h",0,0.552789238281548,NA,NA,NA
"experimental",36,5,"ld","lower","fraft","nw","nw","h","h",1,0.568755122367293,NA,NA,NA
"experimental",36,6,"ld","lower","twarfs","nw","nw","h","h",1,0.495464005041867,NA,NA,NA
"experimental",36,7,"ld","lower","frigs","nw","nw","h","h",1,0.49011014867574,NA,NA,NA
"experimental",36,8,"ld","lower","corduroy","w","w","g","g",1,0.69285852368921,NA,NA,NA
"experimental",36,9,"ld","lower","uncounted","w","w","g","h",0,1.00644383300096,NA,NA,NA
"experimental",36,10,"ld","lower","trooper","w","w","g","g",1,0.604437336791307,NA,NA,NA
"experimental",36,11,"ld","lower","overwork","w","w","g","g",1,0.578468853607774,NA,NA,NA
"experimental",36,12,"ld","lower","noblest","w","w","g","g",1,0.633929880801588,NA,NA,NA
"experimental",36,13,"ld","lower","spigat","nw","nw","h","h",1,0.501801278442144,NA,NA,NA
"experimental",36,14,"ld","lower","ufionize","nw","nw","h","h",1,0.775180594995618,NA,NA,NA
"experimental",36,15,"ld","lower","befriend","w","w","g","g",1,1.08647579234093,NA,NA,NA
"experimental",36,16,"ld","lower","resent","w","w","g","g",1,0.951925775036216,NA,NA,NA
"experimental",36,17,"ld","lower","burrowing","w","w","g","h",0,0.65585422096774,NA,NA,NA
"experimental",36,18,"ld","lower","flacked","nw","nw","h","h",1,1.363495381549,NA,NA,NA
"experimental",36,19,"ld","lower","oginous","nw","nw","h","h",1,0.635407421272248,NA,NA,NA
"experimental",36,20,"ld","lower","casino","w","w","g","g",1,0.775434448383749,NA,NA,NA
"experimental",36,21,"ld","lower","absent","w","w","g","g",1,0.646860393695533,NA,NA,NA
"experimental",36,22,"ld","lower","parlayid","nw","nw","h","h",1,0.571453632321209,NA,NA,NA
"experimental",36,23,"ld","lower","sooled","nw","nw","h","h",1,0.642812930047512,NA,NA,NA
"experimental",36,24,"ld","lower","reddar","nw","nw","h","h",1,0.59148086514324,NA,NA,NA
"experimental",36,25,"ld","lower","contusiok","nw","nw","h","h",1,0.549367201048881,NA,NA,NA
"experimental",36,26,"ld","lower","euphoric","w","w","g","g",1,0.837854251265526,NA,NA,NA
"experimental",36,27,"ld","lower","mogus","nw","nw","h","h",1,0.674428362865001,NA,NA,NA
"experimental",36,28,"ld","lower","balign","nw","nw","h","h",1,0.605855111032724,NA,NA,NA
"experimental",36,29,"ld","lower","bropic","nw","nw","h","h",1,0.467749640345573,NA,NA,NA
"experimental",36,30,"ld","lower","party","w","w","g","g",1,0.639114703051746,NA,NA,NA
"experimental",37,1,"ld","lower","ragtam","nw","nw","h","h",1,0.756429872941226,NA,NA,NA
"experimental",37,2,"ld","lower","preserve","w","w","g","g",1,0.739457631483674,NA,NA,NA
"experimental",37,3,"ld","lower","enabled","w","w","g","g",1,0.964146344456822,NA,NA,NA
"experimental",37,4,"ld","lower","brank","nw","nw","h","h",1,0.660127767827362,NA,NA,NA
"experimental",37,5,"ld","lower","joses","nw","nw","h","h",1,0.430869094096124,NA,NA,NA
"experimental",37,6,"ld","lower","dreaded","w","w","g","h",0,0.516319807153195,NA,NA,NA
"experimental",37,7,"ld","lower","buttress","w","w","g","h",0,0.662525336258113,NA,NA,NA
