"procedure","block","trial","PMdemand","context","stim","role","word_type","correct_key","response","correct","reaction_time","pressedQ","pressedQ_blank","pressedQ_fix"
"LDTpractice",1,1,NA,"upper","lumbigo","","nw","h","h",1,0.194941638270393,NA,NA,NA
"LDTpractice",2,1,NA,"upper","revival","","w","g","h",0,0.246337391668931,NA,NA,NA
"LDTpractice",3,1,NA,"upper","slumber","","w","g","g",1,0.669169659144245,NA,NA,NA
"LDTpractice",4,1,NA,"upper","crinklo","","nw","h","h",1,0.614168992149644,NA,NA,NA
"LDTpractice",5,1,NA,"upper","grutch","","nw","h","g",0,0.757920022006147,NA,NA,NA
"LDTpractice",6,1,NA,"upper","umpire","","w","g","g",1,0.814103914657608,NA,NA,NA
"LDTpractice",7,1,NA,"upper","latador","","nw","h","h",1,0.788393511553295,NA,NA,NA
"LDTpractice",8,1,NA,"upper","grocus","","nw","h","h",1,0.769924025749788,NA,NA,NA
"LDTpractice",9,1,NA,"upper","unscrew","","w","g","g",1,0.697307787369937,NA,NA,NA
"LDTpractice",10,1,NA,"upper","busted","","w","g","g",1,0.635809642844833,NA,NA,NA
"LDTpractice",11,1,NA,"upper","lurshing","","nw","h","g",0,0.696481340681203,NA,NA,NA
"LDTpractice",12,1,NA,"upper","curlecs","","nw","h","h",1,0.915075910277665,NA,NA,NA
"LDTpractice",13,1,NA,"upper","sponsor","","w","g","g",1,0.620063386741094,NA,NA,NA
"LDTpractice",14,1,NA,"upper","picture","","w","g","g",1,0.481439465889707,NA,NA,NA
"LDTpractice",1,2,NA,"lower","hasking","","nw","h","g",0,0.629338727565482,NA,NA,NA
"LDTpractice",2,2,NA,"lower","reputable","","w","g","g",1,0.610572831821628,NA,NA,NA
"LDTpractice",3,2,NA,"lower","hiring","","w","g","g",1,0.655469598365016,NA,NA,NA
"LDTpractice",4,2,NA,"lower","alolition","","nw","h","h",1,0.611407730146311,NA,NA,NA
"LDTpractice",5,2,NA,"lower","turative","","nw","h","h",1,0.577423200244084,NA,NA,NA
"LDTpractice",6,2,NA,"lower","infinity","","w","g","g",1,0.735437228693627,NA,NA,NA
"LDTpractice",7,2,NA,"lower","julled","","nw","h","h",1,0.736287521081977,NA,NA,NA
"LDTpractice",8,2,NA,"lower","raestro","","nw","h","h",1,0.704894013470039,NA,NA,NA
"LDTpractice",9,2,NA,"lower","overshoot","","w","g","g",1,0.546729667112231,NA,NA,NA
"LDTpractice",10,2,NA,"lower","tricycle","","w","g","h",0,0.651355173205957,NA,NA,NA
"LDTpractice",11,2,NA,"lower","trotch","","nw","h","h",1,0.807443139958195,NA,NA,NA
"LDTpractice",12,2,NA,"lower","treeps","","nw","h","h",1,0.725315821357071,NA,NA,NA
"LDTpractice",13,2,NA,"lower","grimace","","w","g","h",0,0.726630348595791,NA,NA,NA
"LDTpractice",14,2,NA,"lower","summary","","w","g","g",1,0.549669922096655,NA,NA,NA
"experimental",1,1,"ld","lower","hatred","w","w","g","g",1,1.18844748102129,NA,NA,NA
"experimental",1,2,"ld","lower","vaporize","w","w","g","g",1,0.98625507298857,NA,NA,NA
"experimental",1,3,"ld","lower","student","w","w","g","g",1,0.755005121929571,NA,NA,NA
"experimental",1,4,"ld","lower","wienegs","nw","nw","h","h",1,0.667649274808355,NA,NA,NA
"experimental",1,5,"ld","lower","brudent","nw","nw","h","g",0,0.894775141612627,NA,NA,NA
"experimental",1,6,"ld","lower","infusion","w","w","g","g",1,0.682913185330108,NA,NA,NA
"experimental",1,7,"ld","lower","seartfelt","nw","nw","h","h",1,1.37393226253334,NA,NA,NA
"experimental",1,8,"ld","lower","gewer","nw","nw","h","h",1,0.877919611521065,NA,NA,NA
"experimental",1,9,"ld","lower","buttress","w","w","g","g",1,1.0567255076021,NA,NA,NA
"experimental",1,10,"ld","lower","prame","nw","nw","h","h",1,0.869252183125354,NA,NA,NA
"experimental",1,11,"ld","lower","bingu","nw","nw","h","h",1,0.674137696973048,NA,NA,NA
"experimental",1,12,"ld","lower","airline","w","w","g","g",1,0.902455542818643,NA,NA,NA
"experimental",1,13,"ld","lower","dorth","nw","nw","h","h",1,0.744091074331664,NA,NA,NA
"experimental",1,14,"ld","lower","volder","nw","nw","h","h",1,0.865380741772242,NA,NA,NA
"experimental",1,15,"ld","lower","plunging","w","w","g","g",1,0.98998012021184,NA,NA,NA
"experimental",1,16,"ld","lower","neliefs","nw","nw","h","h",1,0.757347425445914,NA,NA,NA
"experimental",1,17,"ld","lower","mebase","nw","nw","h","h",1,0.79785810795147,NA,NA,NA
"experimental",1,18,"ld","lower","theery","nw","nw","h","h",1,1.27719754225109,NA,NA,NA
"experimental",1,19,"ld","lower","reddar","nw","nw","h","h",1,0.91314200067427,NA,NA,NA
"experimental",1,20,"ld","lower","populace","w","w","g","g",1,1.14783417177387,NA,NA,NA
"experimental",1,21,"ld","lower","perishing","w","w","g","g",1,0.796214571688324,NA,NA,NA
"experimental",1,22,"ld","lower","desert","w","w","g","g",1,0.772367144818418,NA,NA,NA
"experimental",1,23,"ld","lower","elephant","target","target","q","g",0,0.643362666130997,1,1,NA
"experimental",1,24,"ld","lower","renown","aftertar1","w","g","h",0,1.06465311849024,NA,NA,NA
"experimental",1,25,"ld","lower","casino","aftertar2","w","g","g",1,0.981296996003948,NA,NA,NA
"experimental",1,26,"ld","lower","runabouk","aftertar3","nw","h","h",1,0.845312996068969,NA,NA,NA
"experimental",1,27,"ld","lower","spiud","nw","nw","h","h",1,0.770612832042389,NA,NA,NA
"experimental",1,28,"ld","lower","alber","nw","nw","h","h",1,0.554614717955701,NA,NA,NA
"experimental",1,29,"ld","lower","urgent","nw","w","g","g",1,0.778392841340974,NA,NA,NA
"experimental",1,30,"ld","lower","picnic","w","w","g","g",1,0.626323615550064,NA,NA,NA
"experimental",2,1,"ld","lower","naxis","nw","nw","h","h",1,1.05334546708036,NA,NA,NA
"experimental",2,2,"ld","lower","religious","w","w","g","g",1,0.628594080335461,NA,NA,NA
"experimental",2,3,"ld","lower","chemical","w","w","g","g",1,0.61063078569714,NA,NA,NA
"experimental",2,4,"ld","lower","elpousal","nw","nw","h","h",1,0.721239126520231,NA,NA,NA
"experimental",2,5,"ld","lower","hangar","w","w","g","h",0,1.13932913506869,NA,NA,NA
"experimental",2,6,"ld","lower","melodic","w","w","g","g",1,0.835546254413202,NA,NA,NA
"experimental",2,7,"ld","lower","pranny","nw","nw","h","h",1,0.824812407139689,NA,NA,NA
"experimental",2,8,"ld","lower","rumblos","nw","nw","h","h",1,1.78281665593386,NA,NA,NA
"experimental",2,9,"ld","lower","irregular","w","w","g","g",1,0.862756516668014,NA,NA,NA
"experimental",2,10,"ld","lower","leather","w","w","g","g",1,0.899372515967116,NA,NA,NA
"experimental",2,11,"ld","lower","committed","w","w","g","g",1,0.710711136343889,NA,NA,NA
"experimental",2,12,"ld","lower","baults","nw","nw","h","h",1,0.928454507957213,NA,NA,NA
"experimental",2,13,"ld","lower","frunted","nw","nw","h","g",0,0.763335693511181,NA,NA,NA
"experimental",2,14,"ld","lower","odacles","nw","nw","h","h",1,0.962950360379182,NA,NA,NA
"experimental",2,15,"ld","lower","pimorous","nw","nw","h","h",1,0.827588761225343,NA,NA,NA
"experimental",2,16,"ld","lower","paterways","nw","nw","h","h",1,0.769543703296222,NA,NA,NA
"experimental",2,17,"ld","lower","urique","nw","nw","h","h",1,0.897186265327036,NA,NA,NA
"experimental",2,18,"ld","lower","slightly","w","w","g","g",1,0.803578339167871,NA,NA,NA
"experimental",2,19,"ld","lower","assent","w","w","g","g",1,0.642311949864961,NA,NA,NA
"experimental",2,20,"ld","lower","issue","w","w","g","g",1,0.536124103236943,NA,NA,NA
"experimental",2,21,"ld","lower","punctual","w","w","g","g",1,0.970057561178692,NA,NA,NA
"experimental",2,22,"ld","lower","stelled","nw","nw","h","g",0,1.32906809495762,NA,NA,NA
"experimental",2,23,"ld","lower","hangar","w","w","g","g",1,1.29895319521893,NA,NA,NA
"experimental",2,24,"ld","lower","trises","nw","nw","h","h",1,1.47832595300861,NA,NA,NA
"experimental",2,25,"ld","lower","condensed","w","w","g","g",1,0.682355077238753,NA,NA,NA
"experimental",2,26,"ld","lower","maiden","w","w","g","g",1,0.742349438834935,NA,NA,NA
"experimental",2,27,"ld","lower","tibs","nw","nw","h","h",1,0.967499137972482,NA,NA,NA
"experimental",2,28,"ld","lower","breiled","nw","nw","h","h",1,0.871491558034904,NA,NA,NA
"experimental",2,29,"ld","lower","peems","nw","nw","h","h",1,0.811504138982855,NA,NA,NA
"experimental",2,30,"ld","lower","enunciate","w","w","g","g",1,0.969164105248638,NA,NA,NA
"experimental",3,1,"hd","upper","congraks","nw","nw","h","h",1,0.976959810475819,NA,NA,NA
"experimental",3,2,"hd","upper","castaway","w","w","g","g",1,0.952964782482013,NA,NA,NA
"experimental",3,3,"hd","upper","agony","w","w","g","g",1,0.67268854752183,NA,NA,NA
"experimental",3,4,"hd","upper","fuhrek","nw","nw","h","h",1,0.788674225681461,NA,NA,NA
"experimental",3,5,"hd","upper","togglo","nw","nw","h","h",1,0.507884857361205,NA,NA,NA
"experimental",3,6,"hd","upper","reason","w","w","g","g",1,0.565411650459282,NA,NA,NA
"experimental",3,7,"hd","upper","etber","nw","nw","h","h",1,0.78189784497954,NA,NA,NA
"experimental",3,8,"hd","upper","measure","w","w","g","g",1,0.60669324058108,NA,NA,NA
"experimental",3,9,"hd","upper","thrapping","nw","nw","h","h",1,1.21396138425916,NA,NA,NA
"experimental",3,10,"hd","upper","bureaug","nw","nw","h","h",1,0.748402904951945,NA,NA,NA
"experimental",3,11,"hd","upper","column","w","w","g","g",1,0.733862512512133,NA,NA,NA
"experimental",3,12,"hd","upper","martial","w","w","g","h",0,0.903040816774592,NA,NA,NA
"experimental",3,13,"hd","upper","noils","nw","nw","h","h",1,1.07264653104357,NA,NA,NA
"experimental",3,14,"hd","upper","zears","nw","nw","h","h",1,1.26865024724975,NA,NA,NA
"experimental",3,15,"hd","upper","walsams","nw","nw","h","h",1,0.992594384588301,NA,NA,NA
"experimental",3,16,"hd","upper","minister","w","w","g","g",1,0.791962204151787,NA,NA,NA
"experimental",3,17,"hd","upper","asthmatic","w","w","g","g",1,1.03127136942931,NA,NA,NA
"experimental",3,18,"hd","upper","ilterfere","nw","nw","h","h",1,1.19722417683806,NA,NA,NA
"experimental",3,19,"hd","upper","undertake","w","w","g","g",1,0.652478030067869,NA,NA,NA
"experimental",3,20,"hd","upper","bother","w","w","g","g",1,0.945190809899941,NA,NA,NA
"experimental",3,21,"hd","upper","grefab","nw","nw","h","h",1,0.60137808311265,NA,NA,NA
"experimental",3,22,"hd","upper","senior","w","w","g","g",1,0.648085607215762,NA,NA,NA
"experimental",3,23,"hd","upper","carony","nw","nw","h","h",1,1.8373974589631,NA,NA,NA
"experimental",3,24,"hd","upper","twarfs","nw","nw","h","h",1,0.706670964602381,NA,NA,NA
"experimental",3,25,"hd","upper","charcoal","w","w","g","g",1,0.79726528795436,NA,NA,NA
"experimental",3,26,"hd","upper","unversed","w","w","g","g",1,0.620651679229923,NA,NA,NA
"experimental",3,27,"hd","upper","susher","nw","nw","h","h",1,1.27347219304647,NA,NA,NA
"experimental",3,28,"hd","upper","shimble","nw","nw","h","g",0,1.48442711029202,NA,NA,NA
"experimental",3,29,"hd","upper","expired","w","w","g","g",1,0.632777023827657,NA,NA,NA
"experimental",3,30,"hd","upper","combat","w","w","g","g",1,1.01483238313813,NA,NA,NA
"experimental",4,1,"hd","upper","decency","w","w","g","g",1,0.700680885696784,NA,NA,NA
"experimental",4,2,"hd","upper","virulent","w","w","g","g",1,1.59916345926467,NA,NA,NA
"experimental",4,3,"hd","upper","demon","w","w","g","g",1,0.662393580423668,NA,NA,NA
"experimental",4,4,"hd","upper","obtuse","w","w","g","g",1,0.738980264635757,NA,NA,NA
"experimental",4,5,"hd","upper","moyeur","nw","nw","h","h",1,0.812285611056723,NA,NA,NA
"experimental",4,6,"hd","upper","ludictous","nw","nw","h","g",0,0.858924314961769,NA,NA,NA
"experimental",4,7,"hd","upper","saucer","w","w","g","g",1,1.0634584230138,NA,NA,NA
"experimental",4,8,"hd","upper","beggarlan","nw","nw","h","h",1,1.13211779831909,NA,NA,NA
"experimental",4,9,"hd","upper","anterior","w","w","g","h",0,0.894075167132542,NA,NA,NA
"experimental",4,10,"hd","upper","dehydrate","w","w","g","g",1,0.817356275510974,NA,NA,NA
"experimental",4,11,"hd","upper","bamps","nw","nw","h","h",1,0.966344889369793,NA,NA,NA
"experimental",4,12,"hd","upper","olerates","nw","nw","h","h",1,1.27905478363391,NA,NA,NA
"experimental",4,13,"hd","upper","clarms","nw","nw","h","h",1,0.76298706443049,NA,NA,NA
"experimental",4,14,"hd","upper","esdings","nw","nw","h","h",1,0.64242815959733,NA,NA,NA
"experimental",4,15,"hd","upper","sefine","nw","nw","h","h",1,1.26368281315081,NA,NA,NA
"experimental",4,16,"hd","upper","jaguar","target","target","q","h",0,0.709342880989425,1,1,NA
"experimental",4,17,"hd","upper","daylight","aftertar1","w","g","g",1,0.912263636826538,NA,NA,NA
"experimental",4,18,"hd","upper","oalis","aftertar2","nw","h","h",1,1.15471981966402,NA,NA,NA
"experimental",4,19,"hd","upper","whirlpool","aftertar3","w","g","g",1,1.19450517301448,NA,NA,NA
"experimental",4,20,"hd","upper","louches","w","nw","h","h",1,1.08974987431429,NA,NA,NA
"experimental",4,21,"hd","upper","coupling","nw","w","g","g",1,0.901016354211606,NA,NA,NA
"experimental",4,22,"hd","upper","shurk","w","nw","h","g",0,1.3755860615056,NA,NA,NA
"experimental",4,23,"hd","upper","lifetime","nw","w","g","g",1,0.839579483843409,NA,NA,NA
"experimental",4,24,"hd","upper","dealer","w","w","g","g",1,0.980923615861684,NA,NA,NA
"experimental",4,25,"hd","upper","distrust","w","w","g","g",1,0.716024784604087,NA,NA,NA
"experimental",4,26,"hd","upper","greakable","w","nw","h","h",1,1.15074122406077,NA,NA,NA
"experimental",4,27,"hd","upper","tuckel","nw","nw","h","h",1,1.81511690060142,NA,NA,NA
"experimental",4,28,"hd","upper","eyesight","nw","w","g","g",1,0.581767026218586,NA,NA,NA
"experimental",4,29,"hd","upper","dorte","w","nw","h","h",1,0.67777883191593,NA,NA,NA
"experimental",4,30,"hd","upper","volume","nw","w","g","g",1,0.553745107492432,NA,NA,NA
"experimental",5,1,"ld","lower","otiates","nw","nw","h","h",1,0.784230187768117,NA,NA,NA
"experimental",5,2,"ld","lower","primal","w","w","g","h",0,1.62352371762972,NA,NA,NA
"experimental",5,3,"ld","lower","frader","nw","nw","h","h",1,1.15853904222604,NA,NA,NA
"experimental",5,4,"ld","lower","single","w","w","g","g",1,0.575155150145292,NA,NA,NA
"experimental",5,5,"ld","lower","correct","w","w","g","g",1,0.543137732543983,NA,NA,NA
"experimental",5,6,"ld","lower","butcher","w","w","g","g",1,0.704444870818406,NA,NA,NA
"experimental",5,7,"ld","lower","footstep","w","w","g","g",1,0.515047899214551,NA,NA,NA
"experimental",5,8,"ld","lower","unwose","nw","nw","h","g",0,0.804805331979878,NA,NA,NA
"experimental",5,9,"ld","lower","curricula","w","w","g","g",1,1.68338889023289,NA,NA,NA
"experimental",5,10,"ld","lower","ireology","nw","nw","h","h",1,1.8552958574146,NA,NA,NA
"experimental",5,11,"ld","lower","wrestle","w","w","g","g",1,1.00390535616316,NA,NA,NA
"experimental",5,12,"ld","lower","awful","w","w","g","g",1,0.562500976142474,NA,NA,NA
"experimental",5,13,"ld","lower","bettled","nw","nw","h","g",0,0.539112653001212,NA,NA,NA
"experimental",5,14,"ld","lower","preight","nw","nw","h","h",1,1.01248887227848,NA,NA,NA
"experimental",5,15,"ld","lower","miteous","nw","nw","h","h",1,1.20310317759868,NA,NA,NA
"experimental",5,16,"ld","lower","army","w","w","g","g",1,0.521711088600568,NA,NA,NA
"experimental",5,17,"ld","lower","bengths","nw","nw","h","h",1,0.954742639092728,NA,NA,NA
"experimental",5,18,"ld","lower","pepperoni","w","w","g","g",1,0.7953986893408,NA,NA,NA
"experimental",5,19,"ld","lower","afford","w","w","g","g",1,0.714735008426942,NA,NA,NA
"experimental",5,20,"ld","lower","huffle","nw","nw","h","h",1,1.54929201432969,NA,NA,NA
"experimental",5,21,"ld","lower","contact","w","w","g","g",1,0.670616997522302,NA,NA,NA
"experimental",5,22,"ld","lower","natch","nw","nw","h","h",1,0.705340439686552,NA,NA,NA
"experimental",5,23,"ld","lower","companion","w","w","g","g",1,0.60391477367375,NA,NA,NA
"experimental",5,24,"ld","lower","glattery","nw","nw","h","h",1,1.24376719654538,NA,NA,NA
"experimental",5,25,"ld","lower","misobeyed","nw","nw","h","g",0,0.696154142497107,NA,NA,NA
"experimental",5,26,"ld","lower","undue","w","w","g","g",1,0.931432191515341,NA,NA,NA
"experimental",5,27,"ld","lower","gablus","nw","nw","h","h",1,0.853381265769713,NA,NA,NA
"experimental",5,28,"ld","lower","befin","nw","nw","h","h",1,1.33003459696192,NA,NA,NA
"experimental",5,29,"ld","lower","hackal","nw","nw","h","h",1,1.00401371787302,NA,NA,NA
"experimental",5,30,"ld","lower","obviously","w","w","g","g",1,0.594692255486734,NA,NA,NA
"experimental",6,1,"hd","upper","ronic","nw","nw","h","h",1,0.672851241077296,NA,NA,NA
"experimental",6,2,"hd","upper","gerby","nw","nw","h","h",1,0.660848746658303,NA,NA,NA
"experimental",6,3,"hd","upper","dreaded","w","w","g","g",1,0.825451409327798,NA,NA,NA
"experimental",6,4,"hd","upper","hardest","w","w","g","g",1,0.591419671080075,NA,NA,NA
"experimental",6,5,"hd","upper","newstrint","nw","nw","h","g",0,1.19076020387001,NA,NA,NA
"experimental",6,6,"hd","upper","rewrite","w","w","g","g",1,0.598059618612751,NA,NA,NA
"experimental",6,7,"hd","upper","hasks","nw","nw","h","h",1,0.861432330450043,NA,NA,NA
"experimental",6,8,"hd","upper","rowel","nw","nw","h","h",1,0.57703352055978,NA,NA,NA
"experimental",6,9,"hd","upper","epic","w","w","g","g",1,0.640990178333595,NA,NA,NA
"experimental",6,10,"hd","upper","laser","w","w","g","g",1,0.70107448915951,NA,NA,NA
"experimental",6,11,"hd","upper","amplifier","w","w","g","g",1,0.999769198242575,NA,NA,NA
"experimental",6,12,"hd","upper","frigs","nw","nw","h","h",1,0.719921279000118,NA,NA,NA
"experimental",6,13,"hd","upper","smolvers","nw","nw","h","h",1,1.18632341024932,NA,NA,NA
"experimental",6,14,"hd","upper","buaint","nw","nw","h","h",1,0.769403648097068,NA,NA,NA
"experimental",6,15,"hd","upper","minimum","w","w","g","g",1,0.577476626378484,NA,NA,NA
"experimental",6,16,"hd","upper","aqueduct","w","w","g","h",0,1.64840797591023,NA,NA,NA
"experimental",6,17,"hd","upper","gorilla","target","target","q","g",0,0.718659574282356,1,1,NA
"experimental",6,18,"hd","upper","mennel","aftertar1","nw","h","h",1,1.33565491810441,NA,NA,NA
"experimental",6,19,"hd","upper","slutches","aftertar2","nw","h","g",0,1.62497135775629,NA,NA,NA
"experimental",6,20,"hd","upper","venturous","aftertar3","w","g","g",1,0.726989240269177,NA,NA,NA
"experimental",6,21,"hd","upper","burrowing","w","w","g","h",0,2.01690453686751,NA,NA,NA
"experimental",6,22,"hd","upper","lutton","w","nw","h","h",1,1.43152515927795,NA,NA,NA
"experimental",6,23,"hd","upper","uncarled","nw","nw","h","h",1,1.96459510410205,NA,NA,NA
"experimental",6,24,"hd","upper","trooper","nw","w","g","g",1,1.0771458062809,NA,NA,NA
"experimental",6,25,"hd","upper","dileting","w","nw","h","h",1,2.04117122385651,NA,NA,NA
"experimental",6,26,"hd","upper","ufionize","nw","nw","h","h",1,1.95054852741305,NA,NA,NA
"experimental",6,27,"hd","upper","teamwork","nw","w","g","g",1,0.575059465831146,NA,NA,NA
"experimental",6,28,"hd","upper","warmer","w","w","g","g",1,0.477047345018946,NA,NA,NA
"experimental",6,29,"hd","upper","sonkers","w","nw","h","h",1,0.784774712985381,NA,NA,NA
"experimental",6,30,"hd","upper","cutout","nw","w","g","g",1,0.456638214644045,NA,NA,NA
"experimental",7,1,"ld","lower","micron","w","w","g","g",1,1.31780602200888,NA,NA,NA
"experimental",7,2,"ld","lower","abhorrent","w","w","g","h",0,1.40795361727942,NA,NA,NA
"experimental",7,3,"ld","lower","hotplate","w","w","g","g",1,0.654452990391292,NA,NA,NA
"experimental",7,4,"ld","lower","dumult","nw","nw","h","h",1,0.794036772684194,NA,NA,NA
"experimental",7,5,"ld","lower","outset","w","w","g","g",1,1.15335790312383,NA,NA,NA
"experimental",7,6,"ld","lower","outflow","w","w","g","g",1,0.666069427272305,NA,NA,NA
"experimental",7,7,"ld","lower","record","w","w","g","g",1,0.542713340953924,NA,NA,NA
"experimental",7,8,"ld","lower","other","w","w","g","g",1,0.559981188853271,NA,NA,NA
"experimental",7,9,"ld","lower","ifkling","nw","nw","h","h",1,0.560561935184523,NA,NA,NA
"experimental",7,10,"ld","lower","glamorous","w","w","g","g",1,0.80936889979057,NA,NA,NA
"experimental",7,11,"ld","lower","otoist","nw","nw","h","h",1,0.70393596298527,NA,NA,NA
"experimental",7,12,"ld","lower","lofty","w","w","g","g",1,1.09851811849512,NA,NA,NA
"experimental",7,13,"ld","lower","alomalous","nw","nw","h","g",0,0.620904623880051,NA,NA,NA
"experimental",7,14,"ld","lower","ascending","w","w","g","g",1,0.666856332565658,NA,NA,NA
"experimental",7,15,"ld","lower","frose","nw","nw","h","g",0,1.10348072310444,NA,NA,NA
"experimental",7,16,"ld","lower","medium","w","w","g","g",1,0.594119055080228,NA,NA,NA
"experimental",7,17,"ld","lower","guivers","nw","nw","h","h",1,0.54352258273866,NA,NA,NA
"experimental",7,18,"ld","lower","mamps","nw","nw","h","h",1,0.696331928251311,NA,NA,NA
"experimental",7,19,"ld","lower","trecious","nw","nw","h","g",0,1.10760178882629,NA,NA,NA
"experimental",7,20,"ld","lower","moral","w","w","g","g",1,0.822036656783894,NA,NA,NA
"experimental",7,21,"ld","lower","apop","nw","nw","h","g",0,0.52233499858994,NA,NA,NA
"experimental",7,22,"ld","lower","hindsight","w","w","g","g",1,1.61969030846376,NA,NA,NA
"experimental",7,23,"ld","lower","season","w","w","g","g",1,0.560862269252539,NA,NA,NA
"experimental",7,24,"ld","lower","refebs","nw","nw","h","h",1,0.736938898800872,NA,NA,NA
"experimental",7,25,"ld","lower","drobate","nw","nw","h","h",1,1.41018212586641,NA,NA,NA
"experimental",7,26,"ld","lower","tining","nw","nw","h","g",0,0.120828861137852,NA,NA,NA
"experimental",7,27,"ld","lower","aefated","nw","nw","h","h",1,2.09073901455849,NA,NA,NA
"experimental",7,28,"ld","lower","sputter","w","w","g","g",1,1.069000868476,NA,NA,NA
"experimental",7,29,"ld","lower","fallint","nw","nw","h","g",0,1.74507538508624,NA,NA,NA
"experimental",7,30,"ld","lower","gensions","nw","nw","h","h",1,0.930338311591186,NA,NA,NA
"experimental",8,1,"ld","lower","lignpost","nw","nw","h","h",1,0.859337538364343,NA,NA,NA
"experimental",8,2,"ld","lower","bullet","w","w","g","g",1,0.831909948959947,NA,NA,NA
"experimental",8,3,"ld","lower","carnival","w","w","g","g",1,0.733755961875431,NA,NA,NA
"experimental",8,4,"ld","lower","digar","nw","nw","h","h",1,0.693953101756051,NA,NA,NA
"experimental",8,5,"ld","lower","puyer","nw","nw","h","h",1,0.720787267317064,NA,NA,NA
"experimental",8,6,"ld","lower","probable","w","w","g","g",1,0.89093780843541,NA,NA,NA
"experimental",8,7,"ld","lower","razelle","nw","nw","h","h",1,1.10970835271291,NA,NA,NA
"experimental",8,8,"ld","lower","digested","w","w","g","g",1,0.719671352766454,NA,NA,NA
"experimental",8,9,"ld","lower","skiing","w","w","g","g",1,0.92092472652439,NA,NA,NA
"experimental",8,10,"ld","lower","paranoid","w","w","g","g",1,0.729370481451042,NA,NA,NA
"experimental",8,11,"ld","lower","brimitive","nw","nw","h","g",0,0.466616850113496,NA,NA,NA
"experimental",8,12,"ld","lower","sooled","nw","nw","h","h",1,0.887123113730922,NA,NA,NA
"experimental",8,13,"ld","lower","reloant","nw","nw","h","h",1,1.75373043795116,NA,NA,NA
"experimental",8,14,"ld","lower","movie","w","w","g","g",1,0.514356376370415,NA,NA,NA
"experimental",8,15,"ld","lower","pallir","nw","nw","h","h",1,1.34831150667742,NA,NA,NA
"experimental",8,16,"ld","lower","corduroy","w","w","g","g",1,1.62902118859347,NA,NA,NA
"experimental",8,17,"ld","lower","handle","w","w","g","g",1,0.658303000731394,NA,NA,NA
"experimental",8,18,"ld","lower","ipiocy","nw","nw","h","h",1,0.629981351899914,NA,NA,NA
"experimental",8,19,"ld","lower","finish","w","w","g","g",1,0.659222415299155,NA,NA,NA
"experimental",8,20,"ld","lower","selongs","nw","nw","h","h",1,0.703305412549525,NA,NA,NA
"experimental",8,21,"ld","lower","sengry","nw","nw","h","g",0,1.6571463374421,NA,NA,NA
"experimental",8,22,"ld","lower","relaying","w","w","g","g",1,0.669119251309894,NA,NA,NA
"experimental",8,23,"ld","lower","begut","nw","nw","h","h",1,0.768400321132503,NA,NA,NA
"experimental",8,24,"ld","lower","enacted","w","w","g","g",1,1.39243464916945,NA,NA,NA
"experimental",8,25,"ld","lower","submit","w","w","g","g",1,0.644977225572802,NA,NA,NA
"experimental",8,26,"ld","lower","aviation","w","w","g","g",1,1.05915655300487,NA,NA,NA
"experimental",8,27,"ld","lower","chone","nw","nw","h","h",1,1.0788168105064,NA,NA,NA
"experimental",8,28,"ld","lower","sopes","nw","nw","h","h",1,0.913909889874048,NA,NA,NA
"experimental",8,29,"ld","lower","deeper","w","w","g","g",1,0.571903393021785,NA,NA,NA
"experimental",8,30,"ld","lower","rantho","nw","nw","h","h",1,0.691215081722476,NA,NA,NA
"experimental",9,1,"hd","upper","phraining","nw","nw","h","h",1,1.15747383737471,NA,NA,NA
"experimental",9,2,"hd","upper","amms","nw","nw","h","h",1,0.885288208723068,NA,NA,NA
"experimental",9,3,"hd","upper","dusmy","nw","nw","h","g",0,0.752702963538468,NA,NA,NA
"experimental",9,4,"hd","upper","huests","nw","nw","h","h",1,1.85659348149784,NA,NA,NA
"experimental",9,5,"hd","upper","duplex","w","w","g","g",1,0.980592795647681,NA,NA,NA
"experimental",9,6,"hd","upper","country","w","w","g","g",1,0.547916212817654,NA,NA,NA
"experimental",9,7,"hd","upper","praiged","nw","nw","h","h",1,0.756529732141644,NA,NA,NA
"experimental",9,8,"hd","upper","dentures","w","w","g","g",1,1.36453950463329,NA,NA,NA
"experimental",9,9,"hd","upper","practice","w","w","g","g",1,0.611421313136816,NA,NA,NA
"experimental",9,10,"hd","upper","trophy","w","w","g","g",1,0.657486816635355,NA,NA,NA
"experimental",9,11,"hd","upper","asclibed","nw","nw","h","h",1,0.693433025851846,NA,NA,NA
"experimental",9,12,"hd","upper","computer","w","w","g","g",1,0.646926529239863,NA,NA,NA
"experimental",9,13,"hd","upper","emotion","w","w","g","g",1,0.603789206943475,NA,NA,NA
"experimental",9,14,"hd","upper","throttle","w","w","g","h",0,1.0423970092088,NA,NA,NA
"experimental",9,15,"hd","upper","fuestion","nw","nw","h","h",1,1.1993521717377,NA,NA,NA
"experimental",9,16,"hd","upper","fomes","nw","nw","h","g",0,0.853949636453763,NA,NA,NA
"experimental",9,17,"hd","upper","apticle","nw","nw","h","g",0,1.64088392944541,NA,NA,NA
"experimental",9,18,"hd","upper","inside","w","w","g","g",1,0.549515076447278,NA,NA,NA
"experimental",9,19,"hd","upper","flamingo","target","target","q","g",0,0.782190633006394,1,1,NA
"experimental",9,20,"hd","upper","incidonts","aftertar1","nw","h","h",1,2.3254991004942,NA,NA,NA
"experimental",9,21,"hd","upper","twenties","aftertar2","w","g","g",1,0.59870133723598,NA,NA,NA
"experimental",9,22,"hd","upper","vinegar","aftertar3","w","g","g",1,0.669386986177415,NA,NA,NA
"experimental",9,23,"hd","upper","bedding","w","w","g","g",1,0.552664810558781,NA,NA,NA
"experimental",9,24,"hd","upper","splinging","w","nw","h","g",0,1.64866876835003,NA,NA,NA
"experimental",9,25,"hd","upper","rander","nw","nw","h","g",0,0.972327422350645,NA,NA,NA
"experimental",9,26,"hd","upper","matter","nw","w","g","g",1,0.499642725917511,NA,NA,NA
"experimental",9,27,"hd","upper","geissue","w","nw","h","h",1,1.39823064289521,NA,NA,NA
"experimental",9,28,"hd","upper","ghists","nw","nw","h","h",1,0.660915152169764,NA,NA,NA
"experimental",9,29,"hd","upper","emergence","nw","w","g","g",1,0.86488843546249,NA,NA,NA
"experimental",9,30,"hd","upper","chrik","w","nw","h","h",1,0.660820071585476,NA,NA,NA
"experimental",10,1,"hd","upper","bulmed","nw","nw","h","h",1,0.864415447111242,NA,NA,NA
"experimental",10,2,"hd","upper","nogwhell","nw","nw","h","h",1,0.716318176244386,NA,NA,NA
"experimental",10,3,"hd","upper","clypaper","nw","nw","h","g",0,1.6703531864332,NA,NA,NA
"experimental",10,4,"hd","upper","parody","w","w","g","g",1,0.673505939077586,NA,NA,NA
"experimental",10,5,"hd","upper","achieve","w","w","g","g",1,0.716058892896399,NA,NA,NA
"experimental",10,6,"hd","upper","cooray","nw","nw","h","h",1,0.749939286964945,NA,NA,NA
"experimental",10,7,"hd","upper","racile","nw","nw","h","g",0,1.29447776556481,NA,NA,NA
"experimental",10,8,"hd","upper","ready","w","w","g","g",1,0.529140356229618,NA,NA,NA
"experimental",10,9,"hd","upper","undimmec","nw","nw","h","h",1,0.890422562137246,NA,NA,NA
"experimental",10,10,"hd","upper","equitable","w","w","g","g",1,0.765101174591109,NA,NA,NA
"experimental",10,11,"hd","upper","gigoho","nw","nw","h","h",1,0.652967317844741,NA,NA,NA
"experimental",10,12,"hd","upper","robbery","w","w","g","g",1,0.825008001527749,NA,NA,NA
"experimental",10,13,"hd","upper","capobly","nw","nw","h","h",1,1.0062941435026,NA,NA,NA
"experimental",10,14,"hd","upper","usage","w","w","g","g",1,0.748273414210416,NA,NA,NA
"experimental",10,15,"hd","upper","widely","w","w","g","g",1,0.580947823706083,NA,NA,NA
"experimental",10,16,"hd","upper","athcan","nw","nw","h","h",1,0.819245512364432,NA,NA,NA
"experimental",10,17,"hd","upper","calming","w","w","g","g",1,1.40054578054696,NA,NA,NA
"experimental",10,18,"hd","upper","churnad","nw","nw","h","h",1,0.727189060417004,NA,NA,NA
"experimental",10,19,"hd","upper","observer","w","w","g","g",1,0.632473973208107,NA,NA,NA
"experimental",10,20,"hd","upper","seeming","w","w","g","g",1,0.732645782409236,NA,NA,NA
"experimental",10,21,"hd","upper","plymie","nw","nw","h","h",1,0.701777482056059,NA,NA,NA
"experimental",10,22,"hd","upper","arrested","w","w","g","g",1,0.561350953415968,NA,NA,NA
"experimental",10,23,"hd","upper","accessory","w","w","g","g",1,0.665880171582103,NA,NA,NA
"experimental",10,24,"hd","upper","restock","w","w","g","g",1,0.564678775146604,NA,NA,NA
"experimental",10,25,"hd","upper","arranged","w","w","g","g",1,0.460673858760856,NA,NA,NA
"experimental",10,26,"hd","upper","etcess","nw","nw","h","h",1,0.680685884086415,NA,NA,NA
"experimental",10,27,"hd","upper","egpended","nw","nw","h","h",1,0.63594818895217,NA,NA,NA
"experimental",10,28,"hd","upper","ladybug","target","target","q","g",0,0.952728741103783,NA,NA,NA
"experimental",10,29,"hd","upper","kraums","aftertar1","nw","h","h",1,1.03237611567602,NA,NA,NA
"experimental",10,30,"hd","upper","graciap","aftertar2","nw","h","h",1,0.525866866228171,NA,NA,NA
"experimental",11,1,"ld","lower","tredits","nw","nw","h","h",1,0.766681022127159,NA,NA,NA
"experimental",11,2,"ld","lower","thesis","w","w","g","g",1,0.630647821701132,NA,NA,NA
"experimental",11,3,"ld","lower","posing","w","w","g","g",1,0.539999166619964,NA,NA,NA
"experimental",11,4,"ld","lower","overcoat","w","w","g","g",1,0.516689020907506,NA,NA,NA
"experimental",11,5,"ld","lower","opert","nw","nw","h","h",1,1.29461389698554,NA,NA,NA
"experimental",11,6,"ld","lower","lovud","nw","nw","h","h",1,0.544358990387991,NA,NA,NA
"experimental",11,7,"ld","lower","guffy","nw","nw","h","h",1,0.561910872696899,NA,NA,NA
"experimental",11,8,"ld","lower","rodeo","w","w","g","h",0,0.728925866424106,NA,NA,NA
"experimental",11,9,"ld","lower","permute","w","w","g","g",1,1.27415164210834,NA,NA,NA
"experimental",11,10,"ld","lower","mortgage","w","w","g","g",1,0.708145770593546,NA,NA,NA
"experimental",11,11,"ld","lower","peahem","nw","nw","h","h",1,0.758741337573156,NA,NA,NA
"experimental",11,12,"ld","lower","loneliest","w","w","g","g",1,1.68738710589241,NA,NA,NA
"experimental",11,13,"ld","lower","prominent","w","w","g","g",1,0.778017348377034,NA,NA,NA
"experimental",11,14,"ld","lower","target","w","w","g","g",1,0.601154115400277,NA,NA,NA
"experimental",11,15,"ld","lower","swatches","w","w","g","g",1,0.582995226373896,NA,NA,NA
"experimental",11,16,"ld","lower","nauling","nw","nw","h","h",1,0.630253614392132,NA,NA,NA
"experimental",11,17,"ld","lower","drauns","nw","nw","h","h",1,0.70746541605331,NA,NA,NA
"experimental",11,18,"ld","lower","unsmilung","nw","nw","h","h",1,0.893472386174835,NA,NA,NA
"experimental",11,19,"ld","lower","greft","nw","nw","h","h",1,0.608055157354102,NA,NA,NA
"experimental",11,20,"ld","lower","yellep","nw","nw","h","h",1,0.582060719723813,NA,NA,NA
"experimental",11,21,"ld","lower","planar","w","w","g","h",0,0.741353356163017,NA,NA,NA
"experimental",11,22,"ld","lower","jinds","nw","nw","h","h",1,0.494003992527723,NA,NA,NA
"experimental",11,23,"ld","lower","visible","w","w","g","g",1,0.600599629455246,NA,NA,NA
"experimental",11,24,"ld","lower","octopus","target","target","q","g",0,0.758387275389396,NA,NA,NA
"experimental",11,25,"ld","lower","holdup","aftertar1","w","g","g",1,1.38224140310194,NA,NA,NA
"experimental",11,26,"ld","lower","penalize","aftertar2","w","g","h",0,1.24556980433408,NA,NA,NA
"experimental",11,27,"ld","lower","crundle","aftertar3","nw","h","g",0,1.1461906353943,NA,NA,NA
"experimental",11,28,"ld","lower","kiner","nw","nw","h","g",0,1.37884264823515,NA,NA,NA
"experimental",11,29,"ld","lower","arpired","nw","nw","h","h",1,0.962125120917335,NA,NA,NA
"experimental",11,30,"ld","lower","explosion","nw","w","g","g",1,0.714188068523072,NA,NA,NA
"experimental",12,1,"ld","lower","dricked","nw","nw","h","h",1,1.85895751765929,NA,NA,NA
"experimental",12,2,"ld","lower","chraps","nw","nw","h","h",1,1.01482725178357,NA,NA,NA
"experimental",12,3,"ld","lower","iflaid","nw","nw","h","h",1,0.716746491845697,NA,NA,NA
"experimental",12,4,"ld","lower","couple","w","w","g","g",1,0.518698995001614,NA,NA,NA
"experimental",12,5,"ld","lower","railway","w","w","g","g",1,0.776760775013827,NA,NA,NA
"experimental",12,6,"ld","lower","reprint","w","w","g","g",1,0.600053595029749,NA,NA,NA
"experimental",12,7,"ld","lower","roughly","w","w","g","g",1,0.509707688703202,NA,NA,NA
"experimental",12,8,"ld","lower","apology","w","w","g","g",1,0.503679879242554,NA,NA,NA
"experimental",12,9,"ld","lower","alarm","w","w","g","g",1,0.44162151357159,NA,NA,NA
"experimental",12,10,"ld","lower","rebool","nw","nw","h","h",1,1.14232372166589,NA,NA,NA
"experimental",12,11,"ld","lower","audience","w","w","g","g",1,0.614697217708454,NA,NA,NA
"experimental",12,12,"ld","lower","shockwave","w","w","g","g",1,1.48447721626144,NA,NA,NA
"experimental",12,13,"ld","lower","intended","w","w","g","g",1,0.607810060610063,NA,NA,NA
"experimental",12,14,"ld","lower","frogmy","nw","nw","h","h",1,0.972798599628732,NA,NA,NA
"experimental",12,15,"ld","lower","miurnal","nw","nw","h","h",1,0.835908164503053,NA,NA,NA
"experimental",12,16,"ld","lower","huzzles","nw","nw","h","g",0,0.856350799556822,NA,NA,NA
"experimental",12,17,"ld","lower","ausht","nw","nw","h","h",1,0.651148410513997,NA,NA,NA
"experimental",12,18,"ld","lower","finstrel","nw","nw","h","h",1,0.775701305246912,NA,NA,NA
"experimental",12,19,"ld","lower","draze","nw","nw","h","g",0,0.807383978622966,NA,NA,NA
"experimental",12,20,"ld","lower","igiom","nw","nw","h","h",1,0.654084439738654,NA,NA,NA
"experimental",12,21,"ld","lower","hecture","nw","nw","h","h",1,1.39393963944167,NA,NA,NA
"experimental",12,22,"ld","lower","perform","w","w","g","g",1,0.591320062754676,NA,NA,NA
"experimental",12,23,"ld","lower","scarlet","w","w","g","g",1,0.990626970422454,NA,NA,NA
"experimental",12,24,"ld","lower","criminal","w","w","g","g",1,1.06027337315027,NA,NA,NA
"experimental",12,25,"ld","lower","hubris","w","w","g","h",0,0.656265257159248,NA,NA,NA
"experimental",12,26,"ld","lower","scrobby","nw","nw","h","g",0,0.72422526171431,NA,NA,NA
"experimental",12,27,"ld","lower","culinary","w","w","g","h",0,0.573204639134929,NA,NA,NA
"experimental",12,28,"ld","lower","outlaved","nw","nw","h","g",0,0.772438078070991,NA,NA,NA
"experimental",12,29,"ld","lower","encounter","w","w","g","g",1,0.579767616582103,NA,NA,NA
"experimental",12,30,"ld","lower","sludding","nw","nw","h","g",0,0.627122292644344,NA,NA,NA
"experimental",13,1,"hd","upper","permeable","w","w","g","g",1,1.03202537389006,NA,NA,NA
"experimental",13,2,"hd","upper","deakers","nw","nw","h","h",1,0.677284412668087,NA,NA,NA
"experimental",13,3,"hd","upper","shillac","nw","nw","h","h",1,0.864611041499302,NA,NA,NA
"experimental",13,4,"hd","upper","pexts","nw","nw","h","h",1,0.652598163578659,NA,NA,NA
"experimental",13,5,"hd","upper","antique","w","w","g","h",0,0.583449802361429,NA,NA,NA
"experimental",13,6,"hd","upper","schinter","nw","nw","h","g",0,0.934991828748025,NA,NA,NA
"experimental",13,7,"hd","upper","orange","w","w","g","g",1,0.536032946547493,NA,NA,NA
"experimental",13,8,"hd","upper","inducing","w","w","g","g",1,0.888543587992899,NA,NA,NA
"experimental",13,9,"hd","upper","mandlers","nw","nw","h","h",1,1.01914813765325,NA,NA,NA
"experimental",13,10,"hd","upper","integral","w","w","g","g",1,0.832439985708334,NA,NA,NA
"experimental",13,11,"hd","upper","axis","w","w","g","g",1,0.581702431780286,NA,NA,NA
"experimental",13,12,"hd","upper","erony","nw","nw","h","g",0,0.749151777941734,NA,NA,NA
"experimental",13,13,"hd","upper","riosk","nw","nw","h","h",1,0.565671839402057,NA,NA,NA
"experimental",13,14,"hd","upper","presently","w","w","g","g",1,1.28480489726644,NA,NA,NA
"experimental",13,15,"hd","upper","infested","w","w","g","g",1,0.529022335424088,NA,NA,NA
"experimental",13,16,"hd","upper","acoustic","w","w","g","g",1,0.569279167917557,NA,NA,NA
"experimental",13,17,"hd","upper","arrive","w","w","g","g",1,0.504586616298184,NA,NA,NA
"experimental",13,18,"hd","upper","cegalia","nw","nw","h","h",1,0.826559475855902,NA,NA,NA
"experimental",13,19,"hd","upper","splum","nw","nw","h","h",1,0.975886154104956,NA,NA,NA
"experimental",13,20,"hd","upper","slears","nw","nw","h","h",1,1.26326626958326,NA,NA,NA
"experimental",13,21,"hd","upper","retain","w","w","g","g",1,0.739131789887324,NA,NA,NA
"experimental",13,22,"hd","upper","retona","nw","nw","h","h",1,0.835785917937756,NA,NA,NA
"experimental",13,23,"hd","upper","pressures","w","w","g","g",1,0.639543443685398,NA,NA,NA
"experimental",13,24,"hd","upper","collision","w","w","g","g",1,0.756142467260361,NA,NA,NA
"experimental",13,25,"hd","upper","felevance","nw","nw","h","h",1,0.804112299811095,NA,NA,NA
"experimental",13,26,"hd","upper","thorifies","nw","nw","h","h",1,1.17003353440668,NA,NA,NA
"experimental",13,27,"hd","upper","acidic","w","w","g","g",1,0.656181646510959,NA,NA,NA
"experimental",13,28,"hd","upper","satisfies","w","w","g","g",1,0.636633373098448,NA,NA,NA
"experimental",13,29,"hd","upper","cripet","nw","nw","h","g",0,1.00985438446514,NA,NA,NA
"experimental",13,30,"hd","upper","dazid","nw","nw","h","h",1,0.967900891206227,NA,NA,NA
"experimental",14,1,"hd","upper","noblin","nw","nw","h","h",1,0.654669110081159,NA,NA,NA
"experimental",14,2,"hd","upper","hinsome","nw","nw","h","h",1,1.33867636881769,NA,NA,NA
"experimental",14,3,"hd","upper","arcients","nw","nw","h","h",1,0.843426475767046,NA,NA,NA
"experimental",14,4,"hd","upper","metrol","nw","nw","h","g",0,0.640016432036646,NA,NA,NA
"experimental",14,5,"hd","upper","rainfall","w","w","g","g",1,0.516636801999994,NA,NA,NA
"experimental",14,6,"hd","upper","pariah","w","w","g","h",0,1.1905187292723,NA,NA,NA
"experimental",14,7,"hd","upper","rational","w","w","g","g",1,0.836247738217935,NA,NA,NA
"experimental",14,8,"hd","upper","hustle","w","w","g","g",1,0.656830911291763,NA,NA,NA
"experimental",14,9,"hd","upper","roodies","nw","nw","h","h",1,0.932861419278197,NA,NA,NA
"experimental",14,10,"hd","upper","tycoon","w","w","g","h",0,0.758122860686854,NA,NA,NA
"experimental",14,11,"hd","upper","gures","nw","nw","h","h",1,2.26211654860526,NA,NA,NA
"experimental",14,12,"hd","upper","leuter","nw","nw","h","h",1,0.986070344806649,NA,NA,NA
"experimental",14,13,"hd","upper","flougy","nw","nw","h","h",1,0.879784700926393,NA,NA,NA
"experimental",14,14,"hd","upper","grested","nw","nw","h","h",1,1.02585147239733,NA,NA,NA
"experimental",14,15,"hd","upper","digest","w","w","g","g",1,0.695704999845475,NA,NA,NA
"experimental",14,16,"hd","upper","actual","w","w","g","g",1,0.546973254648037,NA,NA,NA
"experimental",14,17,"hd","upper","hemoter","nw","nw","h","h",1,1.39553276810329,NA,NA,NA
"experimental",14,18,"hd","upper","snays","nw","nw","h","h",1,0.810220097657293,NA,NA,NA
"experimental",14,19,"hd","upper","peags","nw","nw","h","h",1,0.896245419979095,NA,NA,NA
"experimental",14,20,"hd","upper","moisture","w","w","g","g",1,0.594814200070687,NA,NA,NA
"experimental",14,21,"hd","upper","maximized","w","w","g","g",1,0.600094947498292,NA,NA,NA
"experimental",14,22,"hd","upper","slogan","w","w","g","g",1,0.623404187732376,NA,NA,NA
"experimental",14,23,"hd","upper","dolphin","target","target","q","g",0,0.555727010243572,1,1,NA
"experimental",14,24,"hd","upper","listless","aftertar1","w","g","g",1,1.63566988939419,NA,NA,NA
"experimental",14,25,"hd","upper","bloves","aftertar2","nw","h","h",1,0.776375924935564,NA,NA,NA
"experimental",14,26,"hd","upper","standard","aftertar3","w","g","g",1,0.5916182838846,NA,NA,NA
"experimental",14,27,"hd","upper","arrigns","w","nw","h","g",0,0.646346688386984,NA,NA,NA
"experimental",14,28,"hd","upper","eugenifs","nw","nw","h","h",1,0.786951606394723,NA,NA,NA
"experimental",14,29,"hd","upper","rarely","nw","w","g","g",1,0.825581805547699,NA,NA,NA
"experimental",14,30,"hd","upper","sampling","w","w","g","g",1,0.53399882488884,NA,NA,NA
"experimental",15,1,"ld","lower","kickoff","w","w","g","g",1,0.646361176855862,NA,NA,NA
"experimental",15,2,"ld","lower","alchemist","w","w","g","h",0,0.89792698866222,NA,NA,NA
"experimental",15,3,"ld","lower","halms","nw","nw","h","h",1,0.85264748474583,NA,NA,NA
"experimental",15,4,"ld","lower","alticles","nw","nw","h","h",1,0.785381719702855,NA,NA,NA
"experimental",15,5,"ld","lower","beartiset","nw","nw","h","h",1,1.10429056850262,NA,NA,NA
"experimental",15,6,"ld","lower","veirs","nw","nw","h","h",1,1.01733828568831,NA,NA,NA
"experimental",15,7,"ld","lower","ragtam","nw","nw","h","h",1,0.614523657946847,NA,NA,NA
"experimental",15,8,"ld","lower","preclude","w","w","g","g",1,1.58846190921031,NA,NA,NA
"experimental",15,9,"ld","lower","failure","w","w","g","g",1,0.595098838210106,NA,NA,NA
"experimental",15,10,"ld","lower","coverall","w","w","g","g",1,0.657775982515886,NA,NA,NA
"experimental",15,11,"ld","lower","latirizes","nw","nw","h","h",1,0.901692784857005,NA,NA,NA
"experimental",15,12,"ld","lower","postal","w","w","g","g",1,0.703679396305233,NA,NA,NA
"experimental",15,13,"ld","lower","recollect","w","w","g","g",1,0.545647257240489,NA,NA,NA
"experimental",15,14,"ld","lower","detrabe","nw","nw","h","h",1,0.937438871944323,NA,NA,NA
"experimental",15,15,"ld","lower","enabled","w","w","g","g",1,0.841947444016114,NA,NA,NA
"experimental",15,16,"ld","lower","marinate","w","w","g","g",1,0.742585178348236,NA,NA,NA
"experimental",15,17,"ld","lower","wrecber","nw","nw","h","h",1,0.67921922786627,NA,NA,NA
"experimental",15,18,"ld","lower","insole","w","w","g","g",1,0.994538255035877,NA,NA,NA
"experimental",15,19,"ld","lower","peadgear","nw","nw","h","h",1,0.785126963979565,NA,NA,NA
"experimental",15,20,"ld","lower","hostade","nw","nw","h","h",1,0.775709455134347,NA,NA,NA
"experimental",15,21,"ld","lower","lasprey","nw","nw","h","h",1,0.951130782836117,NA,NA,NA
"experimental",15,22,"ld","lower","monopoly","w","w","g","g",1,0.551097036921419,NA,NA,NA
"experimental",15,23,"ld","lower","lancos","nw","nw","h","h",1,1.20604946941603,NA,NA,NA
"experimental",15,24,"ld","lower","exclusion","w","w","g","g",1,0.530807134578936,NA,NA,NA
"experimental",15,25,"ld","lower","boulder","w","w","g","g",1,1.11676061805338,NA,NA,NA
"experimental",15,26,"ld","lower","guitar","w","w","g","g",1,0.758674932061695,NA,NA,NA
"experimental",15,27,"ld","lower","profats","nw","nw","h","h",1,0.678580225678161,NA,NA,NA
"experimental",15,28,"ld","lower","hivinity","nw","nw","h","h",1,0.569938393542543,NA,NA,NA
"experimental",15,29,"ld","lower","balign","nw","nw","h","h",1,0.769210770144127,NA,NA,NA
"experimental",15,30,"ld","lower","managed","w","w","g","g",1,0.792576153296977,NA,NA,NA
"experimental",16,1,"hd","upper","bumbo","nw","nw","h","h",1,0.934660706785508,NA,NA,NA
"experimental",16,2,"hd","upper","arrow","w","w","g","g",1,0.511316211312078,NA,NA,NA
"experimental",16,3,"hd","upper","migmarole","nw","nw","h","h",1,0.793365171528421,NA,NA,NA
"experimental",16,4,"hd","upper","joadbed","nw","nw","h","h",1,0.711041654692963,NA,NA,NA
"experimental",16,5,"hd","upper","series","w","w","g","g",1,0.600951276835985,NA,NA,NA
"experimental",16,6,"hd","upper","moozy","nw","nw","h","h",1,0.78286615817342,NA,NA,NA
"experimental",16,7,"hd","upper","surround","w","w","g","g",1,0.518223290098831,NA,NA,NA
"experimental",16,8,"hd","upper","eggays","nw","nw","h","h",1,0.831537172547542,NA,NA,NA
"experimental",16,9,"hd","upper","phambled","nw","nw","h","g",0,0.980836383183487,NA,NA,NA
"experimental",16,10,"hd","upper","oppose","w","w","g","g",1,0.72413651982788,NA,NA,NA
"experimental",16,11,"hd","upper","icepick","w","w","g","g",1,0.749410457676277,NA,NA,NA
"experimental",16,12,"hd","upper","resonant","w","w","g","g",1,0.58106735360343,NA,NA,NA
"experimental",16,13,"hd","upper","fonducts","nw","nw","h","h",1,0.987396644079126,NA,NA,NA
"experimental",16,14,"hd","upper","protest","w","w","g","g",1,0.587408476276323,NA,NA,NA
"experimental",16,15,"hd","upper","forfeit","w","w","g","g",1,0.841627490124665,NA,NA,NA
"experimental",16,16,"hd","upper","nameplate","w","w","g","h",0,0.790295425686054,NA,NA,NA
"experimental",16,17,"hd","upper","amkles","nw","nw","h","h",1,0.86096205865033,NA,NA,NA
"experimental",16,18,"hd","upper","vorm","nw","nw","h","h",1,0.680891741183586,NA,NA,NA
"experimental",16,19,"hd","upper","rawhide","w","w","g","h",0,0.620258075650781,NA,NA,NA
"experimental",16,20,"hd","upper","thaken","nw","nw","h","h",1,0.513570678420365,NA,NA,NA
"experimental",16,21,"hd","upper","wimpid","nw","nw","h","h",1,0.603569766855799,NA,NA,NA
"experimental",16,22,"hd","upper","omners","nw","nw","h","h",1,0.504585408954881,NA,NA,NA
"experimental",16,23,"hd","upper","ucility","nw","nw","h","h",1,0.627438020659611,NA,NA,NA
"experimental",16,24,"hd","upper","ethical","w","w","g","g",1,0.575765779009089,NA,NA,NA
"experimental",16,25,"hd","upper","booster","w","w","g","g",1,0.559031891869381,NA,NA,NA
"experimental",16,26,"hd","upper","pripend","nw","nw","h","g",0,1.11902534798719,NA,NA,NA
"experimental",16,27,"hd","upper","reborn","w","w","g","g",1,0.720358951715752,NA,NA,NA
"experimental",16,28,"hd","upper","happen","w","w","g","g",1,0.48159099125769,NA,NA,NA
"experimental",16,29,"hd","upper","rabbit","target","target","q","g",0,0.516929891775362,NA,NA,NA
"experimental",16,30,"hd","upper","actively","aftertar1","w","g","g",1,0.854317885357887,NA,NA,NA
"experimental",17,1,"ld","lower","resent","w","w","g","g",1,1.27375743491575,NA,NA,NA
"experimental",17,2,"ld","lower","snife","nw","nw","h","g",0,1.21990105544683,NA,NA,NA
"experimental",17,3,"ld","lower","turntable","w","w","g","g",1,1.40980059595313,NA,NA,NA
"experimental",17,4,"ld","lower","olgies","nw","nw","h","h",1,0.672336296527646,NA,NA,NA
"experimental",17,5,"ld","lower","contusiok","nw","nw","h","h",1,0.906764656654559,NA,NA,NA
"experimental",17,6,"ld","lower","landing","w","w","g","h",0,0.556676005478948,NA,NA,NA
"experimental",17,7,"ld","lower","party","w","w","g","g",1,0.580521922791377,NA,NA,NA
"experimental",17,8,"ld","lower","organize","w","w","g","g",1,0.563944088644348,NA,NA,NA
"experimental",17,9,"ld","lower","offonents","nw","nw","h","h",1,0.923883695853874,NA,NA,NA
"experimental",17,10,"ld","lower","glaims","nw","nw","h","h",1,0.645120299304835,NA,NA,NA
"experimental",17,11,"ld","lower","priant","nw","nw","h","h",1,0.697773531544954,NA,NA,NA
"experimental",17,12,"ld","lower","terming","w","w","g","g",1,0.868408229318447,NA,NA,NA
"experimental",17,13,"ld","lower","number","w","w","g","g",1,0.583858196157962,NA,NA,NA
"experimental",17,14,"ld","lower","inversion","w","w","g","g",1,0.549445954267867,NA,NA,NA
"experimental",17,15,"ld","lower","remain","w","w","g","g",1,0.527040734654292,NA,NA,NA
"experimental",17,16,"ld","lower","mustled","nw","nw","h","h",1,0.863347827573307,NA,NA,NA
"experimental",17,17,"ld","lower","bamboo","w","w","g","g",1,0.899281962891109,NA,NA,NA
"experimental",17,18,"ld","lower","endgume","nw","nw","h","g",0,0.813959633582272,NA,NA,NA
"experimental",17,19,"ld","lower","rivet","w","w","g","h",0,1.33190421399195,NA,NA,NA
"experimental",17,20,"ld","lower","prama","nw","nw","h","h",1,0.765256321989,NA,NA,NA
"experimental",17,21,"ld","lower","ecistle","nw","nw","h","g",0,1.26919507433195,NA,NA,NA
"experimental",17,22,"ld","lower","derisury","nw","nw","h","h",1,0.95247821114026,NA,NA,NA
"experimental",17,23,"ld","lower","fraft","nw","nw","h","h",1,0.598388325888664,NA,NA,NA
"experimental",17,24,"ld","lower","upstairs","w","w","g","g",1,0.725076761445962,NA,NA,NA
"experimental",17,25,"ld","lower","legalosm","nw","nw","h","h",1,0.726715468335897,NA,NA,NA
"experimental",17,26,"ld","lower","unrealon","nw","nw","h","h",1,0.792865319061093,NA,NA,NA
"experimental",17,27,"ld","lower","talate","nw","nw","h","h",1,0.743392608943395,NA,NA,NA
"experimental",17,28,"ld","lower","disperse","w","w","g","g",1,1.12002263800241,NA,NA,NA
"experimental",17,29,"ld","lower","angry","w","w","g","g",1,0.473222387488931,NA,NA,NA
"experimental",17,30,"ld","lower","exemplify","w","w","g","g",1,0.580266261706129,NA,NA,NA
"experimental",18,1,"ld","lower","outfit","w","w","g","g",1,0.635381930973381,NA,NA,NA
"experimental",18,2,"ld","lower","elderly","w","w","g","g",1,0.69606721168384,NA,NA,NA
"experimental",18,3,"ld","lower","create","w","w","g","g",1,0.490691866609268,NA,NA,NA
"experimental",18,4,"ld","lower","grolific","nw","nw","h","h",1,0.917395273689181,NA,NA,NA
"experimental",18,5,"ld","lower","bellicove","nw","nw","h","g",0,0.725830765790306,NA,NA,NA
"experimental",18,6,"ld","lower","geadpan","nw","nw","h","h",1,0.863924046279863,NA,NA,NA
"experimental",18,7,"ld","lower","showdown","w","w","g","g",1,0.62697167287115,NA,NA,NA
"experimental",18,8,"ld","lower","markot","nw","nw","h","h",1,0.624254178255796,NA,NA,NA
"experimental",18,9,"ld","lower","tharcely","nw","nw","h","h",1,0.717680998379365,NA,NA,NA
"experimental",18,10,"ld","lower","fatho","nw","nw","h","h",1,0.566873779171146,NA,NA,NA
"experimental",18,11,"ld","lower","blocking","w","w","g","g",1,0.702871965710074,NA,NA,NA
"experimental",18,12,"ld","lower","suspect","w","w","g","g",1,0.728926168289036,NA,NA,NA
"experimental",18,13,"ld","lower","sunshine","w","w","g","g",1,0.49677370605059,NA,NA,NA
"experimental",18,14,"ld","lower","fomrade","nw","nw","h","h",1,0.707901881309226,NA,NA,NA
"experimental",18,15,"ld","lower","expensive","w","w","g","g",1,0.557293274789117,NA,NA,NA
"experimental",18,16,"ld","lower","labitable","nw","nw","h","g",0,1.79777057352476,NA,NA,NA
"experimental",18,17,"ld","lower","oppose","w","w","g","g",1,0.628323930664919,NA,NA,NA
"experimental",18,18,"ld","lower","implode","w","w","g","h",0,0.809683722211048,NA,NA,NA
"experimental",18,19,"ld","lower","imprives","nw","nw","h","g",0,0.871608975110576,NA,NA,NA
"experimental",18,20,"ld","lower","ephically","nw","nw","h","g",0,1.61091904586647,NA,NA,NA
"experimental",18,21,"ld","lower","phonology","w","w","g","g",1,0.952905319281854,NA,NA,NA
"experimental",18,22,"ld","lower","lightels","nw","nw","h","h",1,0.999969320255332,NA,NA,NA
"experimental",18,23,"ld","lower","filny","nw","nw","h","h",1,0.743469579028897,NA,NA,NA
"experimental",18,24,"ld","lower","nomma","nw","nw","h","h",1,0.567212145426311,NA,NA,NA
"experimental",18,25,"ld","lower","tucker","w","w","g","g",1,0.79839206871111,NA,NA,NA
"experimental",18,26,"ld","lower","pester","w","w","g","h",0,0.741005028947257,NA,NA,NA
"experimental",18,27,"ld","lower","fictional","w","w","g","g",1,0.597709178575315,NA,NA,NA
"experimental",18,28,"ld","lower","system","w","w","g","g",1,0.508399500162341,NA,NA,NA
"experimental",18,29,"ld","lower","blerapies","nw","nw","h","h",1,0.654360928107053,NA,NA,NA
"experimental",18,30,"ld","lower","gackpedal","nw","nw","h","h",1,0.610302078421228,NA,NA,NA
"experimental",19,1,"hd","upper","despise","w","w","g","g",1,0.982657101587392,NA,NA,NA
"experimental",19,2,"hd","upper","browting","nw","nw","h","h",1,0.758252049679868,NA,NA,NA
"experimental",19,3,"hd","upper","dingly","nw","nw","h","h",1,0.606842049281113,NA,NA,NA
"experimental",19,4,"hd","upper","tablet","w","w","g","g",1,0.541043242439628,NA,NA,NA
"experimental",19,5,"hd","upper","truthful","w","w","g","g",1,0.605625017429702,NA,NA,NA
"experimental",19,6,"hd","upper","suburb","w","w","g","h",0,0.979573471006006,NA,NA,NA
"experimental",19,7,"hd","upper","pressing","w","w","g","g",1,0.778023687074892,NA,NA,NA
"experimental",19,8,"hd","upper","unmarked","w","w","g","g",1,0.633284724201076,NA,NA,NA
"experimental",19,9,"hd","upper","handed","w","w","g","g",1,0.542588679818437,NA,NA,NA
"experimental",19,10,"hd","upper","cobalt","w","w","g","g",1,0.823163135675713,NA,NA,NA
"experimental",19,11,"hd","upper","pillage","w","w","g","h",0,0.884500095969997,NA,NA,NA
"experimental",19,12,"hd","upper","clooped","nw","nw","h","h",1,0.735060830134898,NA,NA,NA
"experimental",19,13,"hd","upper","cogantly","nw","nw","h","h",1,1.55172698374372,NA,NA,NA
"experimental",19,14,"hd","upper","gairs","nw","nw","h","h",1,0.67882471869234,NA,NA,NA
"experimental",19,15,"hd","upper","classify","w","w","g","g",1,0.579039268894121,NA,NA,NA
"experimental",19,16,"hd","upper","carbled","nw","nw","h","h",1,0.977328662876971,NA,NA,NA
"experimental",19,17,"hd","upper","calcify","w","w","g","h",0,1.07254330068827,NA,NA,NA
"experimental",19,18,"hd","upper","coster","nw","nw","h","g",0,0.763912817696109,NA,NA,NA
"experimental",19,19,"hd","upper","colored","w","w","g","g",1,0.56390303792432,NA,NA,NA
"experimental",19,20,"hd","upper","pollute","w","w","g","g",1,0.659912127070129,NA,NA,NA
"experimental",19,21,"hd","upper","supplier","w","w","g","g",1,0.54382834979333,NA,NA,NA
"experimental",19,22,"hd","upper","chesume","nw","nw","h","h",1,0.640424222336151,NA,NA,NA
"experimental",19,23,"hd","upper","kangaroo","target","target","q","g",0,0.891988826682791,1,1,NA
"experimental",19,24,"hd","upper","tyena","aftertar1","nw","h","h",1,0.750465701567009,NA,NA,NA
"experimental",19,25,"hd","upper","fullity","aftertar2","nw","h","g",0,1.51817620242946,NA,NA,NA
"experimental",19,26,"hd","upper","havel","aftertar3","nw","h","h",1,0.680003416608088,NA,NA,NA
"experimental",19,27,"hd","upper","harfing","nw","nw","h","h",1,1.04329982248601,NA,NA,NA
"experimental",19,28,"hd","upper","chrayed","nw","nw","h","h",1,0.727951214648783,NA,NA,NA
"experimental",19,29,"hd","upper","slending","nw","nw","h","g",0,0.569299995084293,NA,NA,NA
"experimental",19,30,"hd","upper","mounting","nw","w","g","g",1,0.624611560604535,NA,NA,NA
"experimental",20,1,"hd","upper","duries","nw","nw","h","h",1,0.925366953597404,NA,NA,NA
"experimental",20,2,"hd","upper","ebuating","nw","nw","h","h",1,1.1346297377022,NA,NA,NA
"experimental",20,3,"hd","upper","poyride","nw","nw","h","g",0,1.29535824235063,NA,NA,NA
"experimental",20,4,"hd","upper","analysis","w","w","g","g",1,0.577955048065633,NA,NA,NA
"experimental",20,5,"hd","upper","whirling","w","w","g","g",1,0.58526206901297,NA,NA,NA
"experimental",20,6,"hd","upper","nostril","w","w","g","h",0,0.623003943590447,NA,NA,NA
"experimental",20,7,"hd","upper","binder","w","w","g","g",1,0.629207123885863,NA,NA,NA
"experimental",20,8,"hd","upper","unlined","w","w","g","g",1,0.513515441096388,NA,NA,NA
"experimental",20,9,"hd","upper","chyme","nw","nw","h","h",1,0.635493009234779,NA,NA,NA
"experimental",20,10,"hd","upper","region","w","w","g","g",1,0.536064639920369,NA,NA,NA
"experimental",20,11,"hd","upper","bypassed","w","w","g","g",1,0.904745023697615,NA,NA,NA
"experimental",20,12,"hd","upper","buzzer","w","w","g","g",1,0.657664904254489,NA,NA,NA
"experimental",20,13,"hd","upper","confined","w","w","g","g",1,0.565934141166508,NA,NA,NA
"experimental",20,14,"hd","upper","sodent","nw","nw","h","g",0,0.766525572864339,NA,NA,NA
"experimental",20,15,"hd","upper","elbalm","nw","nw","h","h",1,0.805733801680617,NA,NA,NA
"experimental",20,16,"hd","upper","haurded","nw","nw","h","h",1,1.50762798881624,NA,NA,NA
"experimental",20,17,"hd","upper","pircus","nw","nw","h","h",1,0.757525512948632,NA,NA,NA
"experimental",20,18,"hd","upper","dounger","nw","nw","h","h",1,0.63752260315232,NA,NA,NA
"experimental",20,19,"hd","upper","potatoes","w","w","g","g",1,0.57022152247373,NA,NA,NA
"experimental",20,20,"hd","upper","machinery","w","w","g","g",1,0.809398178593256,NA,NA,NA
"experimental",20,21,"hd","upper","funtair","nw","nw","h","g",0,0.607410420081578,NA,NA,NA
"experimental",20,22,"hd","upper","elormity","nw","nw","h","h",1,0.797430999926291,NA,NA,NA
"experimental",20,23,"hd","upper","forgery","w","w","g","h",0,0.66004312701989,NA,NA,NA
"experimental",20,24,"hd","upper","sonnet","w","w","g","h",0,0.751947449985892,NA,NA,NA
"experimental",20,25,"hd","upper","anemic","w","w","g","g",1,1.24694651120808,NA,NA,NA
"experimental",20,26,"hd","upper","ebciting","nw","nw","h","h",1,0.827643092954531,NA,NA,NA
"experimental",20,27,"hd","upper","downtrund","nw","nw","h","h",1,0.896923359949142,NA,NA,NA
"experimental",20,28,"hd","upper","childhood","w","w","g","g",1,0.643561882781796,NA,NA,NA
"experimental",20,29,"hd","upper","caterpillar","target","target","q","g",0,1.0321527516935,NA,NA,NA
"experimental",20,30,"hd","upper","defensa","aftertar1","nw","h","h",1,1.24541043106001,NA,NA,NA
"experimental",21,1,"ld","lower","frequency","w","w","g","g",1,0.776663581607863,NA,NA,NA
"experimental",21,2,"ld","lower","dontrite","nw","nw","h","g",0,1.30494116141926,NA,NA,NA
"experimental",21,3,"ld","lower","currowing","nw","nw","h","h",1,1.07496136671398,NA,NA,NA
"experimental",21,4,"ld","lower","mitro","nw","nw","h","g",0,0.806118048145436,NA,NA,NA
"experimental",21,5,"ld","lower","knowledge","w","w","g","g",1,0.604166812845506,NA,NA,NA
"experimental",21,6,"ld","lower","grummer","nw","nw","h","h",1,0.785127265960909,NA,NA,NA
"experimental",21,7,"ld","lower","jiggling","w","w","g","h",0,0.703907589777373,NA,NA,NA
"experimental",21,8,"ld","lower","purpose","w","w","g","g",1,0.737728218897246,NA,NA,NA
"experimental",21,9,"ld","lower","abstain","w","w","g","g",1,1.05033397709485,NA,NA,NA
"experimental",21,10,"ld","lower","gymnasium","w","w","g","g",1,1.38299450196791,NA,NA,NA
"experimental",21,11,"ld","lower","subpoena","w","w","g","h",0,1.10229146073107,NA,NA,NA
"experimental",21,12,"ld","lower","static","w","w","g","g",1,0.624208599911071,NA,NA,NA
"experimental",21,13,"ld","lower","coyote","target","target","q","g",0,0.773541918839328,1,1,NA
"experimental",21,14,"ld","lower","glating","aftertar1","nw","h","h",1,0.851960187777877,NA,NA,NA
"experimental",21,15,"ld","lower","brongs","aftertar2","nw","h","h",1,0.775893277605064,NA,NA,NA
"experimental",21,16,"ld","lower","cavern","aftertar3","w","g","h",0,1.22312534484081,NA,NA,NA
"experimental",21,17,"ld","lower","harder","w","w","g","g",1,0.74037568597123,NA,NA,NA
"experimental",21,18,"ld","lower","roaned","w","nw","h","h",1,0.829050889937207,NA,NA,NA
"experimental",21,19,"ld","lower","batire","nw","nw","h","h",1,0.914371408172883,NA,NA,NA
"experimental",21,20,"ld","lower","urgency","nw","w","g","g",1,0.595230441889726,NA,NA,NA
"experimental",21,21,"ld","lower","yash","w","nw","h","h",1,0.761769126984291,NA,NA,NA
"experimental",21,22,"ld","lower","turning","nw","w","g","g",1,0.586188124027103,NA,NA,NA
"experimental",21,23,"ld","lower","foster","w","w","g","g",1,0.513468353543431,NA,NA,NA
"experimental",21,24,"ld","lower","rapport","w","w","g","h",0,0.946604341734201,NA,NA,NA
"experimental",21,25,"ld","lower","pived","w","nw","h","h",1,0.755127670359798,NA,NA,NA
"experimental",21,26,"ld","lower","saturate","nw","w","g","g",1,0.923166516353376,NA,NA,NA
"experimental",21,27,"ld","lower","rualify","w","nw","h","h",1,0.604474089224823,NA,NA,NA
"experimental",21,28,"ld","lower","sength","nw","nw","h","h",1,0.890450935345143,NA,NA,NA
"experimental",21,29,"ld","lower","fisco","nw","nw","h","h",1,0.677040825132281,NA,NA,NA
"experimental",21,30,"ld","lower","imotope","nw","nw","h","g",0,1.24844848318025,NA,NA,NA
"experimental",22,1,"ld","lower","latpin","nw","nw","h","g",0,0.876601462252438,NA,NA,NA
"experimental",22,2,"ld","lower","superstar","w","w","g","g",1,0.679840119439177,NA,NA,NA
"experimental",22,3,"ld","lower","culer","nw","nw","h","g",0,0.771262700553052,NA,NA,NA
"experimental",22,4,"ld","lower","company","w","w","g","g",1,0.698500370024703,NA,NA,NA
"experimental",22,5,"ld","lower","ottans","nw","nw","h","h",1,0.637155561824329,NA,NA,NA
"experimental",22,6,"ld","lower","potter","w","w","g","g",1,0.977872282499448,NA,NA,NA
"experimental",22,7,"ld","lower","painter","w","w","g","g",1,0.728101230692118,NA,NA,NA
"experimental",22,8,"ld","lower","maintain","w","w","g","g",1,0.561412227572873,NA,NA,NA
"experimental",22,9,"ld","lower","padicals","nw","nw","h","h",1,1.64026213239413,NA,NA,NA
"experimental",22,10,"ld","lower","sporidic","nw","nw","h","h",1,1.10113509919029,NA,NA,NA
"experimental",22,11,"ld","lower","antonym","w","w","g","g",1,0.63185549643822,NA,NA,NA
"experimental",22,12,"ld","lower","welayed","nw","nw","h","h",1,0.765498098451644,NA,NA,NA
"experimental",22,13,"ld","lower","tracing","w","w","g","g",1,0.581364669254981,NA,NA,NA
"experimental",22,14,"ld","lower","fidelity","w","w","g","h",0,0.796577085391618,NA,NA,NA
"experimental",22,15,"ld","lower","ofsters","nw","nw","h","h",1,0.810324233723804,NA,NA,NA
"experimental",22,16,"ld","lower","realize","w","w","g","g",1,0.664229390909895,NA,NA,NA
"experimental",22,17,"ld","lower","lenie","nw","nw","h","h",1,0.636173062026501,NA,NA,NA
"experimental",22,18,"ld","lower","typical","w","w","g","g",1,0.960857983096503,NA,NA,NA
"experimental",22,19,"ld","lower","frowsed","nw","nw","h","h",1,1.03276156948414,NA,NA,NA
"experimental",22,20,"ld","lower","scrib","nw","nw","h","h",1,0.886067567858845,NA,NA,NA
"experimental",22,21,"ld","lower","epthuse","nw","nw","h","h",1,0.904685560497455,NA,NA,NA
"experimental",22,22,"ld","lower","iolize","nw","nw","h","h",1,0.946669841767289,NA,NA,NA
"experimental",22,23,"ld","lower","passet","nw","nw","h","g",0,1.0743951088516,NA,NA,NA
"experimental",22,24,"ld","lower","brother","w","w","g","g",1,0.501674432773143,NA,NA,NA
"experimental",22,25,"ld","lower","nature","w","w","g","g",1,0.519644367974252,NA,NA,NA
"experimental",22,26,"ld","lower","setwixt","nw","nw","h","h",1,0.705070591764525,NA,NA,NA
"experimental",22,27,"ld","lower","image","w","w","g","g",1,0.946941802510992,NA,NA,NA
"experimental",22,28,"ld","lower","decant","w","w","g","g",1,0.611639847629704,NA,NA,NA
"experimental",22,29,"ld","lower","doads","nw","nw","h","h",1,0.561620197608136,NA,NA,NA
"experimental",22,30,"ld","lower","deceit","w","w","g","h",0,0.849508617073298,NA,NA,NA
"experimental",23,1,"hd","upper","donastic","nw","nw","h","g",0,0.781019783113152,NA,NA,NA
"experimental",23,2,"hd","upper","smabled","nw","nw","h","h",1,0.932315988466144,NA,NA,NA
"experimental",23,3,"hd","upper","fassed","nw","nw","h","h",1,0.517635299474932,NA,NA,NA
"experimental",23,4,"hd","upper","oginous","nw","nw","h","h",1,0.902929134783335,NA,NA,NA
"experimental",23,5,"hd","upper","fillings","w","w","g","h",0,0.632922512246296,NA,NA,NA
"experimental",23,6,"hd","upper","ignore","w","w","g","g",1,0.526235115015879,NA,NA,NA
"experimental",23,7,"hd","upper","gelented","nw","nw","h","h",1,0.894626031047665,NA,NA,NA
"experimental",23,8,"hd","upper","located","w","w","g","g",1,0.753136108745821,NA,NA,NA
"experimental",23,9,"hd","upper","fracture","w","w","g","g",1,0.665065798442811,NA,NA,NA
"experimental",23,10,"hd","upper","filter","w","w","g","g",1,0.485035022604279,NA,NA,NA
"experimental",23,11,"hd","upper","remade","w","w","g","g",1,0.631680427351967,NA,NA,NA
"experimental",23,12,"hd","upper","plapping","nw","nw","h","h",1,0.717201067716815,NA,NA,NA
"experimental",23,13,"hd","upper","ilcurring","nw","nw","h","h",1,1.30233323585708,NA,NA,NA
"experimental",23,14,"hd","upper","tenpince","nw","nw","h","h",1,0.768294374109246,NA,NA,NA
"experimental",23,15,"hd","upper","retreat","w","w","g","g",1,0.57563357159961,NA,NA,NA
"experimental",23,16,"hd","upper","pretzel","w","w","g","g",1,0.573884691926651,NA,NA,NA
"experimental",23,17,"hd","upper","allained","nw","nw","h","h",1,0.901243038475514,NA,NA,NA
"experimental",23,18,"hd","upper","irfirm","nw","nw","h","h",1,0.599192436202429,NA,NA,NA
"experimental",23,19,"hd","upper","valif","nw","nw","h","h",1,0.573819493758492,NA,NA,NA
"experimental",23,20,"hd","upper","thacked","nw","nw","h","h",1,1.17210266983602,NA,NA,NA
"experimental",23,21,"hd","upper","mullet","w","w","g","g",1,0.787221454200335,NA,NA,NA
"experimental",23,22,"hd","upper","rationale","w","w","g","g",1,0.562719812500291,NA,NA,NA
"experimental",23,23,"hd","upper","corg","nw","nw","h","h",1,0.650165910832584,NA,NA,NA
"experimental",23,24,"hd","upper","etuip","nw","nw","h","h",1,0.679671087185852,NA,NA,NA
"experimental",23,25,"hd","upper","formation","w","w","g","g",1,0.530027473461814,NA,NA,NA
"experimental",23,26,"hd","upper","squadroim","nw","nw","h","h",1,0.947233383078128,NA,NA,NA
"experimental",23,27,"hd","upper","walnut","w","w","g","h",0,0.611999946646392,NA,NA,NA
"experimental",23,28,"hd","upper","absent","w","w","g","g",1,0.601932267309166,NA,NA,NA
"experimental",23,29,"hd","upper","caloric","w","w","g","h",0,1.44791102106683,NA,NA,NA
"experimental",23,30,"hd","upper","terrify","w","w","g","g",1,0.812621864373796,NA,NA,NA
"experimental",24,1,"hd","upper","ronvince","nw","nw","h","h",1,0.802006037789397,NA,NA,NA
"experimental",24,2,"hd","upper","misest","nw","nw","h","g",0,0.951974736643024,NA,NA,NA
"experimental",24,3,"hd","upper","geborn","nw","nw","h","h",1,0.671951748197898,NA,NA,NA
"experimental",24,4,"hd","upper","handbook","w","w","g","g",1,0.611339211696759,NA,NA,NA
"experimental",24,5,"hd","upper","uncorked","w","w","g","g",1,1.32931892666966,NA,NA,NA
"experimental",24,6,"hd","upper","cassette","w","w","g","g",1,0.953758630203083,NA,NA,NA
"experimental",24,7,"hd","upper","legalize","w","w","g","g",1,0.841490151477046,NA,NA,NA
"experimental",24,8,"hd","upper","forecast","w","w","g","g",1,0.533042283612303,NA,NA,NA
"experimental",24,9,"hd","upper","entertain","w","w","g","g",1,0.606352459639311,NA,NA,NA
"experimental",24,10,"hd","upper","chining","nw","nw","h","g",0,0.708687579259276,NA,NA,NA
"experimental",24,11,"hd","upper","fashing","nw","nw","h","h",1,0.943401784985326,NA,NA,NA
"experimental",24,12,"hd","upper","servant","w","w","g","g",1,0.592156470404007,NA,NA,NA
"experimental",24,13,"hd","upper","planofoad","nw","nw","h","h",1,1.07074642775115,NA,NA,NA
"experimental",24,14,"hd","upper","chappef","nw","nw","h","h",1,0.922022530459799,NA,NA,NA
"experimental",24,15,"hd","upper","gazes","w","w","g","g",1,0.523341343970969,NA,NA,NA
"experimental",24,16,"hd","upper","blanned","nw","nw","h","g",0,0.531530350912362,NA,NA,NA
"experimental",24,17,"hd","upper","godomy","nw","nw","h","h",1,0.788918115082197,NA,NA,NA
"experimental",24,18,"hd","upper","oldest","w","w","g","g",1,0.603546223021112,NA,NA,NA
"experimental",24,19,"hd","upper","trembles","w","w","g","g",1,0.617660110932775,NA,NA,NA
"experimental",24,20,"hd","upper","hegacy","nw","nw","h","h",1,0.870790678076446,NA,NA,NA
"experimental",24,21,"hd","upper","sustain","w","w","g","g",1,0.554151992313564,NA,NA,NA
"experimental",24,22,"hd","upper","spider","target","target","q","g",0,0.482059150119312,1,1,NA
"experimental",24,23,"hd","upper","provide","aftertar1","w","g","g",1,0.741404971340671,NA,NA,NA
"experimental",24,24,"hd","upper","doxing","aftertar2","nw","h","h",1,1.25410261075012,NA,NA,NA
"experimental",24,25,"hd","upper","illness","aftertar3","w","g","g",1,0.64102519210428,NA,NA,NA
"experimental",24,26,"hd","upper","amaze","w","w","g","g",1,0.44566349638626,NA,NA,NA
"experimental",24,27,"hd","upper","impirt","w","nw","h","g",0,0.514338869485073,NA,NA,NA
"experimental",24,28,"hd","upper","curtail","nw","w","g","g",1,0.65230567753315,NA,NA,NA
"experimental",24,29,"hd","upper","prillway","w","nw","h","g",0,0.736295972717926,NA,NA,NA
"experimental",24,30,"hd","upper","plogging","nw","nw","h","g",0,1.19284141308162,NA,NA,NA
"experimental",25,1,"ld","lower","entropy","w","w","g","g",1,0.935073930188082,NA,NA,NA
"experimental",25,2,"ld","lower","uncle","w","w","g","g",1,0.599674178054556,NA,NA,NA
"experimental",25,3,"ld","lower","trembla","nw","nw","h","h",1,0.76633722265251,NA,NA,NA
"experimental",25,4,"ld","lower","border","w","w","g","g",1,1.26239696098492,NA,NA,NA
"experimental",25,5,"ld","lower","arrival","w","w","g","g",1,0.610296343336813,NA,NA,NA
"experimental",25,6,"ld","lower","vintnel","nw","nw","h","h",1,0.776298351236619,NA,NA,NA
"experimental",25,7,"ld","lower","unburnid","nw","nw","h","h",1,1.27165479480755,NA,NA,NA
"experimental",25,8,"ld","lower","fission","w","w","g","h",0,0.649940735776909,NA,NA,NA
"experimental",25,9,"ld","lower","stifle","w","w","g","h",0,1.04653528006747,NA,NA,NA
"experimental",25,10,"ld","lower","antwers","nw","nw","h","h",1,0.79517894750461,NA,NA,NA
"experimental",25,11,"ld","lower","unspoken","w","w","g","g",1,0.641782516846433,NA,NA,NA
"experimental",25,12,"ld","lower","inforl","nw","nw","h","h",1,0.630445586750284,NA,NA,NA
"experimental",25,13,"ld","lower","derived","w","w","g","g",1,1.01172369963024,NA,NA,NA
"experimental",25,14,"ld","lower","humanize","w","w","g","g",1,0.569815845112316,NA,NA,NA
"experimental",25,15,"ld","lower","dislokes","nw","nw","h","h",1,0.737247684388421,NA,NA,NA
"experimental",25,16,"ld","lower","stretches","w","w","g","g",1,0.648791014915332,NA,NA,NA
"experimental",25,17,"ld","lower","midday","w","w","g","g",1,1.08544045838062,NA,NA,NA
"experimental",25,18,"ld","lower","gepealed","nw","nw","h","h",1,0.728010979597457,NA,NA,NA
"experimental",25,19,"ld","lower","withep","nw","nw","h","h",1,0.689315582276322,NA,NA,NA
"experimental",25,20,"ld","lower","tritical","nw","nw","h","g",0,1.2989052021876,NA,NA,NA
"experimental",25,21,"ld","lower","portify","nw","nw","h","g",0,0.605828157858923,NA,NA,NA
"experimental",25,22,"ld","lower","quittint","nw","nw","h","h",1,0.71654123836197,NA,NA,NA
"experimental",25,23,"ld","lower","unamufed","nw","nw","h","g",0,0.750568328308873,NA,NA,NA
"experimental",25,24,"ld","lower","ifling","nw","nw","h","h",1,0.662415916798636,NA,NA,NA
"experimental",25,25,"ld","lower","argue","w","w","g","g",1,0.681349637452513,NA,NA,NA
"experimental",25,26,"ld","lower","atble","nw","nw","h","h",1,0.812699136207812,NA,NA,NA
"experimental",25,27,"ld","lower","module","w","w","g","g",1,0.698723734123632,NA,NA,NA
"experimental",25,28,"ld","lower","vivid","w","w","g","g",1,0.573332922416739,NA,NA,NA
"experimental",25,29,"ld","lower","spaceship","w","w","g","g",1,0.676694007241167,NA,NA,NA
"experimental",25,30,"ld","lower","porghum","nw","nw","h","h",1,0.7519860859029,NA,NA,NA
"experimental",26,1,"hd","upper","reforest","w","w","g","g",1,0.638846185756847,NA,NA,NA
"experimental",26,2,"hd","upper","ahead","w","w","g","g",1,0.531486583757214,NA,NA,NA
"experimental",26,3,"hd","upper","paying","w","w","g","g",1,0.524804076179862,NA,NA,NA
"experimental",26,4,"hd","upper","lonnote","nw","nw","h","h",1,1.15815268282313,NA,NA,NA
"experimental",26,5,"hd","upper","redefloy","nw","nw","h","h",1,0.990076710120775,NA,NA,NA
"experimental",26,6,"hd","upper","peanimate","nw","nw","h","h",1,0.852692459477112,NA,NA,NA
"experimental",26,7,"hd","upper","diatonic","w","w","g","g",1,0.791853238712065,NA,NA,NA
"experimental",26,8,"hd","upper","living","w","w","g","g",1,0.494331794208847,NA,NA,NA
"experimental",26,9,"hd","upper","entitle","w","w","g","g",1,0.519879503874108,NA,NA,NA
"experimental",26,10,"hd","upper","gallon","w","w","g","g",1,0.609323502518237,NA,NA,NA
"experimental",26,11,"hd","upper","tasher","nw","nw","h","h",1,0.847816483816132,NA,NA,NA
"experimental",26,12,"hd","upper","joses","nw","nw","h","h",1,0.812997357454151,NA,NA,NA
"experimental",26,13,"hd","upper","recount","w","w","g","g",1,0.762811995460652,NA,NA,NA
"experimental",26,14,"hd","upper","shivering","w","w","g","g",1,0.730939462664537,NA,NA,NA
"experimental",26,15,"hd","upper","catgup","nw","nw","h","h",1,0.772144988179207,NA,NA,NA
"experimental",26,16,"hd","upper","harmful","w","w","g","g",1,0.690494280075654,NA,NA,NA
"experimental",26,17,"hd","upper","slooch","nw","nw","h","h",1,0.773093379684724,NA,NA,NA
"experimental",26,18,"hd","upper","stuggard","nw","nw","h","g",0,0.644350900896825,NA,NA,NA
"experimental",26,19,"hd","upper","rascaps","nw","nw","h","h",1,1.08101090893615,NA,NA,NA
"experimental",26,20,"hd","upper","cabinet","w","w","g","g",1,0.700533586088568,NA,NA,NA
"experimental",26,21,"hd","upper","maunches","nw","nw","h","g",0,1.14236024487764,NA,NA,NA
"experimental",26,22,"hd","upper","brials","nw","nw","h","g",0,0.678949983674102,NA,NA,NA
"experimental",26,23,"hd","upper","chicken","target","target","q","g",0,0.514273973181844,1,1,NA
"experimental",26,24,"hd","upper","revising","aftertar1","w","g","g",1,0.699532975791954,NA,NA,NA
"experimental",26,25,"hd","upper","vopings","aftertar2","nw","h","h",1,0.814266909961589,NA,NA,NA
"experimental",26,26,"hd","upper","engineer","aftertar3","w","g","g",1,0.643222309066914,NA,NA,NA
"experimental",26,27,"hd","upper","earnest","w","w","g","g",1,0.591887226328254,NA,NA,NA
"experimental",26,28,"hd","upper","serfume","w","nw","h","h",1,0.950600444339216,NA,NA,NA
"experimental",26,29,"hd","upper","tunneg","nw","nw","h","h",1,0.718456433736719,NA,NA,NA
"experimental",26,30,"hd","upper","armada","nw","w","g","h",0,0.615707487100735,NA,NA,NA
"experimental",27,1,"ld","lower","pleamed","nw","nw","h","h",1,0.8612971046241,NA,NA,NA
"experimental",27,2,"ld","lower","dests","nw","nw","h","h",1,0.897207696223632,NA,NA,NA
"experimental",27,3,"ld","lower","eaglot","nw","nw","h","h",1,0.6117916747462,NA,NA,NA
"experimental",27,4,"ld","lower","rangel","nw","nw","h","h",1,0.665821915841661,NA,NA,NA
"experimental",27,5,"ld","lower","describe","w","w","g","g",1,0.55786043824628,NA,NA,NA
"experimental",27,6,"ld","lower","rejoiced","w","w","g","g",1,0.677860027644783,NA,NA,NA
"experimental",27,7,"ld","lower","erlighten","nw","nw","h","h",1,0.833107361104339,NA,NA,NA
"experimental",27,8,"ld","lower","pamine","nw","nw","h","h",1,1.53432632482145,NA,NA,NA
"experimental",27,9,"ld","lower","rasuals","nw","nw","h","h",1,0.773985326522961,NA,NA,NA
"experimental",27,10,"ld","lower","attended","w","w","g","g",1,0.541416018735617,NA,NA,NA
"experimental",27,11,"ld","lower","clattest","nw","nw","h","h",1,1.39802599325776,NA,NA,NA
"experimental",27,12,"ld","lower","rudder","w","w","g","h",0,1.37258392875083,NA,NA,NA
"experimental",27,13,"ld","lower","giving","w","w","g","g",1,0.523930541938171,NA,NA,NA
"experimental",27,14,"ld","lower","become","w","w","g","g",1,0.445245141745545,NA,NA,NA
"experimental",27,15,"ld","lower","contund","nw","nw","h","g",0,0.521898231352679,NA,NA,NA
"experimental",27,16,"ld","lower","command","w","w","g","g",1,0.538267190102488,NA,NA,NA
"experimental",27,17,"ld","lower","remover","w","w","g","g",1,0.5157804726623,NA,NA,NA
"experimental",27,18,"ld","lower","mosary","nw","nw","h","g",0,0.404808108927682,NA,NA,NA
"experimental",27,19,"ld","lower","previous","w","w","g","g",1,0.498794546467252,NA,NA,NA
"experimental",27,20,"ld","lower","baseline","w","w","g","g",1,0.740275775780901,NA,NA,NA
"experimental",27,21,"ld","lower","airbis","nw","nw","h","g",0,0.844727118266746,NA,NA,NA
"experimental",27,22,"ld","lower","prohibit","w","w","g","g",1,0.78603309742175,NA,NA,NA
"experimental",27,23,"ld","lower","unstatle","nw","nw","h","g",0,0.537160632899031,NA,NA,NA
"experimental",27,24,"ld","lower","ringlat","nw","nw","h","h",1,0.794011115911417,NA,NA,NA
"experimental",27,25,"ld","lower","ordinary","w","w","g","g",1,0.599836267880164,NA,NA,NA
"experimental",27,26,"ld","lower","exit","w","w","g","g",1,0.575261399033479,NA,NA,NA
"experimental",27,27,"ld","lower","flieves","nw","nw","h","h",1,0.678560907836072,NA,NA,NA
"experimental",27,28,"ld","lower","volition","w","w","g","g",1,0.69684747653082,NA,NA,NA
"experimental",27,29,"ld","lower","exploit","w","w","g","g",1,0.531463643535972,NA,NA,NA
"experimental",27,30,"ld","lower","earterner","nw","nw","h","g",0,1.20482549502049,NA,NA,NA
"experimental",28,1,"ld","lower","shests","nw","nw","h","h",1,0.859355347114615,NA,NA,NA
"experimental",28,2,"ld","lower","expounded","w","w","g","g",1,0.870416090590879,NA,NA,NA
"experimental",28,3,"ld","lower","innocent","w","w","g","g",1,0.569587651640177,NA,NA,NA
"experimental",28,4,"ld","lower","affluent","w","w","g","g",1,0.552833842812106,NA,NA,NA
"experimental",28,5,"ld","lower","bentler","nw","nw","h","h",1,0.800784478196874,NA,NA,NA
"experimental",28,6,"ld","lower","talent","w","w","g","g",1,0.542756202747114,NA,NA,NA
"experimental",28,7,"ld","lower","miracle","w","w","g","g",1,0.591372281662188,NA,NA,NA
"experimental",28,8,"ld","lower","sefraud","nw","nw","h","h",1,0.774040865711868,NA,NA,NA
"experimental",28,9,"ld","lower","tipoff","w","w","g","h",0,0.860473978100345,NA,NA,NA
"experimental",28,10,"ld","lower","splatter","w","w","g","g",1,0.847198007046245,NA,NA,NA
"experimental",28,11,"ld","lower","addma","nw","nw","h","h",1,0.756188045721501,NA,NA,NA
"experimental",28,12,"ld","lower","trocess","nw","nw","h","h",1,0.71688684890978,NA,NA,NA
"experimental",28,13,"ld","lower","parlayid","nw","nw","h","g",0,1.67097136145458,NA,NA,NA
"experimental",28,14,"ld","lower","overwork","w","w","g","g",1,0.690206321538426,NA,NA,NA
"experimental",28,15,"ld","lower","heuls","nw","nw","h","h",1,0.66084784117993,NA,NA,NA
"experimental",28,16,"ld","lower","defeat","w","w","g","g",1,0.664827342377976,NA,NA,NA
"experimental",28,17,"ld","lower","poars","nw","nw","h","h",1,0.739904810441658,NA,NA,NA
"experimental",28,18,"ld","lower","heaviest","w","w","g","g",1,1.1254745303886,NA,NA,NA
"experimental",28,19,"ld","lower","addition","w","w","g","g",1,0.509788280818611,NA,NA,NA
"experimental",28,20,"ld","lower","flooted","nw","nw","h","g",0,0.551678688731045,NA,NA,NA
"experimental",28,21,"ld","lower","appain","nw","nw","h","g",0,0.439725334523246,NA,NA,NA
"experimental",28,22,"ld","lower","define","w","w","g","g",1,0.476389628602192,NA,NA,NA
"experimental",28,23,"ld","lower","borrent","nw","nw","h","g",0,0.823612580308691,NA,NA,NA
"experimental",28,24,"ld","lower","tusied","nw","nw","h","h",1,0.636978681664914,NA,NA,NA
"experimental",28,25,"ld","lower","nearsipe","nw","nw","h","h",1,0.577617889153771,NA,NA,NA
"experimental",28,26,"ld","lower","nimp","nw","nw","h","h",1,0.464901776867919,NA,NA,NA
"experimental",28,27,"ld","lower","aicline","nw","nw","h","h",1,1.07691459439229,NA,NA,NA
"experimental",28,28,"ld","lower","comply","w","w","g","g",1,1.23916499270126,NA,NA,NA
"experimental",28,29,"ld","lower","scatter","w","w","g","g",1,0.603903303621337,NA,NA,NA
"experimental",28,30,"ld","lower","ignoble","w","w","g","g",1,1.06571621028706,NA,NA,NA
"experimental",29,1,"hd","upper","neuran","nw","nw","h","h",1,0.709492293419316,NA,NA,NA
"experimental",29,2,"hd","upper","sullen","w","w","g","h",0,0.959304395946674,NA,NA,NA
"experimental",29,3,"hd","upper","tiery","nw","nw","h","h",1,0.655131232109852,NA,NA,NA
"experimental",29,4,"hd","upper","sorping","nw","nw","h","h",1,0.835224489565007,NA,NA,NA
"experimental",29,5,"hd","upper","edasion","nw","nw","h","h",1,1.07983341848012,NA,NA,NA
"experimental",29,6,"hd","upper","rocket","w","w","g","g",1,0.619136124383658,NA,NA,NA
"experimental",29,7,"hd","upper","unbridled","w","w","g","g",1,1.42451515188441,NA,NA,NA
"experimental",29,8,"hd","upper","result","w","w","g","g",1,0.469742135028355,NA,NA,NA
"experimental",29,9,"hd","upper","gradielts","nw","nw","h","h",1,0.744107071892358,NA,NA,NA
"experimental",29,10,"hd","upper","standard","w","w","g","g",1,1.00966241210699,NA,NA,NA
"experimental",29,11,"hd","upper","colicky","w","w","g","h",0,1.51860421616584,NA,NA,NA
"experimental",29,12,"hd","upper","publish","w","w","g","g",1,0.567914534593001,NA,NA,NA
"experimental",29,13,"hd","upper","suddenly","w","w","g","g",1,0.599281178088859,NA,NA,NA
"experimental",29,14,"hd","upper","preserve","w","w","g","g",1,0.51789126242511,NA,NA,NA
"experimental",29,15,"hd","upper","advantage","w","w","g","g",1,0.551194532308728,NA,NA,NA
"experimental",29,16,"hd","upper","rillains","nw","nw","h","h",1,0.647193358629011,NA,NA,NA
"experimental",29,17,"hd","upper","fards","nw","nw","h","g",0,0.963864341727458,NA,NA,NA
"experimental",29,18,"hd","upper","elvisages","nw","nw","h","h",1,0.730894789798185,NA,NA,NA
"experimental",29,19,"hd","upper","gigglod","nw","nw","h","h",1,0.909088849672116,NA,NA,NA
"experimental",29,20,"hd","upper","squirrel","target","target","q","g",0,0.556992035242729,1,1,NA
"experimental",29,21,"hd","upper","lentils","aftertar1","w","g","h",0,1.06078620476183,NA,NA,NA
"experimental",29,22,"hd","upper","ralliep","aftertar2","nw","h","h",1,0.769551551202312,NA,NA,NA
"experimental",29,23,"hd","upper","ubefully","aftertar3","nw","h","h",1,0.769283212488517,NA,NA,NA
"experimental",29,24,"hd","upper","neally","nw","nw","h","h",1,0.77655008842703,NA,NA,NA
"experimental",29,25,"hd","upper","incorrect","nw","w","g","g",1,0.623511643963866,NA,NA,NA
"experimental",29,26,"hd","upper","pregs","w","nw","h","h",1,0.669161811238155,NA,NA,NA
"experimental",29,27,"hd","upper","optional","nw","w","g","g",1,0.488484487053938,NA,NA,NA
"experimental",29,28,"hd","upper","erithets","w","nw","h","h",1,0.762200159253553,NA,NA,NA
"experimental",29,29,"hd","upper","senalize","nw","nw","h","h",1,1.05812666402198,NA,NA,NA
"experimental",29,30,"hd","upper","figure","nw","w","g","g",1,0.526092645013705,NA,NA,NA
"experimental",30,1,"hd","upper","yearnungs","nw","nw","h","h",1,0.783320130431093,NA,NA,NA
"experimental",30,2,"hd","upper","extruded","w","w","g","g",1,0.694588179932907,NA,NA,NA
"experimental",30,3,"hd","upper","marvel","w","w","g","g",1,0.620925752911717,NA,NA,NA
"experimental",30,4,"hd","upper","atch","nw","nw","h","h",1,0.690151084214449,NA,NA,NA
"experimental",30,5,"hd","upper","bloodless","w","w","g","g",1,0.660790490917861,NA,NA,NA
"experimental",30,6,"hd","upper","sazer","nw","nw","h","g",0,0.760745274834335,NA,NA,NA
"experimental",30,7,"hd","upper","decantel","nw","nw","h","h",1,1.1526811706135,NA,NA,NA
"experimental",30,8,"hd","upper","caution","w","w","g","g",1,0.656779899843968,NA,NA,NA
"experimental",30,9,"hd","upper","poughest","nw","nw","h","h",1,0.619337755604647,NA,NA,NA
"experimental",30,10,"hd","upper","fravity","nw","nw","h","h",1,0.799944146652706,NA,NA,NA
"experimental",30,11,"hd","upper","presence","w","w","g","g",1,0.600426673307084,NA,NA,NA
"experimental",30,12,"hd","upper","threaded","w","w","g","g",1,0.597637339960784,NA,NA,NA
"experimental",30,13,"hd","upper","lavilion","nw","nw","h","h",1,0.70825654710643,NA,NA,NA
"experimental",30,14,"hd","upper","plashed","nw","nw","h","g",0,0.814254232565872,NA,NA,NA
"experimental",30,15,"hd","upper","giraffe","target","target","q","g",0,0.97217468963936,1,1,NA
"experimental",30,16,"hd","upper","anonymous","aftertar1","w","g","g",1,0.68370039248839,NA,NA,NA
"experimental",30,17,"hd","upper","ebince","aftertar2","nw","h","g",0,0.67075222323183,NA,NA,NA
"experimental",30,18,"hd","upper","egect","aftertar3","nw","h","h",1,0.874070204794407,NA,NA,NA
"experimental",30,19,"hd","upper","efficient","nw","w","g","g",1,0.813412090064958,NA,NA,NA
"experimental",30,20,"hd","upper","blipover","w","nw","h","h",1,0.754484140546992,NA,NA,NA
"experimental",30,21,"hd","upper","scrooner","nw","nw","h","h",1,0.850294315023348,NA,NA,NA
"experimental",30,22,"hd","upper","disease","nw","w","g","g",1,0.60698029352352,NA,NA,NA
"experimental",30,23,"hd","upper","glassware","w","w","g","g",1,0.613031344953924,NA,NA,NA
"experimental",30,24,"hd","upper","helpful","w","w","g","g",1,0.410936733940616,NA,NA,NA
"experimental",30,25,"hd","upper","gounts","w","nw","h","h",1,0.69691448577214,NA,NA,NA
"experimental",30,26,"hd","upper","courier","nw","w","g","h",0,0.771540396264754,NA,NA,NA
"experimental",30,27,"hd","upper","sequence","w","w","g","g",1,0.67490890645422,NA,NA,NA
"experimental",30,28,"hd","upper","partner","w","w","g","g",1,0.950157036655582,NA,NA,NA
"experimental",30,29,"hd","upper","blassed","w","nw","h","g",0,0.57384515053127,NA,NA,NA
"experimental",30,30,"hd","upper","earmaff","nw","nw","h","h",1,0.797076937742531,NA,NA,NA
"experimental",31,1,"ld","lower","veranpah","nw","nw","h","h",1,0.620376700069755,NA,NA,NA
"experimental",31,2,"ld","lower","sheerio","nw","nw","h","h",1,0.928744579432532,NA,NA,NA
"experimental",31,3,"ld","lower","cessation","w","w","g","g",1,0.66577694111038,NA,NA,NA
"experimental",31,4,"ld","lower","divider","w","w","g","g",1,0.597991703776643,NA,NA,NA
"experimental",31,5,"ld","lower","fudden","nw","nw","h","g",0,0.804500772152096,NA,NA,NA
"experimental",31,6,"ld","lower","professor","w","w","g","g",1,0.546526828431524,NA,NA,NA
"experimental",31,7,"ld","lower","century","w","w","g","g",1,0.627083958592266,NA,NA,NA
"experimental",31,8,"ld","lower","regional","w","w","g","g",1,0.576436172821559,NA,NA,NA
"experimental",31,9,"ld","lower","envelop","w","w","g","g",1,0.759732590755448,NA,NA,NA
"experimental",31,10,"ld","lower","cills","nw","nw","h","h",1,0.735729412990622,NA,NA,NA
"experimental",31,11,"ld","lower","menarthe","nw","nw","h","h",1,0.712392705027014,NA,NA,NA
"experimental",31,12,"ld","lower","crocodile","target","target","q","g",0,0.842398095992394,1,1,NA
"experimental",31,13,"ld","lower","subber","aftertar1","nw","h","g",0,0.773917109938338,NA,NA,NA
"experimental",31,14,"ld","lower","even","aftertar2","w","g","g",1,0.485251746024005,NA,NA,NA
"experimental",31,15,"ld","lower","soluced","aftertar3","nw","h","h",1,0.73592108336743,NA,NA,NA
"experimental",31,16,"ld","lower","pender","nw","nw","h","g",0,0.640560957253911,NA,NA,NA
"experimental",31,17,"ld","lower","cheathe","nw","nw","h","h",1,1.29322058858816,NA,NA,NA
"experimental",31,18,"ld","lower","podges","nw","nw","h","h",1,0.751855991431512,NA,NA,NA
"experimental",31,19,"ld","lower","expected","nw","w","g","g",1,0.583932751440443,NA,NA,NA
"experimental",31,20,"ld","lower","birn","w","nw","h","h",1,0.645593891385943,NA,NA,NA
"experimental",31,21,"ld","lower","gaioty","nw","nw","h","h",1,0.864870626712218,NA,NA,NA
"experimental",31,22,"ld","lower","gestalion","nw","nw","h","h",1,0.692888198769651,NA,NA,NA
"experimental",31,23,"ld","lower","boutique","nw","w","g","g",1,0.79999545996543,NA,NA,NA
"experimental",31,24,"ld","lower","podes","w","nw","h","h",1,0.72752078610938,NA,NA,NA
"experimental",31,25,"ld","lower","cartles","nw","nw","h","g",0,0.928688134648837,NA,NA,NA
"experimental",31,26,"ld","lower","forgive","nw","w","g","g",1,0.585941518191248,NA,NA,NA
"experimental",31,27,"ld","lower","statute","w","w","g","g",1,0.600552541785873,NA,NA,NA
"experimental",31,28,"ld","lower","disuse","w","w","g","g",1,0.862564242561348,NA,NA,NA
"experimental",31,29,"ld","lower","acorn","w","w","g","g",1,0.649459597654641,NA,NA,NA
"experimental",31,30,"ld","lower","surface","w","w","g","g",1,0.559194283559918,NA,NA,NA
"experimental",32,1,"ld","lower","afternoon","w","w","g","g",1,0.622601284645498,NA,NA,NA
"experimental",32,2,"ld","lower","crimb","nw","nw","h","g",0,0.61195255711209,NA,NA,NA
"experimental",32,3,"ld","lower","kilotin","nw","nw","h","h",1,0.697933508548886,NA,NA,NA
"experimental",32,4,"ld","lower","spigat","nw","nw","h","h",1,0.795654048677534,NA,NA,NA
"experimental",32,5,"ld","lower","acroad","nw","nw","h","g",0,1.01820034987759,NA,NA,NA
"experimental",32,6,"ld","lower","function","w","w","g","g",1,0.543403052841313,NA,NA,NA
"experimental",32,7,"ld","lower","grieving","w","w","g","h",0,0.624101747525856,NA,NA,NA
"experimental",32,8,"ld","lower","lindo","nw","nw","h","h",1,0.661438246490434,NA,NA,NA
"experimental",32,9,"ld","lower","brimitar","nw","nw","h","h",1,0.80938519933261,NA,NA,NA
"experimental",32,10,"ld","lower","dishwater","w","w","g","g",1,0.63008307304699,NA,NA,NA
"experimental",32,11,"ld","lower","pracking","nw","nw","h","h",1,0.91552867507562,NA,NA,NA
"experimental",32,12,"ld","lower","meteoroid","w","w","g","g",1,1.39804651855957,NA,NA,NA
"experimental",32,13,"ld","lower","mining","w","w","g","g",1,0.661351919407025,NA,NA,NA
"experimental",32,14,"ld","lower","nopping","nw","nw","h","h",1,0.72815163852647,NA,NA,NA
"experimental",32,15,"ld","lower","tinion","nw","nw","h","h",1,0.865478538908064,NA,NA,NA
"experimental",32,16,"ld","lower","embrace","w","w","g","g",1,0.621372782741673,NA,NA,NA
"experimental",32,17,"ld","lower","schides","nw","nw","h","h",1,0.90669462911319,NA,NA,NA
"experimental",32,18,"ld","lower","trallion","nw","nw","h","g",0,0.916693488252349,NA,NA,NA
"experimental",32,19,"ld","lower","treason","w","w","g","h",0,0.814636969706044,NA,NA,NA
"experimental",32,20,"ld","lower","telecast","w","w","g","h",0,0.956589919747785,NA,NA,NA
"experimental",32,21,"ld","lower","stagger","w","w","g","g",1,0.835614772862755,NA,NA,NA
"experimental",32,22,"ld","lower","usually","w","w","g","g",1,0.520295443944633,NA,NA,NA
"experimental",32,23,"ld","lower","educate","w","w","g","g",1,0.545328208943829,NA,NA,NA
"experimental",32,24,"ld","lower","glapula","nw","nw","h","h",1,0.690089508309029,NA,NA,NA
"experimental",32,25,"ld","lower","official","w","w","g","g",1,0.540711516630836,NA,NA,NA
"experimental",32,26,"ld","lower","befriend","w","w","g","g",1,1.18139763048384,NA,NA,NA
"experimental",32,27,"ld","lower","mopping","w","w","g","g",1,0.668651696178131,NA,NA,NA
"experimental",32,28,"ld","lower","gettle","nw","nw","h","g",0,0.680015188525431,NA,NA,NA
"experimental",32,29,"ld","lower","nollow","nw","nw","h","h",1,0.523241132032126,NA,NA,NA
"experimental",32,30,"ld","lower","sponto","nw","nw","h","h",1,0.500602285610512,NA,NA,NA
"experimental",33,1,"hd","upper","gund","nw","nw","h","h",1,0.661962246405892,NA,NA,NA
"experimental",33,2,"hd","upper","extend","w","w","g","g",1,0.618176866555586,NA,NA,NA
"experimental",33,3,"hd","upper","ugifies","nw","nw","h","h",1,0.623376418137923,NA,NA,NA
"experimental",33,4,"hd","upper","prawls","nw","nw","h","h",1,0.532662263023667,NA,NA,NA
"experimental",33,5,"hd","upper","adok","nw","nw","h","h",1,0.533862693584524,NA,NA,NA
"experimental",33,6,"hd","upper","inverted","w","w","g","g",1,0.854238198604435,NA,NA,NA
"experimental",33,7,"hd","upper","baladroit","nw","nw","h","h",1,0.705624474096112,NA,NA,NA
"experimental",33,8,"hd","upper","mineluyer","nw","nw","h","h",1,0.563603307702579,NA,NA,NA
"experimental",33,9,"hd","upper","delegate","w","w","g","g",1,0.675543079036288,NA,NA,NA
"experimental",33,10,"hd","upper","serving","w","w","g","g",1,0.502714584581554,NA,NA,NA
"experimental",33,11,"hd","upper","itself","w","w","g","g",1,0.488729281933047,NA,NA,NA
"experimental",33,12,"hd","upper","consonant","w","w","g","g",1,0.747379354434088,NA,NA,NA
"experimental",33,13,"hd","upper","mestowal","nw","nw","h","h",1,0.70005214610137,NA,NA,NA
"experimental",33,14,"hd","upper","lecked","nw","nw","h","h",1,0.550650610704906,NA,NA,NA
"experimental",33,15,"hd","upper","tragedy","w","w","g","g",1,0.662655882188119,NA,NA,NA
"experimental",33,16,"hd","upper","maroon","w","w","g","g",1,0.665618473431095,NA,NA,NA
"experimental",33,17,"hd","upper","halter","w","w","g","g",1,0.517633488285355,NA,NA,NA
"experimental",33,18,"hd","upper","atabaster","nw","nw","h","h",1,0.862958751618862,NA,NA,NA
"experimental",33,19,"hd","upper","pigned","nw","nw","h","h",1,1.05892594496254,NA,NA,NA
"experimental",33,20,"hd","upper","intercede","w","w","g","g",1,0.806910990388133,NA,NA,NA
"experimental",33,21,"hd","upper","mitten","w","w","g","g",1,0.588800577213988,NA,NA,NA
"experimental",33,22,"hd","upper","kettle","w","w","g","g",1,0.930254701059312,NA,NA,NA
"experimental",33,23,"hd","upper","warden","w","w","g","g",1,0.986764282453805,NA,NA,NA
"experimental",33,24,"hd","upper","loached","nw","nw","h","h",1,0.770035707741044,NA,NA,NA
"experimental",33,25,"hd","upper","lanthers","nw","nw","h","h",1,1.16171654593199,NA,NA,NA
"experimental",33,26,"hd","upper","abraid","nw","nw","h","g",0,0.84161722753197,NA,NA,NA
"experimental",33,27,"hd","upper","farochial","nw","nw","h","h",1,0.958349062129855,NA,NA,NA
"experimental",33,28,"hd","upper","treenery","nw","nw","h","h",1,0.790270372759551,NA,NA,NA
"experimental",33,29,"hd","upper","blueberry","w","w","g","g",1,0.620905529358424,NA,NA,NA
"experimental",33,30,"hd","upper","overflow","w","w","g","g",1,0.586228269268759,NA,NA,NA
"experimental",34,1,"hd","upper","ciping","nw","nw","h","h",1,0.82430772529915,NA,NA,NA
"experimental",34,2,"hd","upper","hodels","nw","nw","h","h",1,0.733642770675942,NA,NA,NA
"experimental",34,3,"hd","upper","mixture","w","w","g","g",1,0.551064437720925,NA,NA,NA
"experimental",34,4,"hd","upper","elalt","nw","nw","h","h",1,0.566891587921418,NA,NA,NA
"experimental",34,5,"hd","upper","mubby","nw","nw","h","h",1,0.846887712134048,NA,NA,NA
"experimental",34,6,"hd","upper","forbid","w","w","g","g",1,0.699536597821862,NA,NA,NA
"experimental",34,7,"hd","upper","fabstand","nw","nw","h","h",1,0.998212592676282,NA,NA,NA
"experimental",34,8,"hd","upper","design","w","w","g","g",1,0.5798660175642,NA,NA,NA
"experimental",34,9,"hd","upper","levels","w","w","g","g",1,0.483139145188034,NA,NA,NA
"experimental",34,10,"hd","upper","temelity","nw","nw","h","h",1,0.654481665464118,NA,NA,NA
"experimental",34,11,"hd","upper","gremieres","nw","nw","h","h",1,0.777261532959528,NA,NA,NA
"experimental",34,12,"hd","upper","porcupine","target","target","q","h",0,0.656617206404917,NA,NA,NA
"experimental",34,13,"hd","upper","topefuls","aftertar1","nw","h","h",1,0.773383752908558,NA,NA,NA
"experimental",34,14,"hd","upper","destroy","aftertar2","w","g","g",1,0.613120992318727,NA,NA,NA
"experimental",34,15,"hd","upper","smallash","aftertar3","nw","h","h",1,0.675009420141578,NA,NA,NA
"experimental",34,16,"hd","upper","repayment","nw","w","g","g",1,0.734410056145862,NA,NA,NA
"experimental",34,17,"hd","upper","deserve","w","w","g","g",1,0.541289848275483,NA,NA,NA
"experimental",34,18,"hd","upper","bickering","w","w","g","h",0,1.3016266208142,NA,NA,NA
"experimental",34,19,"hd","upper","cayward","w","nw","h","h",1,1.32785076112486,NA,NA,NA
"experimental",34,20,"hd","upper","owner","nw","w","g","g",1,0.497071927064098,NA,NA,NA
"experimental",34,21,"hd","upper","brouhuha","w","nw","h","h",1,0.795730415149592,NA,NA,NA
"experimental",34,22,"hd","upper","admire","nw","w","g","g",1,0.618370649870485,NA,NA,NA
"experimental",34,23,"hd","upper","amidst","w","w","g","g",1,0.49501395993866,NA,NA,NA
"experimental",34,24,"hd","upper","triplet","w","w","g","g",1,0.841674879542552,NA,NA,NA
"experimental",34,25,"hd","upper","fetching","w","w","g","g",1,0.629384909523651,NA,NA,NA
"experimental",34,26,"hd","upper","nores","w","nw","h","h",1,0.642624357715249,NA,NA,NA
"experimental",34,27,"hd","upper","staircase","nw","w","g","g",1,0.591294707963243,NA,NA,NA
"experimental",34,28,"hd","upper","gumdrep","w","nw","h","h",1,1.04598049225751,NA,NA,NA
"experimental",34,29,"hd","upper","nelvet","nw","nw","h","h",1,0.73055431060493,NA,NA,NA
"experimental",34,30,"hd","upper","violate","nw","w","g","g",1,0.763927004300058,NA,NA,NA
"experimental",35,1,"ld","lower","scack","nw","nw","h","h",1,0.762494456372224,NA,NA,NA
"experimental",35,2,"ld","lower","lawsuit","w","w","g","g",1,0.595242817420512,NA,NA,NA
"experimental",35,3,"ld","lower","potent","w","w","g","g",1,0.881919638137333,NA,NA,NA
"experimental",35,4,"ld","lower","pypecast","nw","nw","h","h",1,0.781330077908933,NA,NA,NA
"experimental",35,5,"ld","lower","fivalve","nw","nw","h","h",1,0.756544220610522,NA,NA,NA
"experimental",35,6,"ld","lower","deficit","w","w","g","g",1,0.548472208087333,NA,NA,NA
"experimental",35,7,"ld","lower","contain","w","w","g","g",1,0.517206983873621,NA,NA,NA
"experimental",35,8,"ld","lower","regards","w","w","g","g",1,0.556834775023162,NA,NA,NA
"experimental",35,9,"ld","lower","cervical","w","w","g","g",1,1.10073183674831,NA,NA,NA
"experimental",35,10,"ld","lower","attract","w","w","g","g",1,0.502655725111254,NA,NA,NA
"experimental",35,11,"ld","lower","attrove","nw","nw","h","g",0,0.464671168709174,NA,NA,NA
"experimental",35,12,"ld","lower","fuack","nw","nw","h","h",1,0.620613948907703,NA,NA,NA
"experimental",35,13,"ld","lower","ounside","nw","nw","h","h",1,0.809959606966004,NA,NA,NA
"experimental",35,14,"ld","lower","crudios","nw","nw","h","h",1,1.80790737492498,NA,NA,NA
"experimental",35,15,"ld","lower","puggers","nw","nw","h","h",1,1.11788468237501,NA,NA,NA
"experimental",35,16,"ld","lower","cherry","w","w","g","g",1,0.566329555702396,NA,NA,NA
"experimental",35,17,"ld","lower","garment","w","w","g","h",0,0.742241680738516,NA,NA,NA
"experimental",35,18,"ld","lower","ensues","w","w","g","h",0,1.28672763868235,NA,NA,NA
"experimental",35,19,"ld","lower","goltish","nw","nw","h","h",1,0.649408284341916,NA,NA,NA
"experimental",35,20,"ld","lower","vibrate","w","w","g","g",1,0.566025599604473,NA,NA,NA
"experimental",35,21,"ld","lower","deadly","w","w","g","g",1,0.701986659434624,NA,NA,NA
"experimental",35,22,"ld","lower","ganter","nw","nw","h","h",1,0.646068388945423,NA,NA,NA
"experimental",35,23,"ld","lower","comment","w","w","g","g",1,0.498714256216772,NA,NA,NA
"experimental",35,24,"ld","lower","surfaced","w","w","g","g",1,0.534313949290663,NA,NA,NA
"experimental",35,25,"ld","lower","galashes","nw","nw","h","h",1,0.73441096174065,NA,NA,NA
"experimental",35,26,"ld","lower","slooping","nw","nw","h","h",1,0.614196761627682,NA,NA,NA
"experimental",35,27,"ld","lower","eightiech","nw","nw","h","h",1,1.41213444794994,NA,NA,NA
"experimental",35,28,"ld","lower","require","w","w","g","g",1,0.74604007601738,NA,NA,NA
"experimental",35,29,"ld","lower","chonemic","nw","nw","h","h",1,0.930741876014508,NA,NA,NA
"experimental",35,30,"ld","lower","recipus","nw","nw","h","g",0,1.36407919367775,NA,NA,NA
"experimental",36,1,"hd","upper","metebing","nw","nw","h","h",1,0.787506997934543,NA,NA,NA
"experimental",36,2,"hd","upper","solidity","w","w","g","g",1,0.754076652228832,NA,NA,NA
"experimental",36,3,"hd","upper","troven","nw","nw","h","h",1,0.64212993835099,NA,NA,NA
"experimental",36,4,"hd","upper","pocket","w","w","g","g",1,0.526718064211309,NA,NA,NA
"experimental",36,5,"hd","upper","miability","nw","nw","h","h",1,0.83998606656678,NA,NA,NA
"experimental",36,6,"hd","upper","snorls","nw","nw","h","h",1,0.588713948382065,NA,NA,NA
"experimental",36,7,"hd","upper","sording","nw","nw","h","h",1,0.819344214978628,NA,NA,NA
"experimental",36,8,"hd","upper","catacomb","w","w","g","h",0,1.01652542187367,NA,NA,NA
"experimental",36,9,"hd","upper","vented","w","w","g","g",1,0.549551599426195,NA,NA,NA
"experimental",36,10,"hd","upper","chiffol","nw","nw","h","h",1,0.636994679342024,NA,NA,NA
"experimental",36,11,"hd","upper","parent","w","w","g","g",1,1.34566886920948,NA,NA,NA
"experimental",36,12,"hd","upper","intersect","w","w","g","g",1,0.971126991789788,NA,NA,NA
"experimental",36,13,"hd","upper","female","w","w","g","g",1,0.538832844351418,NA,NA,NA
"experimental",36,14,"hd","upper","stooping","w","w","g","h",0,1.56341797590721,NA,NA,NA
"experimental",36,15,"hd","upper","aligning","w","w","g","g",1,0.675404834793881,NA,NA,NA
"experimental",36,16,"hd","upper","ezulated","nw","nw","h","h",1,1.39871178101748,NA,NA,NA
"experimental",36,17,"hd","upper","crazy","w","w","g","g",1,0.508328265044838,NA,NA,NA
"experimental",36,18,"hd","upper","ergonomic","w","w","g","h",0,0.926333757350221,NA,NA,NA
"experimental",36,19,"hd","upper","railroad","w","w","g","g",1,0.807610361138359,NA,NA,NA
"experimental",36,20,"hd","upper","noblest","w","w","g","g",1,0.725560616119765,NA,NA,NA
"experimental",36,21,"hd","upper","causality","w","w","g","g",1,0.59882479114458,NA,NA,NA
"experimental",36,22,"hd","upper","lizard","target","target","q","g",0,0.493507762206718,NA,NA,NA
"experimental",36,23,"hd","upper","tinker","aftertar1","w","g","g",1,0.648117904551327,NA,NA,NA
"experimental",36,24,"hd","upper","plartly","aftertar2","nw","h","h",1,1.31587633804884,NA,NA,NA
"experimental",36,25,"hd","upper","elpired","aftertar3","nw","h","h",1,0.74178106803447,NA,NA,NA
"experimental",36,26,"hd","upper","sprea","nw","nw","h","h",1,0.566386905964464,NA,NA,NA
"experimental",36,27,"hd","upper","flacked","nw","nw","h","h",1,0.61430210492108,NA,NA,NA
"experimental",36,28,"hd","upper","drine","nw","nw","h","h",1,0.860360485035926,NA,NA,NA
"experimental",36,29,"hd","upper","snocks","nw","nw","h","g",0,0.576308493153192,NA,NA,NA
"experimental",36,30,"hd","upper","traze","nw","nw","h","g",0,0.46362739475444,NA,NA,NA
"experimental",37,1,"ld","lower","purport","w","w","g","h",0,1.08318508567754,NA,NA,NA
"experimental",37,2,"ld","lower","mystery","w","w","g","g",1,0.526405354728922,NA,NA,NA
"experimental",37,3,"ld","lower","huntry","nw","nw","h","g",0,0.99176612670999,NA,NA,NA
"experimental",37,4,"ld","lower","slowning","nw","nw","h","g",0,0.622408105060458,NA,NA,NA
"experimental",37,5,"ld","lower","fragment","w","w","g","g",1,0.579741054330952,NA,NA,NA
"experimental",37,6,"ld","lower","shazer","nw","nw","h","g",0,1.44302176439669,NA,NA,NA
"experimental",37,7,"ld","lower","insertion","w","w","g","g",1,1.09476409421768,NA,NA,NA
"experimental",37,8,"ld","lower","intrude","w","w","g","g",1,0.569307541125454,NA,NA,NA
